# run_gait log  cmd_fwd=0.100 hz=80.0 fw_balance=off policy_yaw_sign=-1
t,roll,pitch,yaw,gx,gy,gz,j0,j1,j2,j3,j4,j5,j6,j7,guard_state,hottest_j,hottest_tier,hottest_frac,duty_s,ax,ay,az,imu_n,imu_age_s,volt
0.0420,-0.02443,0.01920,0.00000,0.00000,0.00000,0.00000,36,0,57,10,60,-3,54,8,ok,3,0,0.000,0,0.19,-0.25,10.00,2,0.000,nan
0.0475,-0.02443,0.01920,0.00000,0.00000,0.00000,0.00000,34,1,59,10,59,-4,56,6,ok,2,0,0.000,0,0.19,-0.25,10.00,2,0.027,nan
0.0604,-0.02443,0.01920,0.00000,0.00000,0.00000,0.00000,34,4,59,11,56,-5,56,8,ok,4,0,0.000,0,0.19,-0.25,10.00,2,0.040,8.20
0.0819,-0.02443,0.01920,0.00000,0.00000,0.00000,0.00000,33,6,60,12,55,-6,57,8,ok,4,0,0.000,0,0.19,-0.25,10.00,2,0.052,8.20
0.0865,-0.02443,0.01920,0.00000,0.00000,0.00000,0.00000,32,10,59,13,52,-5,57,9,ok,4,0,0.000,0,0.19,-0.25,10.00,2,0.067,8.20
0.0985,-0.02443,0.01920,0.00000,0.00000,0.00000,0.00000,31,12,60,13,50,-5,58,10,ok,4,0,0.000,0,0.19,-0.25,10.00,2,0.079,8.20
0.1219,-0.02443,0.01920,0.00000,0.00000,0.00000,0.00000,32,13,60,14,47,-5,59,11,ok,4,0,0.000,0,0.19,-0.25,10.00,2,0.092,8.20
0.1259,-0.02443,0.01920,0.00000,0.00000,0.00000,0.00000,32,13,60,15,44,-4,59,11,ok,4,0,0.000,0,0.19,-0.25,10.00,2,0.107,8.20
0.1384,-0.02443,0.01920,0.00000,0.00000,0.00000,0.00000,33,12,61,15,42,-4,60,12,ok,4,0,0.000,0,0.19,-0.25,10.00,2,0.119,8.20
0.1619,-0.02443,0.01920,0.00000,0.00000,0.00000,0.00000,34,11,60,16,39,-3,60,12,ok,4,0,0.000,0,0.19,-0.25,10.00,2,0.132,8.20
0.1658,-0.02443,0.01920,0.00000,0.00000,0.00000,0.00000,34,11,61,17,36,-2,61,13,ok,4,0,0.000,0,0.19,-0.25,10.00,2,0.147,8.20
0.1778,-0.02443,0.01920,0.00000,0.00000,0.00000,0.00000,34,9,61,18,32,-1,61,14,ok,4,0,0.000,0,0.19,-0.25,10.00,2,0.159,8.20
0.1978,-0.02443,0.01920,0.00000,0.00000,0.00000,0.00000,34,9,61,19,30,0,62,15,ok,4,0,0.000,0,0.19,-0.25,10.00,2,0.172,8.20
0.2031,-0.02618,-0.10821,-0.00524,0.00000,0.00000,0.00000,36,8,62,20,27,2,62,16,ok,4,0,0.000,0,-1.63,-0.17,9.87,3,0.000,8.20
0.2153,-0.02618,-0.10821,-0.00524,0.00000,0.00000,0.00000,36,7,62,20,25,5,63,16,ok,4,0,0.000,0,-1.63,-0.17,9.87,3,0.013,8.20
0.2378,-0.02618,-0.10821,-0.00524,0.00000,0.00000,0.00000,37,6,62,21,23,8,64,17,ok,4,0,0.000,0,-1.63,-0.17,9.87,3,0.025,8.20
0.2410,-0.02618,-0.10821,-0.00524,0.00000,0.00000,0.00000,38,6,62,22,22,11,64,18,ok,4,0,0.000,0,-1.63,-0.17,9.87,3,0.038,8.20
0.2538,-0.02618,-0.10821,-0.00524,0.00000,0.00000,0.00000,38,6,62,23,21,14,65,18,ok,4,0,0.000,0,-1.63,-0.17,9.87,3,0.051,8.20
0.2738,-0.02618,-0.10821,-0.00524,0.00000,0.00000,0.00000,39,6,61,26,23,14,65,19,ok,4,0,0.000,0,-1.63,-0.17,9.87,3,0.063,8.20
0.2786,-0.02618,-0.10821,-0.00524,0.00000,0.00000,0.00000,40,5,62,28,22,14,65,20,ok,4,0,0.000,0,-1.63,-0.17,9.87,3,0.076,8.20
0.2912,-0.02618,-0.10821,-0.00524,0.00000,0.00000,0.00000,40,5,64,26,23,12,65,21,ok,4,0,0.000,0,-1.63,-0.17,9.87,3,0.088,8.20
0.3138,-0.02618,-0.10821,-0.00524,0.00000,0.00000,0.00000,40,4,67,23,25,11,65,22,ok,4,0,0.000,0,-1.63,-0.17,9.87,3,0.101,8.20
0.3170,-0.02618,-0.10821,-0.00524,0.00000,0.00000,0.00000,42,4,69,19,26,11,66,24,ok,4,0,0.000,0,-1.63,-0.17,9.87,3,0.114,8.20
0.3298,-0.02618,-0.10821,-0.00524,0.00000,0.00000,0.00000,42,4,70,16,27,11,65,25,ok,4,0,0.000,0,-1.63,-0.17,9.87,3,0.127,8.20
0.3498,-0.02618,-0.10821,-0.00524,0.00000,0.00000,0.00000,43,4,71,14,28,10,65,27,ok,4,0,0.000,0,-1.63,-0.17,9.87,3,0.139,8.20
0.3546,-0.02618,-0.10821,-0.00524,0.00000,0.00000,0.00000,44,3,71,13,30,10,65,28,ok,4,0,0.000,0,-1.63,-0.17,9.87,3,0.152,8.20
0.3674,-0.02618,-0.10821,-0.00524,0.00000,0.00000,0.00000,44,3,71,10,30,10,64,30,ok,4,0,0.000,0,-1.63,-0.17,9.87,3,0.164,8.20
0.3898,-0.02618,-0.10821,-0.00524,0.00000,0.00000,0.00000,45,4,71,7,32,10,64,31,ok,4,0,0.000,0,-1.63,-0.17,9.87,3,0.177,8.20
0.3930,-0.02618,-0.10821,-0.00524,0.00000,0.00000,0.00000,46,4,70,4,34,9,65,32,ok,4,0,0.000,0,-1.63,-0.17,9.87,3,0.190,8.20
0.4060,-0.12217,0.01396,0.05760,0.00000,0.00000,0.00000,46,3,69,1,35,9,64,33,ok,4,0,0.000,0,-0.16,-1.88,9.58,4,0.000,8.20
0.4258,-0.12217,0.01396,0.05760,0.00000,0.00000,0.00000,47,3,68,0,36,8,64,35,ok,4,0,0.000,0,-0.16,-1.88,9.58,4,0.013,8.20
0.4308,-0.12217,0.01396,0.05760,0.00000,0.00000,0.00000,48,3,67,-1,37,8,64,36,ok,4,0,0.000,0,-0.16,-1.88,9.58,4,0.025,8.20
0.4432,-0.12217,0.01396,0.05760,0.00000,0.00000,0.00000,48,3,65,-2,38,6,65,36,ok,4,0,0.000,0,-0.16,-1.88,9.58,4,0.038,8.20
0.4658,-0.12217,0.01396,0.05760,0.00000,0.00000,0.00000,49,3,63,-4,41,6,66,35,ok,4,0,0.000,0,-0.16,-1.88,9.58,4,0.050,8.20
0.4690,-0.12217,0.01396,0.05760,0.00000,0.00000,0.00000,49,3,62,-6,42,6,67,32,ok,4,0,0.000,0,-0.16,-1.88,9.58,4,0.063,8.20
0.4819,-0.12217,0.01396,0.05760,0.00000,0.00000,0.00000,50,4,59,-7,43,6,70,27,ok,4,0,0.000,0,-0.16,-1.88,9.58,4,0.076,8.20
0.5018,-0.12217,0.01396,0.05760,0.00000,0.00000,0.00000,50,3,56,-8,44,6,71,23,ok,4,0,0.000,0,-0.16,-1.88,9.58,4,0.089,8.20
0.5066,-0.12217,0.01396,0.05760,0.00000,0.00000,0.00000,51,3,54,-9,46,6,73,20,ok,4,0,0.000,0,-0.16,-1.88,9.58,4,0.101,8.20
0.5192,-0.12217,0.01396,0.05760,0.00000,0.00000,0.00000,51,5,52,-10,47,6,73,20,ok,4,0,0.000,0,-0.16,-1.88,9.58,4,0.114,8.20
0.5418,-0.12217,0.01396,0.05760,0.00000,0.00000,0.00000,52,5,49,-10,48,7,73,17,ok,4,0,0.000,1,-0.16,-1.88,9.58,4,0.126,8.20
0.5452,-0.12217,0.01396,0.05760,0.00000,0.00000,0.00000,52,5,47,-10,49,7,73,14,ok,4,0,0.000,1,-0.16,-1.88,9.58,4,0.139,8.20
0.5576,-0.12217,0.01396,0.05760,0.00000,0.00000,0.00000,52,6,45,-10,50,7,73,11,ok,4,0,0.000,1,-0.16,-1.88,9.58,4,0.152,8.20
0.5780,-0.12217,0.01396,0.05760,0.00000,0.00000,0.00000,52,7,42,-10,51,7,72,10,ok,4,0,0.000,1,-0.16,-1.88,9.58,4,0.165,8.20
0.5826,-0.12217,0.01396,0.05760,0.00000,0.00000,0.00000,54,7,39,-11,52,7,72,6,ok,4,0,0.000,1,-0.16,-1.88,9.58,4,0.177,8.20
0.5952,-0.12217,0.01396,0.05760,0.00000,0.00000,0.00000,54,7,37,-10,53,6,72,4,ok,4,0,0.000,1,-0.16,-1.88,9.58,4,0.190,8.20
0.6178,-0.02094,-0.01047,0.03491,0.00000,0.00000,0.00000,54,7,33,-9,53,7,70,3,ok,4,0,0.000,1,0.82,-0.21,9.93,5,0.000,8.20
0.6210,-0.02094,-0.01047,0.03491,0.00000,0.00000,0.00000,54,8,31,-8,54,7,68,0,ok,4,0,0.000,1,0.82,-0.21,9.93,5,0.013,8.20
0.6336,-0.02094,-0.01047,0.03491,0.00000,0.00000,0.00000,54,8,27,-7,54,8,66,0,ok,4,0,0.000,1,0.82,-0.21,9.93,5,0.026,8.20
0.6538,-0.02094,-0.01047,0.03491,0.00000,0.00000,0.00000,54,9,24,-5,55,8,65,-2,ok,2,0,0.000,1,0.82,-0.21,9.93,5,0.039,8.20
0.6586,-0.02094,-0.01047,0.03491,0.00000,0.00000,0.00000,55,11,20,-3,56,9,64,-3,ok,2,0,0.000,1,0.82,-0.21,9.93,5,0.051,8.20
0.6712,-0.02094,-0.01047,0.03491,0.00000,0.00000,0.00000,56,11,19,-1,58,7,62,-5,ok,2,0,0.000,1,0.82,-0.21,9.93,5,0.064,8.20
0.6938,-0.02094,-0.01047,0.03491,0.00000,0.00000,0.00000,56,10,18,0,58,8,60,-5,ok,2,0,0.000,1,0.82,-0.21,9.93,5,0.076,8.20
0.6970,-0.02094,-0.01047,0.03491,0.00000,0.00000,0.00000,56,11,16,2,59,9,58,-6,ok,2,0,0.000,1,0.82,-0.21,9.93,5,0.089,8.20
0.7096,-0.02094,-0.01047,0.03491,0.00000,0.00000,0.00000,56,11,14,6,59,9,55,-6,ok,2,0,0.000,1,0.82,-0.21,9.93,5,0.102,8.20
0.7298,-0.02094,-0.01047,0.03491,0.00000,0.00000,0.00000,56,13,13,9,59,10,53,-7,ok,2,0,0.000,1,0.82,-0.21,9.93,5,0.115,8.20
0.7348,-0.02094,-0.01047,0.03491,0.00000,0.00000,0.00000,56,13,12,11,60,10,50,-6,ok,2,0,0.000,1,0.82,-0.21,9.93,5,0.127,8.20
0.7471,-0.02094,-0.01047,0.03491,0.00000,0.00000,0.00000,56,13,14,12,60,10,48,-6,ok,2,0,0.000,1,0.82,-0.21,9.93,5,0.140,8.20
0.7698,-0.02094,-0.01047,0.03491,0.00000,0.00000,0.00000,56,13,15,12,60,11,45,-6,ok,2,0,0.000,1,0.82,-0.21,9.93,5,0.152,8.20
0.7730,-0.02094,-0.01047,0.03491,0.00000,0.00000,0.00000,56,14,16,10,61,11,42,-5,ok,2,0,0.000,1,0.82,-0.21,9.93,5,0.165,8.20
0.7856,-0.02094,-0.01047,0.03491,0.00000,0.00000,0.00000,56,15,19,9,61,12,40,-5,ok,2,0,0.000,1,0.82,-0.21,9.93,5,0.178,8.20
0.8058,-0.02094,-0.01047,0.03491,0.00000,0.00000,0.00000,56,15,19,9,61,13,37,-4,ok,2,0,0.000,1,0.82,-0.21,9.93,5,0.191,8.20
0.8108,-0.02094,-0.01047,0.03491,0.00000,0.00000,0.00000,57,16,21,7,61,13,35,-3,ok,2,0,0.000,1,0.82,-0.21,9.93,5,0.203,8.20
0.8235,-0.11519,0.12043,0.01571,0.00000,0.00000,0.00000,57,17,22,7,62,14,31,-1,ok,2,0,0.000,1,1.45,-1.59,9.33,6,0.000,8.20
0.8458,-0.11519,0.12043,0.01571,0.00000,0.00000,0.00000,58,19,23,6,62,14,30,0,ok,2,0,0.000,1,1.45,-1.59,9.33,6,0.013,8.20
0.8490,-0.11519,0.12043,0.01571,0.00000,0.00000,0.00000,58,20,25,6,62,15,28,1,ok,2,0,0.000,1,1.45,-1.59,9.33,6,0.026,8.20
0.8617,-0.11519,0.12043,0.01571,0.00000,0.00000,0.00000,58,20,24,5,62,16,26,5,ok,2,0,0.000,1,1.45,-1.59,9.33,6,0.039,8.20
0.8818,-0.11519,0.12043,0.01571,0.00000,0.00000,0.00000,58,21,25,4,63,16,24,7,ok,2,0,0.000,1,1.45,-1.59,9.33,6,0.051,8.20
0.8866,-0.11519,0.12043,0.01571,0.00000,0.00000,0.00000,58,22,26,4,63,17,23,11,ok,2,0,0.000,1,1.45,-1.59,9.33,6,0.064,8.20
0.8994,-0.11519,0.12043,0.01571,0.00000,0.00000,0.00000,57,25,27,3,64,18,23,13,ok,2,0,0.000,1,1.45,-1.59,9.33,6,0.076,8.20
0.9218,-0.11519,0.12043,0.01571,0.00000,0.00000,0.00000,57,25,27,3,64,19,25,12,ok,2,0,0.000,1,1.45,-1.59,9.33,6,0.089,8.20
0.9250,-0.11519,0.12043,0.01571,0.00000,0.00000,0.00000,58,24,28,3,64,21,25,12,ok,2,0,0.000,1,1.45,-1.59,9.33,6,0.102,8.20
0.9375,-0.11519,0.12043,0.01571,0.00000,0.00000,0.00000,58,20,29,2,65,22,26,10,ok,2,0,0.000,1,1.45,-1.59,9.33,6,0.115,8.20
0.9578,-0.11519,0.12043,0.01571,0.00000,0.00000,0.00000,60,17,31,2,64,23,27,10,ok,2,0,0.000,1,1.45,-1.59,9.33,6,0.127,8.20
0.9626,-0.11519,0.12043,0.01571,0.00000,0.00000,0.00000,60,13,32,2,64,25,29,10,ok,2,0,0.000,1,1.45,-1.59,9.33,6,0.139,8.20
0.9753,-0.11519,0.12043,0.01571,0.00000,0.00000,0.00000,60,11,33,2,65,25,30,9,ok,2,0,0.000,1,1.45,-1.59,9.33,6,0.152,8.20
0.9978,-0.11519,0.12043,0.01571,0.00000,0.00000,0.00000,60,11,35,2,64,27,31,9,ok,2,0,0.000,1,1.45,-1.59,9.33,6,0.165,8.20
1.0010,-0.11519,0.12043,0.01571,0.00000,0.00000,0.00000,60,7,36,2,64,28,33,9,ok,2,0,0.000,1,1.45,-1.59,9.33,6,0.178,8.20
1.0136,-0.11519,0.12043,0.01571,0.00000,0.00000,0.00000,60,5,38,3,64,30,34,9,ok,2,0,0.000,1,1.45,-1.59,9.33,6,0.191,8.20
1.0338,-0.05061,0.00175,0.08901,0.00000,0.00000,0.00000,60,2,39,3,64,32,35,8,ok,2,0,0.000,1,-0.26,0.13,11.05,7,0.000,8.20
1.0388,-0.05061,0.00175,0.08901,0.00000,0.00000,0.00000,59,-1,41,2,65,34,36,8,ok,2,0,0.000,1,-0.26,0.13,11.05,7,0.012,8.20
1.0512,-0.05061,0.00175,0.08901,0.00000,0.00000,0.00000,58,-2,42,2,65,35,37,8,ok,2,0,0.000,1,-0.26,0.13,11.05,7,0.025,8.20
1.0738,-0.05061,0.00175,0.08901,0.00000,0.00000,0.00000,58,-4,43,2,65,36,39,8,ok,2,0,0.000,1,-0.26,0.13,11.05,7,0.038,8.20
1.0770,-0.05061,0.00175,0.08901,0.00000,0.00000,0.00000,56,-4,44,2,66,35,40,7,ok,2,0,0.000,1,-0.26,0.13,11.05,7,0.051,8.20
1.0896,-0.05061,0.00175,0.08901,0.00000,0.00000,0.00000,56,-6,45,2,68,33,41,7,ok,2,0,0.000,1,-0.26,0.13,11.05,7,0.064,8.20
1.1098,-0.05061,0.00175,0.08901,0.00000,0.00000,0.00000,56,-8,47,2,70,29,42,7,ok,2,0,0.000,1,-0.26,0.13,11.05,7,0.076,8.20
1.1148,-0.05061,0.00175,0.08901,0.00000,0.00000,0.00000,54,-8,48,3,71,24,44,7,ok,2,0,0.000,1,-0.26,0.13,11.05,7,0.088,8.20
1.1272,-0.05061,0.00175,0.08901,0.00000,0.00000,0.00000,54,-9,49,3,73,21,44,7,ok,2,0,0.000,1,-0.26,0.13,11.05,7,0.101,8.20
1.1498,-0.05061,0.00175,0.08901,0.00000,0.00000,0.00000,52,-9,50,3,74,20,45,7,ok,2,0,0.000,1,-0.26,0.13,11.05,7,0.114,8.20
1.1530,-0.05061,0.00175,0.08901,0.00000,0.00000,0.00000,51,-11,50,5,74,18,46,7,ok,2,0,0.000,1,-0.26,0.13,11.05,7,0.127,8.20
1.1656,-0.05061,0.00175,0.08901,0.00000,0.00000,0.00000,50,-11,51,6,74,15,47,8,ok,2,0,0.000,1,-0.26,0.13,11.05,7,0.140,8.20
1.1858,-0.05061,0.00175,0.08901,0.00000,0.00000,0.00000,48,-11,52,6,73,12,48,8,ok,2,0,0.000,1,-0.26,0.13,11.05,7,0.152,8.20
1.1908,-0.05061,0.00175,0.08901,0.00000,0.00000,0.00000,47,-10,53,6,72,10,49,8,ok,2,0,0.000,1,-0.26,0.13,11.05,7,0.165,8.20
1.2032,-0.05061,0.00175,0.08901,0.00000,0.00000,0.00000,46,-11,54,7,72,7,49,9,ok,2,0,0.000,1,-0.26,0.13,11.05,7,0.177,8.20
1.2258,-0.05061,0.00175,0.08901,0.00000,0.00000,0.00000,44,-11,56,7,71,5,50,8,ok,2,0,0.000,1,-0.26,0.13,11.05,7,0.190,8.20
1.2293,-0.03142,-0.04363,0.08727,0.00000,0.00000,0.00000,43,-10,56,7,70,4,51,9,ok,2,0,0.000,1,-0.32,-0.32,8.97,8,0.000,8.20
1.2418,-0.03142,-0.04363,0.08727,0.00000,0.00000,0.00000,42,-8,57,7,69,1,52,8,ok,2,0,0.000,1,-0.32,-0.32,8.97,8,0.013,8.20
1.2618,-0.03142,-0.04363,0.08727,0.00000,0.00000,0.00000,40,-7,57,8,66,2,52,8,ok,2,0,0.000,1,-0.32,-0.32,8.97,8,0.025,8.20
1.2666,-0.03142,-0.04363,0.08727,0.00000,0.00000,0.00000,38,-6,58,7,65,-1,53,8,ok,2,0,0.000,1,-0.32,-0.32,8.97,8,0.038,8.20
1.2792,-0.03142,-0.04363,0.08727,0.00000,0.00000,0.00000,37,-4,59,8,64,-2,54,9,ok,2,0,0.000,1,-0.32,-0.32,8.97,8,0.050,8.20
1.3018,-0.03142,-0.04363,0.08727,0.00000,0.00000,0.00000,35,-1,59,9,61,-4,55,9,ok,2,0,0.000,1,-0.32,-0.32,8.97,8,0.063,8.20
1.3050,-0.03142,-0.04363,0.08727,0.00000,0.00000,0.00000,35,-1,60,10,60,-5,55,8,ok,2,0,0.000,1,-0.32,-0.32,8.97,8,0.076,8.20
1.3176,-0.03142,-0.04363,0.08727,0.00000,0.00000,0.00000,34,0,61,10,58,-5,57,6,ok,2,0,0.000,1,-0.32,-0.32,8.97,8,0.089,8.20
1.3378,-0.03142,-0.04363,0.08727,0.00000,0.00000,0.00000,34,3,61,11,55,-6,57,7,ok,2,0,0.000,1,-0.32,-0.32,8.97,8,0.101,8.20
1.3426,-0.03142,-0.04363,0.08727,0.00000,0.00000,0.00000,32,6,61,11,54,-7,58,8,ok,2,0,0.000,1,-0.32,-0.32,8.97,8,0.114,8.20
1.3554,-0.03142,-0.04363,0.08727,0.00000,0.00000,0.00000,32,9,61,12,51,-6,59,9,ok,2,0,0.000,1,-0.32,-0.32,8.97,8,0.126,8.20
1.3778,-0.03142,-0.04363,0.08727,0.00000,0.00000,0.00000,32,11,62,11,48,-6,59,9,ok,2,0,0.000,1,-0.32,-0.32,8.97,8,0.139,8.20
1.3810,-0.03142,-0.04363,0.08727,0.00000,0.00000,0.00000,32,11,62,13,45,-6,60,10,ok,2,0,0.000,1,-0.32,-0.32,8.97,8,0.152,8.20
1.3938,-0.03142,-0.04363,0.08727,0.00000,0.00000,0.00000,32,11,62,13,42,-5,60,10,ok,4,0,0.000,1,-0.32,-0.32,8.97,8,0.165,8.20
1.4138,-0.03142,-0.04363,0.08727,0.00000,0.00000,0.00000,33,10,62,14,40,-5,60,11,ok,4,0,0.000,1,-0.32,-0.32,8.97,8,0.177,8.20
1.4186,-0.03142,-0.04363,0.08727,0.00000,0.00000,0.00000,34,9,62,14,37,-4,61,12,ok,4,0,0.000,1,-0.32,-0.32,8.97,8,0.190,8.20
1.4315,-0.07679,0.00524,0.09250,0.00000,0.00000,0.00000,34,9,63,15,34,-3,61,13,ok,4,0,0.000,1,0.53,-1.06,10.60,9,0.000,8.20
1.4538,-0.07679,0.00524,0.09250,0.00000,0.00000,0.00000,36,8,63,16,31,-2,61,13,ok,4,0,0.000,1,0.53,-1.06,10.60,9,0.013,8.20
1.4570,-0.07679,0.00524,0.09250,0.00000,0.00000,0.00000,36,7,63,17,29,-1,62,14,ok,4,0,0.000,1,0.53,-1.06,10.60,9,0.026,8.20
1.4697,-0.07679,0.00524,0.09250,0.00000,0.00000,0.00000,36,6,64,18,27,1,62,15,ok,4,0,0.000,1,0.53,-1.06,10.60,9,0.038,8.20
1.4898,-0.07679,0.00524,0.09250,0.00000,0.00000,0.00000,37,5,64,19,25,4,63,15,ok,4,0,0.000,1,0.53,-1.06,10.60,9,0.051,8.20
1.4946,-0.07679,0.00524,0.09250,0.00000,0.00000,0.00000,38,5,64,21,24,7,63,17,ok,4,0,0.000,1,0.53,-1.06,10.60,9,0.063,8.20
1.5072,-0.07679,0.00524,0.09250,0.00000,0.00000,0.00000,38,4,64,22,23,11,63,18,ok,4,0,0.000,1,0.53,-1.06,10.60,9,0.076,8.20
1.5298,-0.07679,0.00524,0.09250,0.00000,0.00000,0.00000,38,3,64,23,22,14,64,18,ok,4,0,0.000,1,0.53,-1.06,10.60,9,0.088,8.20
1.5332,-0.07679,0.00524,0.09250,0.00000,0.00000,0.00000,39,3,63,26,24,13,64,19,ok,4,0,0.000,1,0.53,-1.06,10.60,9,0.102,8.20
1.5456,-0.07679,0.00524,0.09250,0.00000,0.00000,0.00000,40,2,63,27,24,13,64,20,ok,4,0,0.000,1,0.53,-1.06,10.60,9,0.114,8.20
1.5658,-0.07679,0.00524,0.09250,0.00000,0.00000,0.00000,40,2,65,26,25,11,64,21,ok,4,0,0.000,2,0.53,-1.06,10.60,9,0.127,8.20
1.5706,-0.07679,0.00524,0.09250,0.00000,0.00000,0.00000,40,2,67,23,26,10,65,22,ok,4,0,0.000,2,0.53,-1.06,10.60,9,0.139,8.20
1.5831,-0.07679,0.00524,0.09250,0.00000,0.00000,0.00000,41,1,69,19,27,10,65,23,ok,4,0,0.000,2,0.53,-1.06,10.60,9,0.152,8.20
1.6058,-0.07679,0.00524,0.09250,0.00000,0.00000,0.00000,42,2,70,15,29,10,64,24,ok,4,0,0.000,2,0.53,-1.06,10.60,9,0.164,8.20
1.6092,-0.07679,0.00524,0.09250,0.00000,0.00000,0.00000,42,2,71,13,30,9,64,26,ok,4,0,0.000,2,0.53,-1.06,10.60,9,0.178,8.20
1.6216,-0.07679,0.00524,0.09250,0.00000,0.00000,0.00000,44,2,70,12,33,9,65,27,ok,4,0,0.000,2,0.53,-1.06,10.60,9,0.191,8.20
1.6418,-0.07679,0.00524,0.09250,0.00000,0.00000,0.00000,44,2,70,8,33,9,64,29,ok,4,0,0.000,2,0.53,-1.06,10.60,9,0.203,8.20
1.6470,-0.13090,-0.02793,0.09774,0.00000,0.00000,0.00000,45,3,69,5,35,9,64,30,ok,4,0,0.000,2,0.30,-2.27,10.53,10,0.000,8.20
1.6594,-0.13090,-0.02793,0.09774,0.00000,0.00000,0.00000,46,3,69,3,36,8,64,31,ok,4,0,0.000,2,0.30,-2.27,10.53,10,0.013,8.20
1.6818,-0.13090,-0.02793,0.09774,0.00000,0.00000,0.00000,46,3,67,0,37,8,64,33,ok,4,0,0.000,2,0.30,-2.27,10.53,10,0.025,8.20
1.6850,-0.13090,-0.02793,0.09774,0.00000,0.00000,0.00000,47,2,66,-2,38,8,64,35,ok,4,0,0.000,2,0.30,-2.27,10.53,10,0.038,8.20
1.6976,-0.13090,-0.02793,0.09774,0.00000,0.00000,0.00000,48,2,65,-3,39,8,63,36,ok,4,0,0.000,2,0.30,-2.27,10.53,10,0.051,8.20
1.7178,-0.13090,-0.02793,0.09774,0.00000,0.00000,0.00000,48,2,62,-4,40,7,65,36,ok,4,0,0.000,2,0.30,-2.27,10.53,10,0.063,8.20
1.7226,-0.13090,-0.02793,0.09774,0.00000,0.00000,0.00000,48,3,61,-5,42,7,66,35,ok,4,0,0.000,2,0.30,-2.27,10.53,10,0.076,8.20
1.7352,-0.13090,-0.02793,0.09774,0.00000,0.00000,0.00000,49,3,60,-8,43,7,67,33,ok,4,0,0.001,2,0.30,-2.27,10.53,10,0.089,8.20
1.7578,-0.13090,-0.02793,0.09774,0.00000,0.00000,0.00000,50,3,58,-8,44,7,69,28,ok,4,0,0.001,2,0.30,-2.27,10.53,10,0.101,8.20
1.7610,-0.13090,-0.02793,0.09774,0.00000,0.00000,0.00000,50,3,56,-9,45,7,70,24,ok,4,0,0.001,2,0.30,-2.27,10.53,10,0.114,8.20
1.7737,-0.13090,-0.02793,0.09774,0.00000,0.00000,0.00000,50,3,54,-9,46,7,72,21,ok,4,0,0.001,2,0.30,-2.27,10.53,10,0.127,8.20
1.7938,-0.13090,-0.02793,0.09774,0.00000,0.00000,0.00000,50,5,51,-10,47,7,72,21,ok,4,0,0.001,2,0.30,-2.27,10.53,10,0.139,8.20
1.7986,-0.13090,-0.02793,0.09774,0.00000,0.00000,0.00000,51,6,49,-10,47,7,72,19,ok,4,0,0.001,2,0.30,-2.27,10.53,10,0.152,8.20
1.8111,-0.13090,-0.02793,0.09774,0.00000,0.00000,0.00000,52,6,46,-10,48,7,72,15,ok,4,0,0.001,2,0.30,-2.27,10.53,10,0.165,8.20
1.8338,-0.13090,-0.02793,0.09774,0.00000,0.00000,0.00000,52,7,44,-10,49,7,72,12,ok,4,0,0.001,2,0.30,-2.27,10.53,10,0.177,8.20
1.8372,-0.13090,-0.02793,0.09774,0.00000,0.00000,0.00000,52,7,42,-10,50,7,71,11,ok,4,0,0.001,2,0.30,-2.27,10.53,10,0.190,8.20
1.8500,-0.04712,-0.01745,0.09250,0.00000,0.00000,0.00000,54,7,39,-10,50,7,70,7,ok,2,0,0.001,2,-0.32,-0.45,10.13,11,0.000,8.20
1.8698,-0.04712,-0.01745,0.09250,0.00000,0.00000,0.00000,54,8,37,-10,52,7,70,6,ok,2,0,0.001,2,-0.32,-0.45,10.13,11,0.013,8.20
1.8746,-0.04712,-0.01745,0.09250,0.00000,0.00000,0.00000,54,8,33,-9,52,7,69,4,ok,2,0,0.001,2,-0.32,-0.45,10.13,11,0.025,8.20
1.8872,-0.04712,-0.01745,0.09250,0.00000,0.00000,0.00000,54,9,31,-8,53,8,67,2,ok,2,0,0.001,2,-0.32,-0.45,10.13,11,0.038,8.20
1.9098,-0.04712,-0.01745,0.09250,0.00000,0.00000,0.00000,54,9,27,-6,54,8,65,2,ok,2,0,0.001,2,-0.32,-0.45,10.13,11,0.050,8.20
1.9132,-0.04712,-0.01745,0.09250,0.00000,0.00000,0.00000,55,9,25,-5,55,8,64,0,ok,2,0,0.001,2,-0.32,-0.45,10.13,11,0.063,8.20
1.9256,-0.04712,-0.01745,0.09250,0.00000,0.00000,0.00000,56,10,21,-2,56,8,63,-2,ok,2,0,0.001,2,-0.32,-0.45,10.13,11,0.076,8.20
1.9458,-0.04712,-0.01745,0.09250,0.00000,0.00000,0.00000,56,11,19,-1,58,6,61,-3,ok,2,0,0.001,2,-0.32,-0.45,10.13,11,0.088,8.20
1.9506,-0.04712,-0.01745,0.09250,0.00000,0.00000,0.00000,56,10,18,0,58,7,59,-4,ok,2,0,0.001,2,-0.32,-0.45,10.13,11,0.101,8.20
1.9633,-0.04712,-0.01745,0.09250,0.00000,0.00000,0.00000,56,11,16,3,58,8,58,-5,ok,2,0,0.001,2,-0.32,-0.45,10.13,11,0.113,8.20
1.9858,-0.04712,-0.01745,0.09250,0.00000,0.00000,0.00000,56,11,15,6,59,8,55,-6,ok,2,0,0.001,2,-0.32,-0.45,10.13,11,0.126,8.20
1.9890,-0.04712,-0.01745,0.09250,0.00000,0.00000,0.00000,56,12,13,9,59,9,53,-6,ok,2,0,0.001,2,-0.32,-0.45,10.13,11,0.139,8.20
2.0016,-0.04712,-0.01745,0.09250,0.00000,0.00000,0.00000,56,12,13,12,60,9,50,-5,ok,2,0,0.001,2,-0.32,-0.45,10.13,11,0.152,8.20
2.0218,-0.04712,-0.01745,0.09250,0.00000,0.00000,0.00000,56,13,15,12,60,10,48,-5,ok,2,0,0.001,2,-0.32,-0.45,10.13,11,0.164,8.20
2.0266,-0.04712,-0.01745,0.09250,0.00000,0.00000,0.00000,56,14,15,11,61,10,45,-5,ok,2,0,0.001,2,-0.32,-0.45,10.13,11,0.177,8.20
2.0394,-0.04712,-0.01745,0.09250,0.00000,0.00000,0.00000,56,14,17,10,61,11,42,-4,ok,2,0,0.001,2,-0.32,-0.45,10.13,11,0.189,8.20
2.0618,0.04538,0.06283,0.04887,0.00000,0.00000,0.00000,56,15,19,9,61,12,40,-4,ok,2,0,0.001,2,0.26,0.71,10.01,12,0.000,8.20
2.0650,0.04538,0.06283,0.04887,0.00000,0.00000,0.00000,56,16,19,9,61,13,36,-3,ok,2,0,0.001,2,0.26,0.71,10.01,12,0.013,8.20
2.0776,0.04538,0.06283,0.04887,0.00000,0.00000,0.00000,56,17,21,8,61,13,34,-3,ok,2,0,0.001,2,0.26,0.71,10.01,12,0.026,8.20
2.0978,0.04538,0.06283,0.04887,0.00000,0.00000,0.00000,56,18,22,7,62,14,30,-1,ok,2,0,0.001,2,0.26,0.71,10.01,12,0.039,8.20
2.1026,0.04538,0.06283,0.04887,0.00000,0.00000,0.00000,58,19,23,6,63,14,29,0,ok,2,0,0.001,2,0.26,0.71,10.01,12,0.051,8.20
2.1154,0.04538,0.06283,0.04887,0.00000,0.00000,0.00000,58,21,24,5,63,15,27,2,ok,2,0,0.001,2,0.26,0.71,10.01,12,0.064,8.20
2.1378,0.04538,0.06283,0.04887,0.00000,0.00000,0.00000,58,21,24,4,63,16,25,5,ok,2,0,0.001,2,0.26,0.71,10.01,12,0.076,8.20
2.1410,0.04538,0.06283,0.04887,0.00000,0.00000,0.00000,58,23,25,4,63,17,24,7,ok,2,0,0.001,2,0.26,0.71,10.01,12,0.089,8.20
2.1536,0.04538,0.06283,0.04887,0.00000,0.00000,0.00000,58,23,25,3,64,17,23,11,ok,2,0,0.001,2,0.26,0.71,10.01,12,0.102,8.20
2.1738,0.04538,0.06283,0.04887,0.00000,0.00000,0.00000,57,26,26,2,64,19,22,13,ok,2,0,0.001,2,0.26,0.71,10.01,12,0.115,8.20
2.1786,0.04538,0.06283,0.04887,0.00000,0.00000,0.00000,57,27,27,2,64,20,24,12,ok,2,0,0.001,2,0.26,0.71,10.01,12,0.127,8.20
2.1913,0.04538,0.06283,0.04887,0.00000,0.00000,0.00000,58,25,28,2,64,21,25,11,ok,2,0,0.001,2,0.26,0.71,10.01,12,0.140,8.20
2.2138,0.04538,0.06283,0.04887,0.00000,0.00000,0.00000,58,21,30,2,65,22,25,10,ok,2,0,0.001,2,0.26,0.71,10.01,12,0.152,8.20
2.2170,0.04538,0.06283,0.04887,0.00000,0.00000,0.00000,60,18,31,1,64,23,27,9,ok,2,0,0.001,2,0.26,0.71,10.01,12,0.165,8.20
2.2296,0.04538,0.06283,0.04887,0.00000,0.00000,0.00000,60,13,32,2,64,25,28,10,ok,2,0,0.001,2,0.26,0.71,10.01,12,0.178,8.20
2.2498,-0.08378,0.04189,0.07505,0.00000,0.00000,0.00000,60,11,33,2,65,26,29,9,ok,2,0,0.001,2,0.83,-1.53,9.16,13,0.000,8.20
2.2546,-0.08378,0.04189,0.07505,0.00000,0.00000,0.00000,60,10,35,2,64,27,31,9,ok,2,0,0.001,2,0.83,-1.53,9.16,13,0.012,8.20
2.2672,-0.08378,0.04189,0.07505,0.00000,0.00000,0.00000,60,7,37,2,64,28,33,9,ok,2,0,0.001,2,0.83,-1.53,9.16,13,0.025,8.20
2.2898,-0.08378,0.04189,0.07505,0.00000,0.00000,0.00000,60,4,39,3,64,30,34,9,ok,2,0,0.001,2,0.83,-1.53,9.16,13,0.038,8.20
2.2931,-0.08378,0.04189,0.07505,0.00000,0.00000,0.00000,60,1,40,3,64,32,35,8,ok,2,0,0.001,2,0.83,-1.53,9.16,13,0.051,8.20
2.3057,-0.08378,0.04189,0.07505,0.00000,0.00000,0.00000,59,-1,41,3,63,33,36,8,ok,2,0,0.001,2,0.83,-1.53,9.16,13,0.064,8.20
2.3258,-0.08378,0.04189,0.07505,0.00000,0.00000,0.00000,58,-3,43,3,64,35,37,8,ok,2,0,0.001,2,0.83,-1.53,9.16,13,0.076,8.20
2.3306,-0.08378,0.04189,0.07505,0.00000,0.00000,0.00000,58,-5,44,3,64,35,38,8,ok,2,0,0.001,2,0.83,-1.53,9.16,13,0.089,8.20
2.3432,-0.08378,0.04189,0.07505,0.00000,0.00000,0.00000,56,-6,44,3,66,35,39,8,ok,2,0,0.001,2,0.83,-1.53,9.16,13,0.101,8.20
2.3658,-0.08378,0.04189,0.07505,0.00000,0.00000,0.00000,56,-7,45,3,67,33,41,7,ok,2,0,0.001,2,0.83,-1.53,9.16,13,0.114,8.20
2.3690,-0.08378,0.04189,0.07505,0.00000,0.00000,0.00000,56,-9,46,3,70,28,42,7,ok,2,0,0.001,2,0.83,-1.53,9.16,13,0.127,8.20
2.3816,-0.08378,0.04189,0.07505,0.00000,0.00000,0.00000,54,-9,48,4,71,24,43,7,ok,2,0,0.001,2,0.83,-1.53,9.16,13,0.140,8.20
2.4018,-0.08378,0.04189,0.07505,0.00000,0.00000,0.00000,54,-10,49,4,73,21,44,7,ok,2,0,0.001,2,0.83,-1.53,9.16,13,0.152,8.20
2.4068,-0.08378,0.04189,0.07505,0.00000,0.00000,0.00000,52,-10,49,4,74,20,45,7,ok,2,0,0.001,2,0.83,-1.53,9.16,13,0.165,8.20
2.4192,-0.08378,0.04189,0.07505,0.00000,0.00000,0.00000,51,-11,49,6,74,18,46,7,ok,2,0,0.001,2,0.83,-1.53,9.16,13,0.177,8.20
2.4418,-0.08378,0.04189,0.07505,0.00000,0.00000,0.00000,50,-11,51,6,74,14,47,8,ok,2,0,0.001,2,0.83,-1.53,9.16,13,0.190,8.20
2.4453,-0.08378,0.04189,0.07505,0.00000,0.00000,0.00000,48,-11,52,6,73,11,48,8,ok,2,0,0.001,2,0.83,-1.53,9.16,13,0.203,8.20
2.4579,0.02094,-0.00175,0.07505,0.00000,0.00000,0.00000,47,-10,53,6,73,10,49,8,ok,2,0,0.001,2,0.20,0.25,9.80,14,0.000,8.20
2.4778,0.02094,-0.00175,0.07505,0.00000,0.00000,0.00000,46,-10,53,7,72,7,49,9,ok,2,0,0.001,2,0.20,0.25,9.80,14,0.013,8.20
2.4826,0.02094,-0.00175,0.07505,0.00000,0.00000,0.00000,44,-11,55,6,72,5,50,8,ok,2,0,0.001,2,0.20,0.25,9.80,14,0.025,8.20
2.4952,0.02094,-0.00175,0.07505,0.00000,0.00000,0.00000,43,-9,56,6,71,4,51,9,ok,2,0,0.001,2,0.20,0.25,9.80,14,0.038,8.20
2.5178,0.02094,-0.00175,0.07505,0.00000,0.00000,0.00000,42,-8,57,7,69,1,51,8,ok,2,0,0.001,2,0.20,0.25,9.80,14,0.050,8.20
2.5212,0.02094,-0.00175,0.07505,0.00000,0.00000,0.00000,40,-7,57,7,67,2,52,8,ok,2,0,0.001,2,0.20,0.25,9.80,14,0.063,8.20
2.5336,0.02094,-0.00175,0.07505,0.00000,0.00000,0.00000,38,-5,58,7,65,-1,52,8,ok,2,0,0.001,2,0.20,0.25,9.80,14,0.076,8.20
2.5538,0.02094,-0.00175,0.07505,0.00000,0.00000,0.00000,37,-3,58,7,64,-2,54,9,ok,2,0,0.001,2,0.20,0.25,9.80,14,0.089,8.20
2.5586,0.02094,-0.00175,0.07505,0.00000,0.00000,0.00000,35,-1,59,8,62,-4,55,8,ok,2,0,0.001,3,0.20,0.25,9.80,14,0.101,8.20
2.5712,0.02094,-0.00175,0.07505,0.00000,0.00000,0.00000,35,0,60,10,60,-5,54,8,ok,2,0,0.001,3,0.20,0.25,9.80,14,0.114,8.20
2.5938,0.02094,-0.00175,0.07505,0.00000,0.00000,0.00000,34,0,61,10,58,-6,56,6,ok,2,0,0.001,3,0.20,0.25,9.80,14,0.126,8.20
2.5972,0.02094,-0.00175,0.07505,0.00000,0.00000,0.00000,34,2,61,11,56,-6,57,7,ok,2,0,0.001,3,0.20,0.25,9.80,14,0.139,8.20
2.6097,0.02094,-0.00175,0.07505,0.00000,0.00000,0.00000,32,5,61,11,54,-7,58,8,ok,2,0,0.001,3,0.20,0.25,9.80,14,0.152,8.20
2.6298,0.02094,-0.00175,0.07505,0.00000,0.00000,0.00000,32,8,61,12,51,-6,58,8,ok,2,0,0.001,3,0.20,0.25,9.80,14,0.165,8.20
2.6346,0.02094,-0.00175,0.07505,0.00000,0.00000,0.00000,31,11,61,12,48,-6,59,9,ok,2,0,0.001,3,0.20,0.25,9.80,14,0.177,8.20
2.6474,0.02094,-0.00175,0.07505,0.00000,0.00000,0.00000,32,11,62,13,46,-6,60,10,ok,2,0,0.001,3,0.20,0.25,9.80,14,0.189,8.20
2.6698,-0.02618,0.02618,0.09425,0.00000,0.00000,0.00000,32,11,61,14,43,-5,59,10,ok,2,0,0.001,3,0.52,-0.76,8.83,15,0.000,8.20
2.6730,-0.02618,0.02618,0.09425,0.00000,0.00000,0.00000,33,9,62,14,40,-5,60,11,ok,2,0,0.001,3,0.52,-0.76,8.83,15,0.013,8.20
2.6858,-0.02618,0.02618,0.09425,0.00000,0.00000,0.00000,34,9,62,15,37,-4,61,12,ok,2,0,0.001,3,0.52,-0.76,8.83,15,0.026,8.20
2.7058,-0.02618,0.02618,0.09425,0.00000,0.00000,0.00000,34,8,62,15,34,-3,61,13,ok,2,0,0.001,3,0.52,-0.76,8.83,15,0.039,8.20
2.7106,-0.02618,0.02618,0.09425,0.00000,0.00000,0.00000,35,7,63,16,31,-2,61,13,ok,4,0,0.001,3,0.52,-0.76,8.83,15,0.051,8.20
2.7232,-0.02618,0.02618,0.09425,0.00000,0.00000,0.00000,36,7,63,17,29,0,62,14,ok,4,0,0.001,3,0.52,-0.76,8.83,15,0.064,8.20
2.7458,-0.02618,0.02618,0.09425,0.00000,0.00000,0.00000,36,6,64,18,28,1,62,15,ok,4,0,0.001,3,0.52,-0.76,8.83,15,0.076,8.20
2.7490,-0.02618,0.02618,0.09425,0.00000,0.00000,0.00000,37,5,64,20,25,4,63,15,ok,4,0,0.001,3,0.52,-0.76,8.83,15,0.089,8.20
2.7616,-0.02618,0.02618,0.09425,0.00000,0.00000,0.00000,37,4,64,21,24,7,63,16,ok,4,0,0.001,3,0.52,-0.76,8.83,15,0.102,8.20
2.7818,-0.02618,0.02618,0.09425,0.00000,0.00000,0.00000,38,4,64,22,23,11,63,18,ok,4,0,0.001,3,0.52,-0.76,8.83,15,0.115,8.20
2.7866,-0.02618,0.02618,0.09425,0.00000,0.00000,0.00000,38,3,64,23,22,14,64,18,ok,4,0,0.001,3,0.52,-0.76,8.83,15,0.127,8.20
2.7992,-0.02618,0.02618,0.09425,0.00000,0.00000,0.00000,39,3,63,26,24,13,64,19,ok,4,0,0.001,3,0.52,-0.76,8.83,15,0.140,8.20
2.8218,-0.02618,0.02618,0.09425,0.00000,0.00000,0.00000,40,2,63,27,24,13,64,19,ok,4,0,0.001,3,0.52,-0.76,8.83,15,0.152,8.20
2.8252,-0.02618,0.02618,0.09425,0.00000,0.00000,0.00000,40,2,64,25,26,11,64,21,ok,4,0,0.001,3,0.52,-0.76,8.83,15,0.165,8.20
2.8376,-0.02618,0.02618,0.09425,0.00000,0.00000,0.00000,40,2,67,22,27,10,65,21,ok,4,0,0.001,3,0.52,-0.76,8.83,15,0.178,8.20
2.8578,-0.02618,0.02618,0.09425,0.00000,0.00000,0.00000,41,1,69,19,28,10,65,22,ok,4,0,0.001,3,0.52,-0.76,8.83,15,0.191,8.20
2.8629,-0.05760,0.01745,0.08901,0.00000,0.00000,0.00000,42,1,70,14,29,10,64,24,ok,4,0,0.001,3,-0.17,-0.85,9.77,16,0.000,8.20
2.8752,-0.05760,0.01745,0.08901,0.00000,0.00000,0.00000,42,1,71,12,30,9,64,26,ok,4,0,0.001,3,-0.17,-0.85,9.77,16,0.013,8.20
2.8978,-0.05760,0.01745,0.08901,0.00000,0.00000,0.00000,44,1,70,12,33,9,65,26,ok,4,0,0.001,3,-0.17,-0.85,9.77,16,0.025,8.20
2.9012,-0.05760,0.01745,0.08901,0.00000,0.00000,0.00000,44,1,70,9,33,9,64,29,ok,4,0,0.001,3,-0.17,-0.85,9.77,16,0.038,8.20
2.9136,-0.05760,0.01745,0.08901,0.00000,0.00000,0.00000,45,2,69,6,35,9,64,30,ok,4,0,0.001,3,-0.17,-0.85,9.77,16,0.051,8.20
2.9338,-0.05760,0.01745,0.08901,0.00000,0.00000,0.00000,46,2,69,3,36,8,64,31,ok,4,0,0.001,3,-0.17,-0.85,9.77,16,0.063,8.20
2.9388,-0.05760,0.01745,0.08901,0.00000,0.00000,0.00000,46,2,67,0,37,9,64,33,ok,4,0,0.001,3,-0.17,-0.85,9.77,16,0.076,8.20
2.9512,-0.05760,0.01745,0.08901,0.00000,0.00000,0.00000,47,2,66,-1,39,8,64,34,ok,4,0,0.001,3,-0.17,-0.85,9.77,16,0.088,8.20
2.9738,-0.05760,0.01745,0.08901,0.00000,0.00000,0.00000,48,2,64,-3,39,8,63,36,ok,4,0,0.001,3,-0.17,-0.85,9.77,16,0.101,8.20
2.9770,-0.05760,0.01745,0.08901,0.00000,0.00000,0.00000,48,2,62,-4,41,7,64,36,ok,4,0,0.001,3,-0.17,-0.85,9.77,16,0.114,8.20
2.9898,-0.05760,0.01745,0.08901,0.00000,0.00000,0.00000,48,3,61,-5,42,7,66,35,ok,4,0,0.001,3,-0.17,-0.85,9.77,16,0.127,8.20
3.0098,-0.05760,0.01745,0.08901,0.00000,0.00000,0.00000,48,3,60,-8,43,7,67,33,ok,4,0,0.001,3,-0.17,-0.85,9.77,16,0.139,8.20
3.0146,-0.05760,0.01745,0.08901,0.00000,0.00000,0.00000,50,4,58,-8,44,7,69,27,ok,4,0,0.001,3,-0.17,-0.85,9.77,16,0.152,8.20
3.0272,-0.05760,0.01745,0.08901,0.00000,0.00000,0.00000,50,3,55,-9,45,7,70,24,ok,4,0,0.001,3,-0.17,-0.85,9.77,16,0.164,8.20
3.0498,-0.05760,0.01745,0.08901,0.00000,0.00000,0.00000,50,3,53,-9,46,7,72,21,ok,4,0,0.001,3,-0.17,-0.85,9.77,16,0.177,8.20
3.0530,-0.05760,0.01745,0.08901,0.00000,0.00000,0.00000,50,5,51,-10,47,7,72,21,ok,2,0,0.001,3,-0.17,-0.85,9.77,16,0.190,8.20
3.0660,-0.13265,0.00175,0.16755,0.00000,0.00000,0.00000,51,6,49,-10,47,7,72,18,ok,2,0,0.001,3,-0.80,-1.45,9.98,17,0.000,8.20
3.0858,-0.13265,0.00175,0.16755,0.00000,0.00000,0.00000,52,5,46,-10,49,7,73,15,ok,2,0,0.001,3,-0.80,-1.45,9.98,17,0.013,8.20
3.0906,-0.13265,0.00175,0.16755,0.00000,0.00000,0.00000,52,6,44,-9,49,7,72,12,ok,2,0,0.001,3,-0.80,-1.45,9.98,17,0.025,8.20
3.1034,-0.13265,0.00175,0.16755,0.00000,0.00000,0.00000,52,7,41,-10,50,7,72,11,ok,2,0,0.001,3,-0.80,-1.45,9.98,17,0.038,8.20
3.1258,-0.13265,0.00175,0.16755,0.00000,0.00000,0.00000,53,7,39,-10,50,7,71,7,ok,2,0,0.001,3,-0.80,-1.45,9.98,17,0.050,8.20
3.1290,-0.13265,0.00175,0.16755,0.00000,0.00000,0.00000,54,7,36,-9,52,6,71,6,ok,2,0,0.001,3,-0.80,-1.45,9.98,17,0.063,8.20
3.1417,-0.13265,0.00175,0.16755,0.00000,0.00000,0.00000,54,7,33,-8,52,7,70,4,ok,2,0,0.001,3,-0.80,-1.45,9.98,17,0.076,8.20
3.1618,-0.13265,0.00175,0.16755,0.00000,0.00000,0.00000,54,7,31,-7,53,7,68,2,ok,2,0,0.001,3,-0.80,-1.45,9.98,17,0.089,8.20
3.1668,-0.13265,0.00175,0.16755,0.00000,0.00000,0.00000,54,7,27,-6,54,8,66,2,ok,2,0,0.001,3,-0.80,-1.45,9.98,17,0.101,8.20
3.1792,-0.13265,0.00175,0.16755,0.00000,0.00000,0.00000,54,8,24,-4,55,8,65,0,ok,2,0,0.001,3,-0.80,-1.45,9.98,17,0.114,8.20
3.2018,-0.13265,0.00175,0.16755,0.00000,0.00000,0.00000,55,9,21,-2,56,8,64,-2,ok,2,0,0.001,3,-0.80,-1.45,9.98,17,0.126,8.20
3.2051,-0.13265,0.00175,0.16755,0.00000,0.00000,0.00000,56,10,19,-1,58,6,62,-3,ok,2,0,0.001,3,-0.80,-1.45,9.98,17,0.139,8.20
3.2176,-0.13265,0.00175,0.16755,0.00000,0.00000,0.00000,56,10,18,1,58,7,60,-4,ok,2,0,0.001,3,-0.80,-1.45,9.98,17,0.152,8.20
3.2378,-0.13265,0.00175,0.16755,0.00000,0.00000,0.00000,56,11,16,3,59,8,58,-4,ok,2,0,0.001,3,-0.80,-1.45,9.98,17,0.165,8.20
3.2428,-0.13265,0.00175,0.16755,0.00000,0.00000,0.00000,56,11,15,6,59,8,55,-5,ok,2,0,0.001,3,-0.80,-1.45,9.98,17,0.177,8.20
3.2553,-0.13265,0.00175,0.16755,0.00000,0.00000,0.00000,56,12,13,9,59,9,53,-6,ok,2,0,0.001,3,-0.80,-1.45,9.98,17,0.190,8.20
3.2778,0.01047,0.03316,0.10996,0.00000,0.00000,0.00000,56,12,12,12,60,9,50,-5,ok,2,0,0.001,3,0.20,0.18,9.85,18,0.000,8.20
3.2810,0.01047,0.03316,0.10996,0.00000,0.00000,0.00000,56,13,14,12,60,10,47,-5,ok,2,0,0.001,3,0.20,0.18,9.85,18,0.013,8.20
3.2936,0.01047,0.03316,0.10996,0.00000,0.00000,0.00000,56,14,15,11,61,11,45,-5,ok,2,0,0.001,3,0.20,0.18,9.85,18,0.026,8.20
3.3138,0.01047,0.03316,0.10996,0.00000,0.00000,0.00000,56,14,17,10,61,11,42,-4,ok,2,0,0.001,3,0.20,0.18,9.85,18,0.039,8.20
3.3187,0.01047,0.03316,0.10996,0.00000,0.00000,0.00000,56,16,19,9,62,12,40,-4,ok,2,0,0.001,3,0.20,0.18,9.85,18,0.051,8.20
3.3314,0.01047,0.03316,0.10996,0.00000,0.00000,0.00000,56,16,19,8,62,12,36,-3,ok,2,0,0.001,3,0.20,0.18,9.85,18,0.064,8.20
3.3538,0.01047,0.03316,0.10996,0.00000,0.00000,0.00000,56,17,21,7,62,13,34,-3,ok,2,0,0.001,3,0.20,0.18,9.85,18,0.076,8.20
3.3571,0.01047,0.03316,0.10996,0.00000,0.00000,0.00000,56,19,21,6,62,14,31,-1,ok,2,0,0.001,3,0.20,0.18,9.85,18,0.089,8.20
3.3698,0.01047,0.03316,0.10996,0.00000,0.00000,0.00000,58,20,23,5,63,14,29,0,ok,2,0,0.001,3,0.20,0.18,9.85,18,0.102,8.20
3.3898,0.01047,0.03316,0.10996,0.00000,0.00000,0.00000,58,21,24,5,63,15,27,1,ok,2,0,0.001,3,0.20,0.18,9.85,18,0.115,8.20
3.3946,0.01047,0.03316,0.10996,0.00000,0.00000,0.00000,58,22,24,4,63,16,25,5,ok,2,0,0.001,3,0.20,0.18,9.85,18,0.127,8.20
3.4072,0.01047,0.03316,0.10996,0.00000,0.00000,0.00000,58,22,25,4,63,17,24,7,ok,2,0,0.001,3,0.20,0.18,9.85,18,0.140,8.20
3.4298,0.01047,0.03316,0.10996,0.00000,0.00000,0.00000,58,23,26,3,64,17,23,11,ok,2,0,0.001,3,0.20,0.18,9.85,18,0.152,8.20
3.4330,0.01047,0.03316,0.10996,0.00000,0.00000,0.00000,57,26,27,3,64,19,22,13,ok,2,0,0.001,3,0.20,0.18,9.85,18,0.165,8.20
3.4456,0.01047,0.03316,0.10996,0.00000,0.00000,0.00000,57,26,28,2,64,20,24,12,ok,2,0,0.001,3,0.20,0.18,9.85,18,0.178,8.20
3.4658,0.01047,0.03316,0.10996,0.00000,0.00000,0.00000,58,25,29,2,64,21,25,12,ok,2,0,0.001,3,0.20,0.18,9.85,18,0.191,8.20
3.4710,-0.13265,0.10123,0.15708,0.00000,0.00000,0.00000,58,21,30,2,65,22,25,10,ok,2,0,0.001,3,0.28,-2.24,10.47,19,0.000,8.20
3.4834,-0.13265,0.10123,0.15708,0.00000,0.00000,0.00000,60,18,31,2,64,23,27,9,ok,2,0,0.001,3,0.28,-2.24,10.47,19,0.013,8.20
3.5058,-0.13265,0.10123,0.15708,0.00000,0.00000,0.00000,60,13,33,2,64,24,28,10,ok,2,0,0.001,3,0.28,-2.24,10.47,19,0.025,8.20
3.5091,-0.13265,0.10123,0.15708,0.00000,0.00000,0.00000,60,10,34,3,64,25,29,9,ok,2,0,0.001,3,0.28,-2.24,10.47,19,0.038,8.20
3.5218,-0.13265,0.10123,0.15708,0.00000,0.00000,0.00000,60,10,35,3,63,27,31,9,ok,2,0,0.001,3,0.28,-2.24,10.47,19,0.051,8.20
3.5418,-0.13265,0.10123,0.15708,0.00000,0.00000,0.00000,60,6,36,3,63,28,33,9,ok,2,0,0.001,3,0.28,-2.24,10.47,19,0.064,8.20
3.5467,-0.13265,0.10123,0.15708,0.00000,0.00000,0.00000,60,3,38,4,64,30,33,9,ok,2,0,0.001,3,0.28,-2.24,10.47,19,0.076,8.20
3.5592,-0.13265,0.10123,0.15708,0.00000,0.00000,0.00000,60,0,39,4,64,32,35,9,ok,2,0,0.001,3,0.28,-2.24,10.47,19,0.089,8.20
3.5818,-0.13265,0.10123,0.15708,0.00000,0.00000,0.00000,59,-2,41,4,64,34,36,9,ok,2,0,0.001,4,0.28,-2.24,10.47,19,0.101,8.20
3.5852,-0.13265,0.10123,0.15708,0.00000,0.00000,0.00000,58,-4,42,3,64,35,37,9,ok,2,0,0.001,4,0.28,-2.24,10.47,19,0.114,8.20
3.5976,-0.13265,0.10123,0.15708,0.00000,0.00000,0.00000,58,-5,43,3,65,35,38,8,ok,2,0,0.001,4,0.28,-2.24,10.47,19,0.127,8.20
3.6178,-0.13265,0.10123,0.15708,0.00000,0.00000,0.00000,56,-5,43,3,66,35,40,8,ok,2,0,0.001,4,0.28,-2.24,10.47,19,0.140,8.20
3.6227,-0.13265,0.10123,0.15708,0.00000,0.00000,0.00000,56,-6,45,3,68,33,41,7,ok,2,0,0.001,4,0.28,-2.24,10.47,19,0.152,8.20
3.6354,-0.13265,0.10123,0.15708,0.00000,0.00000,0.00000,56,-8,46,3,70,28,42,7,ok,2,0,0.001,4,0.28,-2.24,10.47,19,0.165,8.20
3.6578,-0.13265,0.10123,0.15708,0.00000,0.00000,0.00000,54,-9,47,4,71,24,44,7,ok,2,0,0.001,4,0.28,-2.24,10.47,19,0.177,8.20
3.6611,-0.13265,0.10123,0.15708,0.00000,0.00000,0.00000,53,-10,48,3,73,21,44,7,ok,2,0,0.001,4,0.28,-2.24,10.47,19,0.190,8.20
3.6740,0.03665,0.02618,0.15533,0.00000,0.00000,0.00000,52,-10,49,3,74,20,45,8,ok,2,0,0.001,4,0.92,1.01,9.89,20,0.000,8.20
3.6938,0.03665,0.02618,0.15533,0.00000,0.00000,0.00000,50,-11,49,5,74,19,46,7,ok,2,0,0.001,4,0.92,1.01,9.89,20,0.013,8.20
3.6986,0.03665,0.02618,0.15533,0.00000,0.00000,0.00000,50,-11,50,6,75,15,47,8,ok,2,0,0.001,4,0.92,1.01,9.89,20,0.025,8.20
3.7112,0.03665,0.02618,0.15533,0.00000,0.00000,0.00000,48,-10,51,5,74,12,48,8,ok,2,0,0.001,4,0.92,1.01,9.89,20,0.038,8.20
3.7338,0.03665,0.02618,0.15533,0.00000,0.00000,0.00000,47,-10,52,5,74,10,49,8,ok,2,0,0.001,4,0.92,1.01,9.89,20,0.050,8.20
3.7372,0.03665,0.02618,0.15533,0.00000,0.00000,0.00000,46,-10,53,6,73,7,49,9,ok,2,0,0.001,4,0.92,1.01,9.89,20,0.063,8.20
3.7497,0.03665,0.02618,0.15533,0.00000,0.00000,0.00000,44,-10,55,6,72,5,49,8,ok,2,0,0.001,4,0.92,1.01,9.89,20,0.076,8.20
3.7698,0.03665,0.02618,0.15533,0.00000,0.00000,0.00000,43,-8,56,6,71,4,51,9,ok,2,0,0.001,4,0.92,1.01,9.89,20,0.089,8.20
3.7748,0.03665,0.02618,0.15533,0.00000,0.00000,0.00000,42,-7,57,6,69,1,52,7,ok,2,0,0.001,4,0.92,1.01,9.89,20,0.101,8.20
3.7872,0.03665,0.02618,0.15533,0.00000,0.00000,0.00000,40,-6,57,7,66,1,52,8,ok,2,0,0.001,4,0.92,1.01,9.89,20,0.114,8.20
3.8098,0.03665,0.02618,0.15533,0.00000,0.00000,0.00000,38,-5,57,7,65,-1,52,8,ok,2,0,0.001,4,0.92,1.01,9.89,20,0.126,8.20
3.8130,0.03665,0.02618,0.15533,0.00000,0.00000,0.00000,37,-4,58,8,64,-2,54,8,ok,2,0,0.001,4,0.92,1.01,9.89,20,0.139,8.20
3.8258,0.03665,0.02618,0.15533,0.00000,0.00000,0.00000,35,-2,59,9,61,-4,55,8,ok,2,0,0.001,4,0.92,1.01,9.89,20,0.152,8.20
3.8458,0.03665,0.02618,0.15533,0.00000,0.00000,0.00000,34,-2,60,11,60,-5,54,8,ok,2,0,0.001,4,0.92,1.01,9.89,20,0.165,8.20
3.8506,0.03665,0.02618,0.15533,0.00000,0.00000,0.00000,34,-1,60,10,59,-6,56,6,ok,2,0,0.001,4,0.92,1.01,9.89,20,0.177,8.20
3.8635,0.03665,0.02618,0.15533,0.00000,0.00000,0.00000,33,2,61,11,56,-6,57,7,ok,2,0,0.001,4,0.92,1.01,9.89,20,0.189,8.20
3.8858,0.05411,0.02443,0.15708,0.00000,0.00000,0.00000,32,5,61,11,54,-7,58,8,ok,2,0,0.001,4,0.87,-0.73,11.18,21,0.000,8.20
3.8890,0.05411,0.02443,0.15708,0.00000,0.00000,0.00000,32,8,61,12,51,-6,58,8,ok,2,0,0.001,4,0.87,-0.73,11.18,21,0.013,8.20
3.9017,0.05411,0.02443,0.15708,0.00000,0.00000,0.00000,31,10,61,12,48,-6,59,9,ok,2,0,0.001,4,0.87,-0.73,11.18,21,0.026,8.20
3.9218,0.05411,0.02443,0.15708,0.00000,0.00000,0.00000,32,11,62,13,46,-6,60,10,ok,2,0,0.001,4,0.87,-0.73,11.18,21,0.039,8.20
3.9268,0.05411,0.02443,0.15708,0.00000,0.00000,0.00000,32,11,61,13,43,-5,60,10,ok,2,0,0.001,4,0.87,-0.73,11.18,21,0.051,8.20
3.9393,0.05411,0.02443,0.15708,0.00000,0.00000,0.00000,33,9,62,14,40,-5,60,11,ok,2,0,0.001,4,0.87,-0.73,11.18,21,0.064,8.20
3.9618,0.05411,0.02443,0.15708,0.00000,0.00000,0.00000,34,9,62,14,37,-4,61,11,ok,2,0,0.001,4,0.87,-0.73,11.18,21,0.076,8.20
3.9650,0.05411,0.02443,0.15708,0.00000,0.00000,0.00000,34,8,62,15,35,-3,61,13,ok,2,0,0.001,4,0.87,-0.73,11.18,21,0.089,8.20
3.9778,0.05411,0.02443,0.15708,0.00000,0.00000,0.00000,35,7,63,15,32,-2,61,13,ok,2,0,0.001,4,0.87,-0.73,11.18,21,0.102,8.20
3.9978,0.05411,0.02443,0.15708,0.00000,0.00000,0.00000,36,7,63,17,30,0,62,14,ok,2,0,0.001,4,0.87,-0.73,11.18,21,0.115,8.20
4.0026,0.05411,0.02443,0.15708,0.00000,0.00000,0.00000,36,6,64,18,28,1,62,15,ok,2,0,0.001,4,0.87,-0.73,11.18,21,0.127,8.20
4.0151,0.05411,0.02443,0.15708,0.00000,0.00000,0.00000,37,5,64,19,26,5,63,15,ok,2,0,0.001,4,0.87,-0.73,11.18,21,0.140,8.20
4.0378,0.05411,0.02443,0.15708,0.00000,0.00000,0.00000,37,4,64,20,24,8,63,16,ok,2,0,0.001,4,0.87,-0.73,11.18,21,0.152,8.20
4.0411,0.05411,0.02443,0.15708,0.00000,0.00000,0.00000,38,4,64,21,23,11,63,17,ok,2,0,0.001,4,0.87,-0.73,11.18,21,0.165,8.20
4.0536,0.05411,0.02443,0.15708,0.00000,0.00000,0.00000,38,3,64,23,22,14,64,18,ok,2,0,0.001,4,0.87,-0.73,11.18,21,0.178,8.20
4.0738,0.05411,0.02443,0.15708,0.00000,0.00000,0.00000,39,3,63,25,24,14,64,18,ok,4,0,0.001,4,0.87,-0.73,11.18,21,0.191,8.20
4.0790,-0.00698,0.04538,0.09599,0.00000,0.00000,0.00000,39,2,63,27,24,14,64,19,ok,4,0,0.001,4,-0.06,-0.47,9.92,22,0.000,8.20
4.0912,-0.00698,0.04538,0.09599,0.00000,0.00000,0.00000,40,2,64,26,25,11,64,20,ok,4,0,0.001,4,-0.06,-0.47,9.92,22,0.013,8.20
4.1138,-0.00698,0.04538,0.09599,0.00000,0.00000,0.00000,40,1,67,23,26,10,65,21,ok,2,0,0.001,4,-0.06,-0.47,9.92,22,0.025,8.20
4.1172,-0.00698,0.04538,0.09599,0.00000,0.00000,0.00000,41,1,69,19,27,10,65,22,ok,2,0,0.001,4,-0.06,-0.47,9.92,22,0.038,8.20
4.1297,-0.00698,0.04538,0.09599,0.00000,0.00000,0.00000,42,1,70,15,29,10,64,23,ok,2,0,0.001,4,-0.06,-0.47,9.92,22,0.051,8.20
4.1498,-0.00698,0.04538,0.09599,0.00000,0.00000,0.00000,42,1,71,13,30,9,65,25,ok,2,0,0.001,4,-0.06,-0.47,9.92,22,0.063,8.20
4.1546,-0.00698,0.04538,0.09599,0.00000,0.00000,0.00000,44,1,70,12,32,9,65,26,ok,2,0,0.001,4,-0.06,-0.47,9.92,22,0.076,8.20
4.1672,-0.00698,0.04538,0.09599,0.00000,0.00000,0.00000,44,1,70,9,33,9,64,28,ok,2,0,0.001,4,-0.06,-0.47,9.92,22,0.088,8.20
4.1898,-0.00698,0.04538,0.09599,0.00000,0.00000,0.00000,45,2,69,6,35,9,64,30,ok,2,0,0.001,4,-0.06,-0.47,9.92,22,0.101,8.20
4.1930,-0.00698,0.04538,0.09599,0.00000,0.00000,0.00000,46,2,69,3,36,8,64,31,ok,2,0,0.001,4,-0.06,-0.47,9.92,22,0.114,8.20
4.2057,-0.00698,0.04538,0.09599,0.00000,0.00000,0.00000,46,2,67,1,37,9,64,33,ok,2,0,0.001,4,-0.06,-0.47,9.92,22,0.127,8.20
4.2258,-0.00698,0.04538,0.09599,0.00000,0.00000,0.00000,46,2,66,-1,38,8,64,34,ok,2,0,0.001,4,-0.06,-0.47,9.92,22,0.139,8.20
4.2306,-0.00698,0.04538,0.09599,0.00000,0.00000,0.00000,48,2,64,-3,39,8,63,35,ok,2,0,0.001,4,-0.06,-0.47,9.92,22,0.152,8.20
4.2432,-0.00698,0.04538,0.09599,0.00000,0.00000,0.00000,48,2,62,-4,41,7,64,35,ok,2,0,0.001,4,-0.06,-0.47,9.92,22,0.164,8.20
4.2658,-0.00698,0.04538,0.09599,0.00000,0.00000,0.00000,48,3,61,-6,42,7,66,35,ok,2,0,0.001,4,-0.06,-0.47,9.92,22,0.177,8.20
4.2690,-0.00698,0.04538,0.09599,0.00000,0.00000,0.00000,48,3,60,-8,43,7,67,32,ok,2,0,0.001,4,-0.06,-0.47,9.92,22,0.190,8.20
4.2820,-0.15882,0.07679,0.21293,0.00000,0.00000,0.00000,50,3,58,-8,44,7,69,27,ok,2,0,0.001,4,1.18,-0.27,10.98,23,0.000,8.20
4.3018,-0.15882,0.07679,0.21293,0.00000,0.00000,0.00000,50,3,55,-9,44,6,71,24,ok,2,0,0.001,4,1.18,-0.27,10.98,23,0.013,8.20
4.3068,-0.15882,0.07679,0.21293,0.00000,0.00000,0.00000,50,3,54,-9,45,6,73,21,ok,2,0,0.001,4,1.18,-0.27,10.98,23,0.025,8.20
4.3192,-0.15882,0.07679,0.21293,0.00000,0.00000,0.00000,50,4,51,-10,46,6,73,20,ok,2,0,0.001,4,1.18,-0.27,10.98,23,0.038,8.20
4.3418,-0.15882,0.07679,0.21293,0.00000,0.00000,0.00000,51,5,49,-10,47,7,73,18,ok,2,0,0.001,4,1.18,-0.27,10.98,23,0.050,8.20
4.3450,-0.15882,0.07679,0.21293,0.00000,0.00000,0.00000,51,4,46,-9,48,7,73,15,ok,2,0,0.001,4,1.18,-0.27,10.98,23,0.063,8.20
4.3578,-0.15882,0.07679,0.21293,0.00000,0.00000,0.00000,52,5,44,-9,49,7,73,12,ok,2,0,0.001,4,1.18,-0.27,10.98,23,0.076,8.20
4.3778,-0.15882,0.07679,0.21293,0.00000,0.00000,0.00000,52,5,41,-9,50,7,72,11,ok,2,0,0.001,4,1.18,-0.27,10.98,23,0.089,8.20
4.3826,-0.15882,0.07679,0.21293,0.00000,0.00000,0.00000,53,6,38,-9,51,8,71,7,ok,2,0,0.001,4,1.18,-0.27,10.98,23,0.101,8.20
4.3952,-0.15882,0.07679,0.21293,0.00000,0.00000,0.00000,53,6,36,-9,52,7,71,6,ok,2,0,0.001,4,1.18,-0.27,10.98,23,0.114,8.20
4.4178,-0.15882,0.07679,0.21293,0.00000,0.00000,0.00000,54,6,33,-8,52,7,70,4,ok,2,0,0.001,4,1.18,-0.27,10.98,23,0.126,8.20
4.4212,-0.15882,0.07679,0.21293,0.00000,0.00000,0.00000,54,7,30,-7,53,7,68,2,ok,2,0,0.001,4,1.18,-0.27,10.98,23,0.139,8.20
4.4336,-0.15882,0.07679,0.21293,0.00000,0.00000,0.00000,54,8,27,-6,54,8,66,2,ok,2,0,0.001,4,1.18,-0.27,10.98,23,0.152,8.20
4.4538,-0.15882,0.07679,0.21293,0.00000,0.00000,0.00000,54,9,24,-5,55,8,65,0,ok,2,0,0.001,4,1.18,-0.27,10.98,23,0.165,8.20
4.4586,-0.15882,0.07679,0.21293,0.00000,0.00000,0.00000,55,10,20,-2,56,8,64,-2,ok,2,0,0.001,4,1.18,-0.27,10.98,23,0.177,8.20
4.4712,-0.15882,0.07679,0.21293,0.00000,0.00000,0.00000,55,10,18,-1,58,6,62,-3,ok,2,0,0.001,4,1.18,-0.27,10.98,23,0.190,8.20
4.4938,-0.15882,0.07679,0.21293,0.00000,0.00000,0.00000,56,10,17,0,58,7,60,-4,ok,2,0,0.001,4,1.18,-0.27,10.98,23,0.202,8.20
4.4974,-0.01571,0.02618,0.19548,0.00000,0.00000,0.00000,56,10,15,3,59,8,58,-5,ok,2,0,0.001,4,0.25,0.03,10.12,24,0.000,8.20
4.5097,-0.01571,0.02618,0.19548,0.00000,0.00000,0.00000,56,11,14,5,60,9,55,-6,ok,2,0,0.001,4,0.25,0.03,10.12,24,0.013,8.20
4.5298,-0.01571,0.02618,0.19548,0.00000,0.00000,0.00000,56,12,12,9,60,9,53,-6,ok,2,0,0.001,4,0.25,0.03,10.12,24,0.025,8.20
4.5348,-0.01571,0.02618,0.19548,0.00000,0.00000,0.00000,56,12,12,11,61,10,50,-5,ok,2,0,0.001,4,0.25,0.03,10.12,24,0.038,8.20
4.5472,-0.01571,0.02618,0.19548,0.00000,0.00000,0.00000,56,13,14,11,61,10,48,-5,ok,2,0,0.001,4,0.25,0.03,10.12,24,0.050,8.20
4.5698,-0.01571,0.02618,0.19548,0.00000,0.00000,0.00000,56,14,15,11,61,11,45,-5,ok,2,0,0.001,4,0.25,0.03,10.12,24,0.063,8.20
4.5731,-0.01571,0.02618,0.19548,0.00000,0.00000,0.00000,56,15,16,9,61,11,42,-4,ok,2,0,0.001,4,0.25,0.03,10.12,24,0.076,8.20
4.5856,-0.01571,0.02618,0.19548,0.00000,0.00000,0.00000,56,16,18,8,62,12,40,-5,ok,2,0,0.001,5,0.25,0.03,10.12,24,0.089,8.20
4.6058,-0.01571,0.02618,0.19548,0.00000,0.00000,0.00000,56,16,19,8,61,12,37,-4,ok,2,0,0.001,5,0.25,0.03,10.12,24,0.101,8.20
4.6110,-0.01571,0.02618,0.19548,0.00000,0.00000,0.00000,56,17,21,7,62,13,35,-3,ok,2,0,0.001,5,0.25,0.03,10.12,24,0.114,8.20
4.6233,-0.01571,0.02618,0.19548,0.00000,0.00000,0.00000,56,18,21,7,62,14,31,-1,ok,2,0,0.001,5,0.25,0.03,10.12,24,0.126,8.20
4.6458,-0.01571,0.02618,0.19548,0.00000,0.00000,0.00000,58,19,23,6,63,14,30,0,ok,2,0,0.001,5,0.25,0.03,10.12,24,0.139,8.20
4.6491,-0.01571,0.02618,0.19548,0.00000,0.00000,0.00000,57,20,24,5,63,15,27,1,ok,2,0,0.001,5,0.25,0.03,10.12,24,0.152,8.20
4.6617,-0.01571,0.02618,0.19548,0.00000,0.00000,0.00000,58,21,24,5,63,16,25,5,ok,2,0,0.001,5,0.25,0.03,10.12,24,0.165,8.20
4.6818,-0.01571,0.02618,0.19548,0.00000,0.00000,0.00000,58,22,25,4,63,17,24,7,ok,2,0,0.001,5,0.25,0.03,10.12,24,0.177,8.20
4.6866,-0.01571,0.02618,0.19548,0.00000,0.00000,0.00000,58,23,26,3,64,17,23,11,ok,2,0,0.001,5,0.25,0.03,10.12,24,0.190,8.20
4.6996,0.01920,0.03665,0.21118,0.00000,0.00000,0.00000,57,26,27,3,64,19,22,13,ok,2,0,0.001,5,1.93,0.48,13.02,25,0.000,8.20
4.7218,0.01920,0.03665,0.21118,0.00000,0.00000,0.00000,57,27,28,2,64,20,24,12,ok,2,0,0.001,5,1.93,0.48,13.02,25,0.013,8.20
4.7250,0.01920,0.03665,0.21118,0.00000,0.00000,0.00000,58,25,29,2,64,21,24,12,ok,2,0,0.001,5,1.93,0.48,13.02,25,0.026,8.20
4.7376,0.01920,0.03665,0.21118,0.00000,0.00000,0.00000,58,22,30,2,65,22,25,10,ok,2,0,0.001,5,1.93,0.48,13.02,25,0.038,8.20
4.7578,0.01920,0.03665,0.21118,0.00000,0.00000,0.00000,60,18,31,1,64,23,26,9,ok,2,0,0.001,5,1.93,0.48,13.02,25,0.051,8.20
4.7626,0.01920,0.03665,0.21118,0.00000,0.00000,0.00000,60,14,33,2,64,25,28,10,ok,2,0,0.001,5,1.93,0.48,13.02,25,0.063,8.20
4.7754,0.01920,0.03665,0.21118,0.00000,0.00000,0.00000,60,12,34,2,65,26,29,9,ok,2,0,0.001,5,1.93,0.48,13.02,25,0.076,8.20
4.7978,0.01920,0.03665,0.21118,0.00000,0.00000,0.00000,60,11,36,2,64,28,30,9,ok,2,0,0.001,5,1.93,0.48,13.02,25,0.088,8.20
4.8010,0.01920,0.03665,0.21118,0.00000,0.00000,0.00000,60,8,37,2,64,29,32,9,ok,2,0,0.001,5,1.93,0.48,13.02,25,0.102,8.20
4.8136,0.01920,0.03665,0.21118,0.00000,0.00000,0.00000,60,5,39,3,64,30,33,9,ok,2,0,0.001,5,1.93,0.48,13.02,25,0.114,8.20
4.8338,0.01920,0.03665,0.21118,0.00000,0.00000,0.00000,60,2,40,3,64,32,34,8,ok,2,0,0.001,5,1.93,0.48,13.02,25,0.127,8.20
4.8388,0.01920,0.03665,0.21118,0.00000,0.00000,0.00000,59,0,41,3,64,34,36,8,ok,2,0,0.001,5,1.93,0.48,13.02,25,0.139,8.20
4.8512,0.01920,0.03665,0.21118,0.00000,0.00000,0.00000,58,-2,43,2,64,35,37,8,ok,2,0,0.001,5,1.93,0.48,13.02,25,0.152,8.20
4.8738,0.01920,0.03665,0.21118,0.00000,0.00000,0.00000,58,-4,44,3,64,36,38,8,ok,2,0,0.001,5,1.93,0.48,13.02,25,0.164,8.20
4.8770,0.01920,0.03665,0.21118,0.00000,0.00000,0.00000,56,-5,44,3,66,35,39,8,ok,2,0,0.001,5,1.93,0.48,13.02,25,0.178,8.20
4.8896,0.01920,0.03665,0.21118,0.00000,0.00000,0.00000,56,-6,45,3,67,33,41,7,ok,2,0,0.001,5,1.93,0.48,13.02,25,0.190,8.20
4.9098,-0.03665,0.02793,0.23387,0.00000,0.00000,0.00000,56,-8,47,3,69,29,42,7,ok,2,0,0.001,5,0.80,0.01,11.42,26,0.000,8.20
4.9148,-0.03665,0.02793,0.23387,0.00000,0.00000,0.00000,54,-9,48,4,71,24,43,7,ok,2,0,0.001,5,0.80,0.01,11.42,26,0.012,8.20
4.9272,-0.03665,0.02793,0.23387,0.00000,0.00000,0.00000,53,-10,49,4,72,21,44,7,ok,2,0,0.001,5,0.80,0.01,11.42,26,0.025,8.20
4.9498,-0.03665,0.02793,0.23387,0.00000,0.00000,0.00000,52,-11,50,4,73,20,45,7,ok,2,0,0.001,5,0.80,0.01,11.42,26,0.037,8.20
4.9530,-0.03665,0.02793,0.23387,0.00000,0.00000,0.00000,51,-12,50,6,73,18,46,7,ok,2,0,0.001,5,0.80,0.01,11.42,26,0.051,8.20
4.9656,-0.03665,0.02793,0.23387,0.00000,0.00000,0.00000,50,-12,51,7,73,15,47,8,ok,2,0,0.001,5,0.80,0.01,11.42,26,0.064,8.20
4.9858,-0.03665,0.02793,0.23387,0.00000,0.00000,0.00000,48,-12,52,6,73,12,48,8,ok,2,0,0.001,5,0.80,0.01,11.42,26,0.076,8.20
4.9906,-0.03665,0.02793,0.23387,0.00000,0.00000,0.00000,47,-11,53,7,72,10,49,8,ok,2,0,0.001,5,0.80,0.01,11.42,26,0.088,8.20
5.0034,-0.03665,0.02793,0.23387,0.00000,0.00000,0.00000,46,-11,53,7,72,7,49,9,ok,2,0,0.001,5,0.80,0.01,11.42,26,0.101,8.20
5.0258,-0.03665,0.02793,0.23387,0.00000,0.00000,0.00000,44,-11,55,7,72,5,50,8,ok,2,0,0.001,5,0.80,0.01,11.42,26,0.114,8.20
5.0377,-0.03665,0.02793,0.23387,0.00000,0.00000,0.00000,43,-10,56,7,71,4,51,9,ok,2,0,0.001,5,0.80,0.01,11.42,26,0.127,8.20
5.0416,-0.03665,0.02793,0.23387,0.00000,0.00000,0.00000,42,-9,57,7,69,1,52,8,ok,2,0,0.001,5,0.80,0.01,11.42,26,0.140,8.20
5.0618,-0.03665,0.02793,0.23387,0.00000,0.00000,0.00000,40,-7,57,8,66,1,52,8,ok,2,0,0.001,5,0.80,0.01,11.42,26,0.152,8.20
5.0666,-0.03665,0.02793,0.23387,0.00000,0.00000,0.00000,38,-6,58,8,65,-1,53,8,ok,2,0,0.001,5,0.80,0.01,11.42,26,0.165,8.20
5.0794,-0.03665,0.02793,0.23387,0.00000,0.00000,0.00000,37,-4,58,8,63,-3,54,9,ok,2,0,0.001,5,0.80,0.01,11.42,26,0.177,8.20
5.1018,-0.03665,0.02793,0.23387,0.00000,0.00000,0.00000,35,-2,59,9,61,-4,55,9,ok,2,0,0.001,5,0.80,0.01,11.42,26,0.190,8.20
5.1055,0.03840,-0.02094,0.23911,0.00000,0.00000,0.00000,34,-1,60,11,60,-5,55,8,ok,2,0,0.001,5,0.02,0.93,9.32,27,0.000,8.20
5.1176,0.03840,-0.02094,0.23911,0.00000,0.00000,0.00000,34,0,61,10,59,-5,57,6,ok,2,0,0.001,5,0.02,0.93,9.32,27,0.013,8.20
5.1378,0.03840,-0.02094,0.23911,0.00000,0.00000,0.00000,33,2,61,11,56,-6,57,7,ok,2,0,0.001,5,0.02,0.93,9.32,27,0.025,8.20
5.1426,0.03840,-0.02094,0.23911,0.00000,0.00000,0.00000,32,5,61,10,54,-7,58,8,ok,2,0,0.001,5,0.02,0.93,9.32,27,0.038,8.20
5.1554,0.03840,-0.02094,0.23911,0.00000,0.00000,0.00000,32,9,61,12,51,-6,58,9,ok,2,0,0.001,5,0.02,0.93,9.32,27,0.050,8.20
5.1778,0.03840,-0.02094,0.23911,0.00000,0.00000,0.00000,31,11,62,11,48,-5,59,9,ok,2,0,0.001,5,0.02,0.93,9.32,27,0.063,8.20
5.1811,0.03840,-0.02094,0.23911,0.00000,0.00000,0.00000,32,12,62,12,46,-6,60,10,ok,2,0,0.001,5,0.02,0.93,9.32,27,0.076,8.20
5.1936,0.03840,-0.02094,0.23911,0.00000,0.00000,0.00000,32,12,61,13,43,-5,59,10,ok,2,0,0.001,5,0.02,0.93,9.32,27,0.089,8.20
5.2138,0.03840,-0.02094,0.23911,0.00000,0.00000,0.00000,33,10,62,13,40,-5,60,11,ok,2,0,0.001,5,0.02,0.93,9.32,27,0.101,8.20
5.2188,0.03840,-0.02094,0.23911,0.00000,0.00000,0.00000,34,10,62,14,37,-4,60,11,ok,2,0,0.001,5,0.02,0.93,9.32,27,0.114,8.20
5.2312,0.03840,-0.02094,0.23911,0.00000,0.00000,0.00000,34,9,62,14,34,-3,61,12,ok,2,0,0.001,5,0.02,0.93,9.32,27,0.126,8.20
5.2538,0.03840,-0.02094,0.23911,0.00000,0.00000,0.00000,36,8,63,15,31,-2,61,13,ok,2,0,0.001,5,0.02,0.93,9.32,27,0.139,8.20
5.2570,0.03840,-0.02094,0.23911,0.00000,0.00000,0.00000,36,7,63,17,29,0,62,14,ok,2,0,0.001,5,0.02,0.93,9.32,27,0.152,8.20
5.2696,0.03840,-0.02094,0.23911,0.00000,0.00000,0.00000,36,6,64,18,28,2,62,15,ok,2,0,0.001,5,0.02,0.93,9.32,27,0.165,8.20
5.2898,0.03840,-0.02094,0.23911,0.00000,0.00000,0.00000,37,5,64,19,25,5,63,15,ok,2,0,0.001,5,0.02,0.93,9.32,27,0.177,8.20
5.2949,0.03840,-0.02094,0.23911,0.00000,0.00000,0.00000,38,5,64,20,24,8,63,16,ok,2,0,0.001,5,0.02,0.93,9.32,27,0.190,8.20
5.3076,-0.06981,0.06283,0.25133,0.00000,0.00000,0.00000,38,4,64,21,23,11,63,17,ok,2,0,0.001,5,2.16,0.34,8.97,28,0.000,8.20
5.3298,-0.06981,0.06283,0.25133,0.00000,0.00000,0.00000,38,4,64,23,22,14,64,18,ok,2,0,0.001,5,2.16,0.34,8.97,28,0.013,8.20
5.3333,-0.06981,0.06283,0.25133,0.00000,0.00000,0.00000,39,3,64,26,23,13,64,19,ok,2,0,0.001,5,2.16,0.34,8.97,28,0.026,8.20
5.3456,-0.06981,0.06283,0.25133,0.00000,0.00000,0.00000,40,2,63,28,23,13,64,19,ok,2,0,0.001,5,2.16,0.34,8.97,28,0.038,8.20
5.3658,-0.06981,0.06283,0.25133,0.00000,0.00000,0.00000,40,2,64,26,25,11,64,21,ok,2,0,0.001,5,2.16,0.34,8.97,28,0.051,8.20
5.3706,-0.06981,0.06283,0.25133,0.00000,0.00000,0.00000,40,1,67,23,26,10,65,21,ok,2,0,0.001,5,2.16,0.34,8.97,28,0.063,8.20
5.3836,-0.06981,0.06283,0.25133,0.00000,0.00000,0.00000,41,0,69,20,27,10,65,22,ok,2,0,0.001,5,2.16,0.34,8.97,28,0.076,8.20
5.4058,-0.06981,0.06283,0.25133,0.00000,0.00000,0.00000,42,0,70,16,29,10,64,24,ok,2,0,0.001,5,2.16,0.34,8.97,28,0.088,8.20
5.4091,-0.06981,0.06283,0.25133,0.00000,0.00000,0.00000,42,0,70,14,30,9,64,26,ok,2,0,0.001,5,2.16,0.34,8.97,28,0.102,8.20
5.4216,-0.06981,0.06283,0.25133,0.00000,0.00000,0.00000,44,0,70,13,33,9,65,27,ok,2,0,0.001,5,2.16,0.34,8.97,28,0.114,8.20
5.4418,-0.06981,0.06283,0.25133,0.00000,0.00000,0.00000,44,1,70,9,33,9,65,29,ok,2,0,0.001,5,2.16,0.34,8.97,28,0.127,8.20
5.4466,-0.06981,0.06283,0.25133,0.00000,0.00000,0.00000,45,2,69,6,35,9,64,30,ok,2,0,0.001,5,2.16,0.34,8.97,28,0.139,8.20
5.4595,-0.06981,0.06283,0.25133,0.00000,0.00000,0.00000,46,2,68,3,36,8,64,31,ok,2,0,0.001,5,2.16,0.34,8.97,28,0.152,8.20
5.4818,-0.06981,0.06283,0.25133,0.00000,0.00000,0.00000,46,2,67,0,38,9,64,33,ok,2,0,0.001,5,2.16,0.34,8.97,28,0.164,8.20
5.4854,-0.06981,0.06283,0.25133,0.00000,0.00000,0.00000,46,2,66,-2,39,8,64,34,ok,2,0,0.001,5,2.16,0.34,8.97,28,0.178,8.20
5.4978,-0.06981,0.06283,0.25133,0.00000,0.00000,0.00000,48,2,64,-3,40,8,63,36,ok,2,0,0.001,5,2.16,0.34,8.97,28,0.191,8.20
5.5218,-0.15010,0.05585,0.27751,0.00000,0.00000,0.00000,48,2,62,-4,41,7,65,36,ok,2,0,0.001,5,0.42,-2.40,9.25,29,0.000,8.20
5.5250,-0.15010,0.05585,0.27751,0.00000,0.00000,0.00000,48,3,61,-5,42,6,66,35,ok,2,0,0.001,5,0.42,-2.40,9.25,29,0.015,8.20
5.5379,-0.15010,0.05585,0.27751,0.00000,0.00000,0.00000,48,3,60,-8,43,6,68,33,ok,2,0,0.001,5,0.42,-2.40,9.25,29,0.027,8.20
5.5578,-0.15010,0.05585,0.27751,0.00000,0.00000,0.00000,50,3,57,-8,44,7,70,27,ok,2,0,0.001,5,0.42,-2.40,9.25,29,0.040,8.20
5.5627,-0.15010,0.05585,0.27751,0.00000,0.00000,0.00000,50,3,55,-9,44,7,71,24,ok,2,0,0.001,5,0.42,-2.40,9.25,29,0.052,8.20
5.5752,-0.15010,0.05585,0.27751,0.00000,0.00000,0.00000,50,2,53,-9,46,7,73,21,ok,2,0,0.001,5,0.42,-2.40,9.25,29,0.065,8.20
5.5978,-0.15010,0.05585,0.27751,0.00000,0.00000,0.00000,50,4,51,-10,47,7,73,21,ok,2,0,0.001,5,0.42,-2.40,9.25,29,0.077,8.20
5.6010,-0.15010,0.05585,0.27751,0.00000,0.00000,0.00000,51,5,48,-10,48,7,73,19,ok,2,0,0.001,6,0.42,-2.40,9.25,29,0.091,8.20
5.6137,-0.15010,0.05585,0.27751,0.00000,0.00000,0.00000,52,5,46,-10,49,7,73,15,ok,2,0,0.001,6,0.42,-2.40,9.25,29,0.103,8.20
5.6338,-0.15010,0.05585,0.27751,0.00000,0.00000,0.00000,52,5,44,-9,49,7,72,12,ok,2,0,0.001,6,0.42,-2.40,9.25,29,0.116,8.20
5.6408,-0.15010,0.05585,0.27751,0.00000,0.00000,0.00000,52,6,41,-10,50,7,72,11,ok,2,0,0.002,6,0.42,-2.40,9.25,29,0.130,8.20
5.6512,-0.15010,0.05585,0.27751,0.00000,0.00000,0.00000,53,7,39,-10,51,7,71,7,ok,2,0,0.002,6,0.42,-2.40,9.25,29,0.141,8.20
5.6738,-0.15010,0.05585,0.27751,0.00000,0.00000,0.00000,53,7,36,-9,52,6,71,6,ok,2,0,0.002,6,0.42,-2.40,9.25,29,0.153,8.20
5.6770,-0.15010,0.05585,0.27751,0.00000,0.00000,0.00000,54,7,33,-9,52,7,70,4,ok,2,0,0.002,6,0.42,-2.40,9.25,29,0.167,8.20
5.6897,-0.15010,0.05585,0.27751,0.00000,0.00000,0.00000,54,8,30,-7,53,7,68,2,ok,2,0,0.002,6,0.42,-2.40,9.25,29,0.179,8.20
5.7098,-0.15010,0.05585,0.27751,0.00000,0.00000,0.00000,54,8,27,-6,54,8,66,2,ok,2,0,0.002,6,0.42,-2.40,9.25,29,0.192,8.20
5.7150,-0.08203,0.04014,0.24435,0.00000,0.00000,0.00000,54,9,24,-5,55,8,65,0,ok,2,0,0.002,6,0.37,-0.51,10.45,30,0.000,8.20
5.7271,-0.08203,0.04014,0.24435,0.00000,0.00000,0.00000,55,10,20,-3,56,8,64,-2,ok,2,0,0.002,6,0.37,-0.51,10.45,30,0.013,8.20
5.7498,-0.08203,0.04014,0.24435,0.00000,0.00000,0.00000,55,10,18,-1,58,6,62,-3,ok,2,0,0.002,6,0.37,-0.51,10.45,30,0.025,8.20
5.7529,-0.08203,0.04014,0.24435,0.00000,0.00000,0.00000,56,10,18,0,58,7,60,-4,ok,2,0,0.002,6,0.37,-0.51,10.45,30,0.038,8.20
5.7659,-0.08203,0.04014,0.24435,0.00000,0.00000,0.00000,56,11,16,2,59,8,58,-5,ok,2,0,0.002,6,0.37,-0.51,10.45,30,0.051,8.20
5.7858,-0.08203,0.04014,0.24435,0.00000,0.00000,0.00000,56,11,14,5,59,8,55,-5,ok,2,0,0.002,6,0.37,-0.51,10.45,30,0.063,8.20
5.7907,-0.08203,0.04014,0.24435,0.00000,0.00000,0.00000,56,12,13,9,60,9,54,-6,ok,2,0,0.002,6,0.37,-0.51,10.45,30,0.076,8.20
5.8031,-0.08203,0.04014,0.24435,0.00000,0.00000,0.00000,56,12,12,11,60,9,50,-5,ok,2,0,0.002,6,0.37,-0.51,10.45,30,0.088,8.20
5.8258,-0.08203,0.04014,0.24435,0.00000,0.00000,0.00000,56,13,14,11,60,9,48,-5,ok,2,0,0.002,6,0.37,-0.51,10.45,30,0.101,8.20
5.8289,-0.08203,0.04014,0.24435,0.00000,0.00000,0.00000,56,14,15,11,61,10,46,-5,ok,2,0,0.002,6,0.37,-0.51,10.45,30,0.114,8.20
5.8417,-0.08203,0.04014,0.24435,0.00000,0.00000,0.00000,56,14,16,10,61,10,43,-4,ok,2,0,0.002,6,0.37,-0.51,10.45,30,0.127,8.20
5.8618,-0.08203,0.04014,0.24435,0.00000,0.00000,0.00000,56,15,18,9,62,12,41,-4,ok,2,0,0.002,6,0.37,-0.51,10.45,30,0.139,8.20
5.8667,-0.08203,0.04014,0.24435,0.00000,0.00000,0.00000,56,15,19,9,62,12,37,-3,ok,2,0,0.002,6,0.37,-0.51,10.45,30,0.152,8.20
5.8791,-0.08203,0.04014,0.24435,0.00000,0.00000,0.00000,56,16,21,8,62,13,35,-3,ok,2,0,0.002,6,0.37,-0.51,10.45,30,0.165,8.20
5.9018,-0.08203,0.04014,0.24435,0.00000,0.00000,0.00000,56,17,21,7,62,14,31,-1,ok,2,0,0.002,6,0.37,-0.51,10.45,30,0.177,8.20
5.9050,-0.08203,0.04014,0.24435,0.00000,0.00000,0.00000,57,19,23,6,63,14,30,0,ok,2,0,0.002,6,0.37,-0.51,10.45,30,0.190,8.20
5.9181,-0.06109,0.11170,0.21642,0.00000,0.00000,0.00000,57,20,24,5,63,15,28,2,ok,2,0,0.002,6,1.44,-1.15,10.13,31,0.000,8.20
5.9378,-0.06109,0.11170,0.21642,0.00000,0.00000,0.00000,58,21,24,5,63,16,25,5,ok,2,0,0.002,6,1.44,-1.15,10.13,31,0.013,8.20
5.9427,-0.06109,0.11170,0.21642,0.00000,0.00000,0.00000,58,22,25,4,63,17,24,7,ok,2,0,0.002,6,1.44,-1.15,10.13,31,0.025,8.20
5.9552,-0.06109,0.11170,0.21642,0.00000,0.00000,0.00000,58,23,25,3,64,17,23,11,ok,2,0,0.002,6,1.44,-1.15,10.13,31,0.037,8.20
5.9778,-0.06109,0.11170,0.21642,0.00000,0.00000,0.00000,57,26,26,3,64,18,22,13,ok,2,0,0.002,6,1.44,-1.15,10.13,31,0.050,8.20
5.9810,-0.06109,0.11170,0.21642,0.00000,0.00000,0.00000,57,27,27,2,64,19,24,12,ok,2,0,0.002,6,1.44,-1.15,10.13,31,0.063,8.20
5.9941,-0.06109,0.11170,0.21642,0.00000,0.00000,0.00000,58,25,28,2,64,21,25,12,ok,2,0,0.002,6,1.44,-1.15,10.13,31,0.076,8.20
6.0138,-0.06109,0.11170,0.21642,0.00000,0.00000,0.00000,58,21,29,2,65,22,26,10,ok,2,0,0.002,6,1.44,-1.15,10.13,31,0.088,8.20
6.0187,-0.06109,0.11170,0.21642,0.00000,0.00000,0.00000,60,18,30,1,64,23,27,10,ok,2,0,0.002,6,1.44,-1.15,10.13,31,0.101,8.20
6.0311,-0.06109,0.11170,0.21642,0.00000,0.00000,0.00000,60,13,32,2,64,25,28,10,ok,2,0,0.002,6,1.44,-1.15,10.13,31,0.113,8.20
6.0538,-0.06109,0.11170,0.21642,0.00000,0.00000,0.00000,60,11,33,2,65,25,29,9,ok,2,0,0.002,6,1.44,-1.15,10.13,31,0.126,8.20
6.0570,-0.06109,0.11170,0.21642,0.00000,0.00000,0.00000,60,10,35,2,64,27,30,9,ok,2,0,0.002,6,1.44,-1.15,10.13,31,0.139,8.20
6.0697,-0.06109,0.11170,0.21642,0.00000,0.00000,0.00000,60,7,36,2,64,29,33,9,ok,2,0,0.002,6,1.44,-1.15,10.13,31,0.152,8.20
6.0898,-0.06109,0.11170,0.21642,0.00000,0.00000,0.00000,60,4,38,3,64,30,33,9,ok,2,0,0.002,6,1.44,-1.15,10.13,31,0.164,8.20
6.0950,-0.06109,0.11170,0.21642,0.00000,0.00000,0.00000,59,2,39,3,65,32,35,9,ok,2,0,0.002,6,1.44,-1.15,10.13,31,0.177,8.20
6.1071,-0.06109,0.11170,0.21642,0.00000,0.00000,0.00000,59,-1,41,2,64,33,36,8,ok,2,0,0.002,6,1.44,-1.15,10.13,31,0.189,8.20
6.1298,-0.06283,-0.00524,0.21817,0.00000,0.00000,0.00000,58,-3,42,2,64,35,37,8,ok,2,0,0.002,6,-0.97,-0.49,9.59,32,0.000,8.20
6.1330,-0.06283,-0.00524,0.21817,0.00000,0.00000,0.00000,58,-4,43,2,65,35,38,8,ok,2,0,0.002,6,-0.97,-0.49,9.59,32,0.013,8.20
6.1458,-0.06283,-0.00524,0.21817,0.00000,0.00000,0.00000,56,-5,43,2,66,35,40,8,ok,2,0,0.002,6,-0.97,-0.49,9.59,32,0.026,8.20
6.1658,-0.06283,-0.00524,0.21817,0.00000,0.00000,0.00000,56,-6,45,2,68,33,41,7,ok,2,0,0.002,6,-0.97,-0.49,9.59,32,0.039,8.20
6.1707,-0.06283,-0.00524,0.21817,0.00000,0.00000,0.00000,56,-8,46,2,70,29,42,7,ok,2,0,0.002,6,-0.97,-0.49,9.59,32,0.051,8.20
6.1832,-0.06283,-0.00524,0.21817,0.00000,0.00000,0.00000,54,-9,48,4,71,24,44,7,ok,2,0,0.002,6,-0.97,-0.49,9.59,32,0.064,8.20
6.2058,-0.06283,-0.00524,0.21817,0.00000,0.00000,0.00000,54,-10,49,3,73,21,44,7,ok,2,0,0.002,6,-0.97,-0.49,9.59,32,0.076,8.20
6.2092,-0.06283,-0.00524,0.21817,0.00000,0.00000,0.00000,52,-10,50,3,74,21,45,7,ok,2,0,0.002,6,-0.97,-0.49,9.59,32,0.089,8.20
6.2218,-0.06283,-0.00524,0.21817,0.00000,0.00000,0.00000,51,-11,50,5,74,18,46,7,ok,2,0,0.002,6,-0.97,-0.49,9.59,32,0.102,8.20
6.2418,-0.06283,-0.00524,0.21817,0.00000,0.00000,0.00000,50,-11,51,6,74,14,47,8,ok,2,0,0.002,6,-0.97,-0.49,9.59,32,0.115,8.20
6.2469,-0.06283,-0.00524,0.21817,0.00000,0.00000,0.00000,48,-11,52,6,73,11,48,8,ok,2,0,0.002,6,-0.97,-0.49,9.59,32,0.127,8.20
6.2593,-0.06283,-0.00524,0.21817,0.00000,0.00000,0.00000,48,-10,53,6,73,10,49,8,ok,2,0,0.002,6,-0.97,-0.49,9.59,32,0.140,8.20
6.2818,-0.06283,-0.00524,0.21817,0.00000,0.00000,0.00000,46,-10,53,7,72,6,49,9,ok,2,0,0.002,6,-0.97,-0.49,9.59,32,0.152,8.20
6.2849,-0.06283,-0.00524,0.21817,0.00000,0.00000,0.00000,44,-11,56,7,72,5,50,8,ok,2,0,0.002,6,-0.97,-0.49,9.59,32,0.165,8.20
6.2978,-0.06283,-0.00524,0.21817,0.00000,0.00000,0.00000,44,-10,56,7,71,3,51,9,ok,2,0,0.002,6,-0.97,-0.49,9.59,32,0.178,8.20
6.3178,-0.06283,-0.00524,0.21817,0.00000,0.00000,0.00000,42,-8,57,7,69,1,52,8,ok,2,0,0.002,6,-0.97,-0.49,9.59,32,0.191,8.20
6.3230,-0.06283,-0.00524,0.21817,0.00000,0.00000,0.00000,40,-7,57,8,66,1,52,9,ok,2,0,0.002,6,-0.97,-0.49,9.59,32,0.203,8.20
6.3355,0.03142,-0.02967,0.22340,0.00000,0.00000,0.00000,38,-6,58,8,65,-1,53,9,ok,2,0,0.002,6,-0.19,0.64,9.52,33,0.000,8.20
6.3578,0.03142,-0.02967,0.22340,0.00000,0.00000,0.00000,37,-4,58,8,64,-2,54,9,ok,2,0,0.002,6,-0.19,0.64,9.52,33,0.013,8.20
6.3610,0.03142,-0.02967,0.22340,0.00000,0.00000,0.00000,35,-1,59,9,62,-4,54,9,ok,2,0,0.002,6,-0.19,0.64,9.52,33,0.026,8.20
6.3737,0.03142,-0.02967,0.22340,0.00000,0.00000,0.00000,34,-1,60,10,61,-5,54,8,ok,2,0,0.002,6,-0.19,0.64,9.52,33,0.038,8.20
6.3938,0.03142,-0.02967,0.22340,0.00000,0.00000,0.00000,34,0,61,10,59,-5,56,6,ok,2,0,0.002,6,-0.19,0.64,9.52,33,0.051,8.20
6.3989,0.03142,-0.02967,0.22340,0.00000,0.00000,0.00000,34,3,61,10,56,-6,56,7,ok,2,0,0.002,6,-0.19,0.64,9.52,33,0.063,8.20
6.4113,0.03142,-0.02967,0.22340,0.00000,0.00000,0.00000,32,6,61,10,54,-7,57,8,ok,2,0,0.002,6,-0.19,0.64,9.52,33,0.076,8.20
6.4338,0.03142,-0.02967,0.22340,0.00000,0.00000,0.00000,32,9,61,11,51,-6,58,9,ok,2,0,0.002,6,-0.19,0.64,9.52,33,0.088,8.20
6.4370,0.03142,-0.02967,0.22340,0.00000,0.00000,0.00000,32,12,62,11,48,-6,59,9,ok,2,0,0.002,6,-0.19,0.64,9.52,33,0.102,8.20
6.4499,0.03142,-0.02967,0.22340,0.00000,0.00000,0.00000,32,12,62,12,46,-6,60,10,ok,2,0,0.002,6,-0.19,0.64,9.52,33,0.115,8.20
6.4698,0.03142,-0.02967,0.22340,0.00000,0.00000,0.00000,32,12,61,13,43,-5,59,10,ok,2,0,0.002,6,-0.19,0.64,9.52,33,0.127,8.20
6.4747,0.03142,-0.02967,0.22340,0.00000,0.00000,0.00000,33,10,62,13,40,-5,60,11,ok,2,0,0.002,6,-0.19,0.64,9.52,33,0.139,8.20
6.4872,0.03142,-0.02967,0.22340,0.00000,0.00000,0.00000,34,9,62,14,37,-4,60,12,ok,2,0,0.002,6,-0.19,0.64,9.52,33,0.152,8.20
6.5098,0.03142,-0.02967,0.22340,0.00000,0.00000,0.00000,34,8,63,15,34,-3,61,13,ok,2,0,0.002,6,-0.19,0.64,9.52,33,0.165,8.20
6.5130,0.03142,-0.02967,0.22340,0.00000,0.00000,0.00000,36,7,63,16,31,-2,61,13,ok,2,0,0.002,6,-0.19,0.64,9.52,33,0.178,8.20
6.5257,0.03142,-0.02967,0.22340,0.00000,0.00000,0.00000,36,7,63,17,29,0,62,14,ok,2,0,0.002,6,-0.19,0.64,9.52,33,0.190,8.20
6.5458,-0.11868,0.00524,0.23213,0.00000,0.00000,0.00000,36,6,64,18,28,1,62,15,ok,2,0,0.002,6,0.39,-1.76,8.99,34,0.000,8.20
6.5509,-0.11868,0.00524,0.23213,0.00000,0.00000,0.00000,37,5,64,20,25,4,63,15,ok,2,0,0.002,6,0.39,-1.76,8.99,34,0.012,8.20
6.5631,-0.11868,0.00524,0.23213,0.00000,0.00000,0.00000,38,4,64,21,24,7,63,17,ok,2,0,0.002,6,0.39,-1.76,8.99,34,0.025,8.20
6.5858,-0.11868,0.00524,0.23213,0.00000,0.00000,0.00000,38,4,64,22,22,10,63,18,ok,2,0,0.002,6,0.39,-1.76,8.99,34,0.038,8.20
6.5890,-0.11868,0.00524,0.23213,0.00000,0.00000,0.00000,38,3,64,23,22,13,64,18,ok,2,0,0.002,6,0.39,-1.76,8.99,34,0.051,8.20
6.6018,-0.11868,0.00524,0.23213,0.00000,0.00000,0.00000,39,2,63,27,23,13,64,19,ok,2,0,0.002,6,0.39,-1.76,8.99,34,0.064,8.20
6.6218,-0.11868,0.00524,0.23213,0.00000,0.00000,0.00000,40,1,63,28,24,13,64,20,ok,2,0,0.002,7,0.39,-1.76,8.99,34,0.076,8.20
6.6267,-0.11868,0.00524,0.23213,0.00000,0.00000,0.00000,40,1,65,27,25,11,64,21,ok,2,0,0.002,7,0.39,-1.76,8.99,34,0.089,8.20
6.6392,-0.11868,0.00524,0.23213,0.00000,0.00000,0.00000,40,1,67,24,26,10,65,22,ok,2,0,0.002,7,0.39,-1.76,8.99,34,0.101,8.20
6.6618,-0.11868,0.00524,0.23213,0.00000,0.00000,0.00000,41,0,69,20,27,10,65,23,ok,2,0,0.002,7,0.39,-1.76,8.99,34,0.114,8.20
6.6652,-0.11868,0.00524,0.23213,0.00000,0.00000,0.00000,42,1,70,15,29,10,64,24,ok,2,0,0.002,7,0.39,-1.76,8.99,34,0.127,8.20
6.6778,-0.11868,0.00524,0.23213,0.00000,0.00000,0.00000,42,1,71,13,30,8,64,26,ok,2,0,0.002,7,0.39,-1.76,8.99,34,0.140,8.20
6.6978,-0.11868,0.00524,0.23213,0.00000,0.00000,0.00000,44,2,70,12,32,9,65,27,ok,2,0,0.002,7,0.39,-1.76,8.99,34,0.152,8.20
6.7027,-0.11868,0.00524,0.23213,0.00000,0.00000,0.00000,44,2,70,9,33,9,64,29,ok,2,0,0.002,7,0.39,-1.76,8.99,34,0.165,8.20
6.7153,-0.11868,0.00524,0.23213,0.00000,0.00000,0.00000,45,3,69,6,35,8,64,30,ok,2,0,0.002,7,0.39,-1.76,8.99,34,0.177,8.20
6.7378,-0.11868,0.00524,0.23213,0.00000,0.00000,0.00000,46,3,69,3,36,8,64,32,ok,2,0,0.002,7,0.39,-1.76,8.99,34,0.190,8.20
6.7414,-0.13090,0.01047,0.25656,0.00000,0.00000,0.00000,46,3,67,0,37,8,64,33,ok,2,0,0.002,7,0.36,-2.37,9.77,35,0.000,8.20
6.7539,-0.13090,0.01047,0.25656,0.00000,0.00000,0.00000,47,2,66,-2,39,7,64,35,ok,2,0,0.002,7,0.36,-2.37,9.77,35,0.013,8.20
6.7738,-0.13090,0.01047,0.25656,0.00000,0.00000,0.00000,48,3,64,-3,39,7,63,36,ok,2,0,0.002,7,0.36,-2.37,9.77,35,0.025,8.20
6.7787,-0.13090,0.01047,0.25656,0.00000,0.00000,0.00000,48,3,62,-4,41,6,64,36,ok,2,0,0.002,7,0.36,-2.37,9.77,35,0.038,8.20
6.7912,-0.13090,0.01047,0.25656,0.00000,0.00000,0.00000,48,3,61,-6,42,7,65,35,ok,2,0,0.002,7,0.36,-2.37,9.77,35,0.050,8.20
6.8138,-0.13090,0.01047,0.25656,0.00000,0.00000,0.00000,49,3,60,-8,43,7,67,33,ok,2,0,0.002,7,0.36,-2.37,9.77,35,0.063,8.20
6.8170,-0.13090,0.01047,0.25656,0.00000,0.00000,0.00000,50,4,58,-8,44,7,69,28,ok,2,0,0.002,7,0.36,-2.37,9.77,35,0.076,8.20
6.8297,-0.13090,0.01047,0.25656,0.00000,0.00000,0.00000,50,3,55,-9,45,7,70,24,ok,2,0,0.002,7,0.36,-2.37,9.77,35,0.089,8.20
6.8498,-0.13090,0.01047,0.25656,0.00000,0.00000,0.00000,50,3,53,-9,46,7,72,21,ok,2,0,0.002,7,0.36,-2.37,9.77,35,0.101,8.20
6.8547,-0.13090,0.01047,0.25656,0.00000,0.00000,0.00000,50,5,51,-10,47,7,72,21,ok,2,0,0.002,7,0.36,-2.37,9.77,35,0.114,8.20
6.8672,-0.13090,0.01047,0.25656,0.00000,0.00000,0.00000,51,6,49,-10,47,7,72,19,ok,2,0,0.002,7,0.36,-2.37,9.77,35,0.126,8.20
6.8898,-0.13090,0.01047,0.25656,0.00000,0.00000,0.00000,52,6,46,-10,49,7,72,15,ok,2,0,0.002,7,0.36,-2.37,9.77,35,0.139,8.20
6.8930,-0.13090,0.01047,0.25656,0.00000,0.00000,0.00000,52,6,44,-10,49,7,72,12,ok,2,0,0.002,7,0.36,-2.37,9.77,35,0.152,8.20
6.9057,-0.13090,0.01047,0.25656,0.00000,0.00000,0.00000,52,7,41,-10,50,7,71,11,ok,2,0,0.002,7,0.36,-2.37,9.77,35,0.165,8.20
6.9258,-0.13090,0.01047,0.25656,0.00000,0.00000,0.00000,54,7,39,-10,51,7,71,7,ok,2,0,0.002,7,0.36,-2.37,9.77,35,0.177,8.20
6.9307,-0.13090,0.01047,0.25656,0.00000,0.00000,0.00000,54,7,36,-9,52,6,70,6,ok,2,0,0.002,7,0.36,-2.37,9.77,35,0.190,8.20
6.9433,-0.13090,0.01047,0.25656,0.00000,0.00000,0.00000,54,7,33,-9,52,7,70,4,ok,2,0,0.002,7,0.36,-2.37,9.77,35,0.202,8.20
6.9658,-0.02618,-0.00698,0.22340,0.00000,0.00000,0.00000,54,8,30,-7,53,7,68,2,ok,2,0,0.002,7,1.05,-0.24,9.91,36,0.000,8.20
6.9692,-0.02618,-0.00698,0.22340,0.00000,0.00000,0.00000,54,8,27,-6,54,8,66,2,ok,2,0,0.002,7,1.05,-0.24,9.91,36,0.013,8.20
6.9817,-0.02618,-0.00698,0.22340,0.00000,0.00000,0.00000,54,9,24,-5,55,8,64,0,ok,2,0,0.002,7,1.05,-0.24,9.91,36,0.026,8.20
7.0018,-0.02618,-0.00698,0.22340,0.00000,0.00000,0.00000,55,10,21,-2,56,8,63,-2,ok,2,0,0.002,7,1.05,-0.24,9.91,36,0.039,8.20
7.0068,-0.02618,-0.00698,0.22340,0.00000,0.00000,0.00000,55,10,19,-1,58,6,61,-3,ok,2,0,0.002,7,1.05,-0.24,9.91,36,0.051,8.20
7.0192,-0.02618,-0.00698,0.22340,0.00000,0.00000,0.00000,56,10,18,0,58,7,59,-4,ok,2,0,0.002,7,1.05,-0.24,9.91,36,0.063,8.20
7.0418,-0.02618,-0.00698,0.22340,0.00000,0.00000,0.00000,56,11,16,2,59,8,57,-4,ok,2,0,0.002,7,1.05,-0.24,9.91,36,0.076,8.20
7.0450,-0.02618,-0.00698,0.22340,0.00000,0.00000,0.00000,56,12,15,5,59,8,55,-5,ok,2,0,0.002,7,1.05,-0.24,9.91,36,0.089,8.20
7.0577,-0.02618,-0.00698,0.22340,0.00000,0.00000,0.00000,56,13,13,9,60,8,53,-6,ok,2,0,0.002,7,1.05,-0.24,9.91,36,0.102,8.20
7.0778,-0.02618,-0.00698,0.22340,0.00000,0.00000,0.00000,56,13,13,11,60,9,50,-5,ok,2,0,0.002,7,1.05,-0.24,9.91,36,0.114,8.20
7.0828,-0.02618,-0.00698,0.22340,0.00000,0.00000,0.00000,56,14,14,12,60,9,47,-5,ok,2,0,0.002,7,1.05,-0.24,9.91,36,0.127,8.20
7.0953,-0.02618,-0.00698,0.22340,0.00000,0.00000,0.00000,56,14,15,11,61,10,45,-5,ok,2,0,0.002,7,1.05,-0.24,9.91,36,0.140,8.20
7.1178,-0.02618,-0.00698,0.22340,0.00000,0.00000,0.00000,56,14,17,10,61,11,42,-4,ok,2,0,0.002,7,1.05,-0.24,9.91,36,0.152,8.20
7.1210,-0.02618,-0.00698,0.22340,0.00000,0.00000,0.00000,56,15,19,9,61,12,40,-4,ok,2,0,0.002,7,1.05,-0.24,9.91,36,0.165,8.20
7.1337,-0.02618,-0.00698,0.22340,0.00000,0.00000,0.00000,56,15,19,9,61,12,37,-3,ok,2,0,0.002,7,1.05,-0.24,9.91,36,0.178,8.20
7.1538,0.03491,0.08378,0.19548,0.00000,0.00000,0.00000,56,16,21,8,62,13,35,-3,ok,2,0,0.002,7,0.55,0.49,10.21,37,0.000,8.20
7.1588,0.03491,0.08378,0.19548,0.00000,0.00000,0.00000,56,18,22,7,62,14,30,-1,ok,2,0,0.002,7,0.55,0.49,10.21,37,0.012,8.20
7.1711,0.03491,0.08378,0.19548,0.00000,0.00000,0.00000,58,19,23,6,63,14,29,0,ok,2,0,0.002,7,0.55,0.49,10.21,37,0.025,8.20
7.1938,0.03491,0.08378,0.19548,0.00000,0.00000,0.00000,58,20,24,5,63,15,27,2,ok,2,0,0.002,7,0.55,0.49,10.21,37,0.038,8.20
7.1970,0.03491,0.08378,0.19548,0.00000,0.00000,0.00000,58,21,24,5,63,16,25,5,ok,2,0,0.002,7,0.55,0.49,10.21,37,0.051,8.20
7.2097,0.03491,0.08378,0.19548,0.00000,0.00000,0.00000,58,22,25,4,63,17,23,7,ok,2,0,0.002,7,0.55,0.49,10.21,37,0.064,8.20
7.2298,0.03491,0.08378,0.19548,0.00000,0.00000,0.00000,58,23,25,3,64,17,22,11,ok,2,0,0.002,7,0.55,0.49,10.21,37,0.076,8.20
7.2347,0.03491,0.08378,0.19548,0.00000,0.00000,0.00000,57,26,26,3,64,18,22,13,ok,2,0,0.002,7,0.55,0.49,10.21,37,0.089,8.20
7.2473,0.03491,0.08378,0.19548,0.00000,0.00000,0.00000,57,27,27,2,64,20,24,12,ok,2,0,0.002,7,0.55,0.49,10.21,37,0.101,8.20
7.2699,0.03491,0.08378,0.19548,0.00000,0.00000,0.00000,58,25,28,2,64,21,25,12,ok,2,0,0.002,7,0.55,0.49,10.21,37,0.114,8.20
7.2730,0.03491,0.08378,0.19548,0.00000,0.00000,0.00000,58,21,29,2,65,22,25,10,ok,2,0,0.002,7,0.55,0.49,10.21,37,0.127,8.20
7.2858,0.03491,0.08378,0.19548,0.00000,0.00000,0.00000,60,18,31,1,64,23,27,9,ok,2,0,0.002,7,0.55,0.49,10.21,37,0.140,8.20
7.3058,0.03491,0.08378,0.19548,0.00000,0.00000,0.00000,60,13,32,2,64,25,28,10,ok,2,0,0.002,7,0.55,0.49,10.21,37,0.152,8.20
7.3108,0.03491,0.08378,0.19548,0.00000,0.00000,0.00000,60,11,33,2,65,25,29,9,ok,2,0,0.002,7,0.55,0.49,10.21,37,0.165,8.20
7.3234,0.03491,0.08378,0.19548,0.00000,0.00000,0.00000,60,10,35,2,64,28,30,9,ok,2,0,0.002,7,0.55,0.49,10.21,37,0.177,8.20
7.3458,0.03491,0.08378,0.19548,0.00000,0.00000,0.00000,60,7,36,2,64,29,32,9,ok,2,0,0.002,7,0.55,0.49,10.21,37,0.190,8.20
7.3493,-0.09076,0.03316,0.22864,0.00000,0.00000,0.00000,60,4,38,3,64,30,33,9,ok,2,0,0.002,7,-0.45,-0.89,8.37,38,0.000,8.20
7.3618,-0.09076,0.03316,0.22864,0.00000,0.00000,0.00000,60,1,39,3,64,31,35,9,ok,2,0,0.002,7,-0.45,-0.89,8.37,38,0.013,8.20
7.3818,-0.09076,0.03316,0.22864,0.00000,0.00000,0.00000,59,-1,41,3,64,33,36,8,ok,2,0,0.002,7,-0.45,-0.89,8.37,38,0.025,8.20
7.3869,-0.09076,0.03316,0.22864,0.00000,0.00000,0.00000,58,-3,42,3,64,34,37,8,ok,2,0,0.002,7,-0.45,-0.89,8.37,38,0.038,8.20
7.3992,-0.09076,0.03316,0.22864,0.00000,0.00000,0.00000,58,-5,44,3,64,35,39,8,ok,2,0,0.002,7,-0.45,-0.89,8.37,38,0.050,8.20
7.4218,-0.09076,0.03316,0.22864,0.00000,0.00000,0.00000,56,-6,44,3,65,35,40,8,ok,2,0,0.002,7,-0.45,-0.89,8.37,38,0.063,8.20
7.4250,-0.09076,0.03316,0.22864,0.00000,0.00000,0.00000,56,-7,45,3,68,33,41,7,ok,2,0,0.002,7,-0.45,-0.89,8.37,38,0.076,8.20
7.4377,-0.09076,0.03316,0.22864,0.00000,0.00000,0.00000,56,-9,46,4,70,28,42,7,ok,2,0,0.002,7,-0.45,-0.89,8.37,38,0.089,8.20
7.4578,-0.09076,0.03316,0.22864,0.00000,0.00000,0.00000,54,-10,48,5,71,24,43,7,ok,2,0,0.002,7,-0.45,-0.89,8.37,38,0.101,8.20
7.4629,-0.09076,0.03316,0.22864,0.00000,0.00000,0.00000,54,-11,49,4,73,21,44,7,ok,2,0,0.002,7,-0.45,-0.89,8.37,38,0.114,8.20
7.4751,-0.09076,0.03316,0.22864,0.00000,0.00000,0.00000,52,-11,49,4,74,20,45,8,ok,2,0,0.002,7,-0.45,-0.89,8.37,38,0.126,8.20
7.4978,-0.09076,0.03316,0.22864,0.00000,0.00000,0.00000,51,-12,49,6,74,18,46,8,ok,2,0,0.002,7,-0.45,-0.89,8.37,38,0.139,8.20
7.5010,-0.09076,0.03316,0.22864,0.00000,0.00000,0.00000,50,-11,51,6,74,14,47,8,ok,2,0,0.002,7,-0.45,-0.89,8.37,38,0.152,8.20
7.5139,-0.09076,0.03316,0.22864,0.00000,0.00000,0.00000,48,-11,52,6,73,11,48,8,ok,2,0,0.002,7,-0.45,-0.89,8.37,38,0.165,8.20
7.5338,-0.09076,0.03316,0.22864,0.00000,0.00000,0.00000,47,-10,53,6,73,9,49,8,ok,2,0,0.002,7,-0.45,-0.89,8.37,38,0.177,8.20
7.5387,-0.09076,0.03316,0.22864,0.00000,0.00000,0.00000,46,-11,53,7,72,6,49,9,ok,2,0,0.002,7,-0.45,-0.89,8.37,38,0.190,8.20
7.5513,-0.09076,0.03316,0.22864,0.00000,0.00000,0.00000,44,-11,55,7,72,4,50,8,ok,2,0,0.002,7,-0.45,-0.89,8.37,38,0.202,8.20
7.5738,0.01920,-0.00349,0.26005,0.00000,0.00000,0.00000,43,-10,56,7,71,3,51,9,ok,2,0,0.002,7,0.20,-0.14,9.20,39,0.000,8.20
7.5770,0.01920,-0.00349,0.26005,0.00000,0.00000,0.00000,42,-8,57,7,69,1,52,8,ok,2,0,0.002,7,0.20,-0.14,9.20,39,0.013,8.20
7.5898,0.01920,-0.00349,0.26005,0.00000,0.00000,0.00000,40,-7,57,7,67,2,52,9,ok,2,0,0.002,7,0.20,-0.14,9.20,39,0.026,8.20
7.6098,0.01920,-0.00349,0.26005,0.00000,0.00000,0.00000,38,-5,58,7,65,-1,52,9,ok,2,0,0.002,7,0.20,-0.14,9.20,39,0.039,8.20
7.6148,0.01920,-0.00349,0.26005,0.00000,0.00000,0.00000,37,-3,58,8,64,-2,54,9,ok,2,0,0.002,7,0.20,-0.14,9.20,39,0.051,8.20
7.6272,0.01920,-0.00349,0.26005,0.00000,0.00000,0.00000,35,-1,59,8,62,-4,54,9,ok,2,0,0.002,8,0.20,-0.14,9.20,39,0.064,8.20
7.6498,0.01920,-0.00349,0.26005,0.00000,0.00000,0.00000,35,-1,60,10,61,-5,54,8,ok,2,0,0.002,8,0.20,-0.14,9.20,39,0.076,8.20
7.6532,0.01920,-0.00349,0.26005,0.00000,0.00000,0.00000,34,1,61,9,59,-6,56,6,ok,2,0,0.002,8,0.20,-0.14,9.20,39,0.089,8.20
7.6657,0.01920,-0.00349,0.26005,0.00000,0.00000,0.00000,34,3,61,10,56,-7,57,7,ok,2,0,0.002,8,0.20,-0.14,9.20,39,0.102,8.20
7.6858,0.01920,-0.00349,0.26005,0.00000,0.00000,0.00000,32,6,61,10,54,-7,58,8,ok,2,0,0.002,8,0.20,-0.14,9.20,39,0.115,8.20
7.6907,0.01920,-0.00349,0.26005,0.00000,0.00000,0.00000,32,9,61,11,51,-7,58,8,ok,2,0,0.002,8,0.20,-0.14,9.20,39,0.127,8.20
7.7033,0.01920,-0.00349,0.26005,0.00000,0.00000,0.00000,32,11,61,11,48,-6,59,9,ok,2,0,0.002,8,0.20,-0.14,9.20,39,0.139,8.20
7.7258,0.01920,-0.00349,0.26005,0.00000,0.00000,0.00000,32,11,62,13,46,-6,60,10,ok,2,0,0.002,8,0.20,-0.14,9.20,39,0.152,8.20
7.7290,0.01920,-0.00349,0.26005,0.00000,0.00000,0.00000,32,11,61,14,43,-5,59,10,ok,2,0,0.002,8,0.20,-0.14,9.20,39,0.165,8.20
7.7418,0.01920,-0.00349,0.26005,0.00000,0.00000,0.00000,33,9,62,14,40,-5,60,11,ok,2,0,0.002,8,0.20,-0.14,9.20,39,0.178,8.20
7.7618,-0.09948,0.00000,0.26005,0.00000,0.00000,0.00000,34,9,62,14,37,-4,60,12,ok,2,0,0.002,8,0.34,-1.39,9.54,40,0.000,8.20
7.7667,-0.09948,0.00000,0.26005,0.00000,0.00000,0.00000,34,8,62,15,34,-4,61,13,ok,2,0,0.002,8,0.34,-1.39,9.54,40,0.012,8.20
7.7794,-0.09948,0.00000,0.26005,0.00000,0.00000,0.00000,36,7,63,16,31,-2,62,13,ok,2,0,0.002,8,0.34,-1.39,9.54,40,0.025,8.20
7.8018,-0.09948,0.00000,0.26005,0.00000,0.00000,0.00000,36,6,63,17,29,-1,63,14,ok,2,0,0.002,8,0.34,-1.39,9.54,40,0.038,8.20
7.8050,-0.09948,0.00000,0.26005,0.00000,0.00000,0.00000,36,5,64,19,27,1,63,15,ok,2,0,0.002,8,0.34,-1.39,9.54,40,0.051,8.20
7.8180,-0.09948,0.00000,0.26005,0.00000,0.00000,0.00000,37,4,64,20,25,4,64,16,ok,2,0,0.002,8,0.34,-1.39,9.54,40,0.063,8.20
7.8378,-0.09948,0.00000,0.26005,0.00000,0.00000,0.00000,38,4,64,21,24,7,63,17,ok,2,0,0.002,8,0.34,-1.39,9.54,40,0.076,8.20
7.8426,-0.09948,0.00000,0.26005,0.00000,0.00000,0.00000,38,3,64,23,23,11,63,18,ok,2,0,0.002,8,0.34,-1.39,9.54,40,0.088,8.20
7.8551,-0.09948,0.00000,0.26005,0.00000,0.00000,0.00000,38,3,64,24,22,14,64,19,ok,2,0,0.002,8,0.34,-1.39,9.54,40,0.101,8.20
7.8778,-0.09948,0.00000,0.26005,0.00000,0.00000,0.00000,39,2,63,26,24,13,64,19,ok,2,0,0.002,8,0.34,-1.39,9.54,40,0.114,8.20
7.8810,-0.09948,0.00000,0.26005,0.00000,0.00000,0.00000,40,2,63,27,24,13,64,20,ok,2,0,0.002,8,0.34,-1.39,9.54,40,0.127,8.20
7.8937,-0.09948,0.00000,0.26005,0.00000,0.00000,0.00000,40,2,65,26,25,11,64,21,ok,2,0,0.002,8,0.34,-1.39,9.54,40,0.140,8.20
7.9138,-0.09948,0.00000,0.26005,0.00000,0.00000,0.00000,40,2,67,22,27,10,65,22,ok,2,0,0.002,8,0.34,-1.39,9.54,40,0.152,8.20
7.9187,-0.09948,0.00000,0.26005,0.00000,0.00000,0.00000,41,1,69,19,28,10,65,23,ok,2,0,0.002,8,0.34,-1.39,9.54,40,0.165,8.20
7.9312,-0.09948,0.00000,0.26005,0.00000,0.00000,0.00000,42,1,70,15,29,10,64,24,ok,2,0,0.002,8,0.34,-1.39,9.54,40,0.177,8.20
7.9538,-0.09948,0.00000,0.26005,0.00000,0.00000,0.00000,42,1,71,12,30,8,64,26,ok,2,0,0.002,8,0.34,-1.39,9.54,40,0.190,8.20
7.9573,-0.12043,-0.01222,0.31590,0.00000,0.00000,0.00000,44,2,70,12,33,9,65,27,ok,2,0,0.002,8,-0.49,-1.71,11.46,41,0.000,8.20
7.9697,-0.12043,-0.01222,0.31590,0.00000,0.00000,0.00000,44,2,70,9,33,9,64,29,ok,2,0,0.002,8,-0.49,-1.71,11.46,41,0.013,8.20
7.9898,-0.12043,-0.01222,0.31590,0.00000,0.00000,0.00000,45,3,69,6,35,8,64,30,ok,2,0,0.002,8,-0.49,-1.71,11.46,41,0.025,8.20
7.9949,-0.12043,-0.01222,0.31590,0.00000,0.00000,0.00000,46,3,69,3,36,8,64,32,ok,2,0,0.002,8,-0.49,-1.71,11.46,41,0.038,8.20
8.0071,-0.12043,-0.01222,0.31590,0.00000,0.00000,0.00000,46,2,67,0,37,8,64,33,ok,2,0,0.002,8,-0.49,-1.71,11.46,41,0.050,8.20
8.0298,-0.12043,-0.01222,0.31590,0.00000,0.00000,0.00000,47,2,66,-2,38,8,64,35,ok,2,0,0.002,8,-0.49,-1.71,11.46,41,0.063,8.20
8.0330,-0.12043,-0.01222,0.31590,0.00000,0.00000,0.00000,48,3,64,-3,40,7,63,36,ok,2,0,0.002,8,-0.49,-1.71,11.46,41,0.076,8.20
8.0457,-0.12043,-0.01222,0.31590,0.00000,0.00000,0.00000,48,3,62,-4,41,6,64,36,ok,2,0,0.002,8,-0.49,-1.71,11.46,41,0.089,8.20
8.0658,-0.12043,-0.01222,0.31590,0.00000,0.00000,0.00000,48,3,61,-5,42,6,65,35,ok,2,0,0.002,8,-0.49,-1.71,11.46,41,0.101,8.20
8.0709,-0.12043,-0.01222,0.31590,0.00000,0.00000,0.00000,49,3,60,-8,43,6,67,33,ok,2,0,0.002,8,-0.49,-1.71,11.46,41,0.114,8.20
8.0832,-0.12043,-0.01222,0.31590,0.00000,0.00000,0.00000,50,4,58,-8,44,7,69,28,ok,2,0,0.002,8,-0.49,-1.71,11.46,41,0.126,8.20
8.1058,-0.12043,-0.01222,0.31590,0.00000,0.00000,0.00000,50,3,55,-9,45,7,70,24,ok,2,0,0.002,8,-0.49,-1.71,11.46,41,0.139,8.20
8.1090,-0.12043,-0.01222,0.31590,0.00000,0.00000,0.00000,50,3,54,-9,46,7,72,21,ok,2,0,0.002,8,-0.49,-1.71,11.46,41,0.152,8.20
8.1219,-0.12043,-0.01222,0.31590,0.00000,0.00000,0.00000,50,5,51,-10,47,7,72,21,ok,2,0,0.002,8,-0.49,-1.71,11.46,41,0.165,8.20
8.1418,-0.12043,-0.01222,0.31590,0.00000,0.00000,0.00000,51,6,49,-10,47,7,72,19,ok,2,0,0.002,8,-0.49,-1.71,11.46,41,0.177,8.20
8.1467,-0.12043,-0.01222,0.31590,0.00000,0.00000,0.00000,52,6,46,-10,49,7,72,15,ok,2,0,0.002,8,-0.49,-1.71,11.46,41,0.190,8.20
8.1595,-0.04712,-0.01396,0.31416,0.00000,0.00000,0.00000,52,6,44,-10,49,7,72,13,ok,2,0,0.002,8,-0.71,-0.72,9.70,42,0.000,8.20
8.1818,-0.04712,-0.01396,0.31416,0.00000,0.00000,0.00000,52,7,42,-10,50,7,71,11,ok,2,0,0.002,8,-0.71,-0.72,9.70,42,0.013,8.20
8.1851,-0.04712,-0.01396,0.31416,0.00000,0.00000,0.00000,53,7,39,-10,51,7,70,8,ok,2,0,0.002,8,-0.71,-0.72,9.70,42,0.026,8.20
8.1977,-0.04712,-0.01396,0.31416,0.00000,0.00000,0.00000,54,8,37,-9,52,6,70,6,ok,2,0,0.002,8,-0.71,-0.72,9.70,42,0.039,8.20
8.2178,-0.04712,-0.01396,0.31416,0.00000,0.00000,0.00000,54,8,33,-9,52,7,69,4,ok,2,0,0.002,8,-0.71,-0.72,9.70,42,0.051,8.20
8.2229,-0.04712,-0.01396,0.31416,0.00000,0.00000,0.00000,54,9,31,-8,53,7,67,2,ok,2,0,0.002,8,-0.71,-0.72,9.70,42,0.063,8.20
8.2352,-0.04712,-0.01396,0.31416,0.00000,0.00000,0.00000,54,9,27,-7,54,8,66,2,ok,2,0,0.002,8,-0.71,-0.72,9.70,42,0.076,8.20
8.2578,-0.04712,-0.01396,0.31416,0.00000,0.00000,0.00000,54,9,24,-5,55,8,64,0,ok,2,0,0.002,8,-0.71,-0.72,9.70,42,0.089,8.20
8.2610,-0.04712,-0.01396,0.31416,0.00000,0.00000,0.00000,55,10,21,-3,56,8,64,-2,ok,2,0,0.002,8,-0.71,-0.72,9.70,42,0.102,8.20
8.2737,-0.04712,-0.01396,0.31416,0.00000,0.00000,0.00000,56,10,19,-1,58,6,61,-3,ok,2,0,0.002,8,-0.71,-0.72,9.70,42,0.115,8.20
8.2938,-0.04712,-0.01396,0.31416,0.00000,0.00000,0.00000,56,10,18,0,58,7,59,-4,ok,2,0,0.002,8,-0.71,-0.72,9.70,42,0.127,8.20
8.2989,-0.04712,-0.01396,0.31416,0.00000,0.00000,0.00000,56,11,16,3,59,8,57,-4,ok,2,0,0.002,8,-0.71,-0.72,9.70,42,0.140,8.20
8.3112,-0.04712,-0.01396,0.31416,0.00000,0.00000,0.00000,56,11,15,6,59,8,55,-5,ok,2,0,0.002,8,-0.71,-0.72,9.70,42,0.152,8.20
8.3338,-0.04712,-0.01396,0.31416,0.00000,0.00000,0.00000,56,12,13,9,60,9,53,-6,ok,2,0,0.002,8,-0.71,-0.72,9.70,42,0.165,8.20
8.3370,-0.04712,-0.01396,0.31416,0.00000,0.00000,0.00000,56,12,13,12,60,9,50,-5,ok,2,0,0.002,8,-0.71,-0.72,9.70,42,0.178,8.20
8.3496,-0.04712,-0.01396,0.31416,0.00000,0.00000,0.00000,56,13,14,12,60,9,47,-5,ok,2,0,0.002,8,-0.71,-0.72,9.70,42,0.191,8.20
8.3698,0.03142,0.04538,0.25482,0.00000,0.00000,0.00000,56,13,15,12,61,10,45,-5,ok,2,0,0.002,8,0.96,0.18,8.77,43,0.000,8.20
8.3747,0.03142,0.04538,0.25482,0.00000,0.00000,0.00000,56,14,17,10,61,11,42,-4,ok,2,0,0.002,8,0.96,0.18,8.77,43,0.012,8.20
8.3871,0.03142,0.04538,0.25482,0.00000,0.00000,0.00000,56,15,19,9,61,12,40,-4,ok,2,0,0.002,8,0.96,0.18,8.77,43,0.025,8.20
8.4098,0.03142,0.04538,0.25482,0.00000,0.00000,0.00000,56,16,19,9,61,12,36,-3,ok,2,0,0.002,8,0.96,0.18,8.77,43,0.038,8.20
8.4130,0.03142,0.04538,0.25482,0.00000,0.00000,0.00000,56,17,21,8,62,13,34,-3,ok,2,0,0.002,8,0.96,0.18,8.77,43,0.051,8.20
8.4260,0.03142,0.04538,0.25482,0.00000,0.00000,0.00000,56,18,21,7,62,14,30,-1,ok,2,0,0.002,8,0.96,0.18,8.77,43,0.064,8.20
8.4458,0.03142,0.04538,0.25482,0.00000,0.00000,0.00000,58,19,23,6,63,14,29,0,ok,2,0,0.002,8,0.96,0.18,8.77,43,0.076,8.20
8.4507,0.03142,0.04538,0.25482,0.00000,0.00000,0.00000,58,20,24,5,63,15,27,2,ok,2,0,0.002,8,0.96,0.18,8.77,43,0.089,8.20
8.4632,0.03142,0.04538,0.25482,0.00000,0.00000,0.00000,58,21,24,4,63,16,25,5,ok,2,0,0.002,8,0.96,0.18,8.77,43,0.101,8.20
8.4858,0.03142,0.04538,0.25482,0.00000,0.00000,0.00000,58,22,25,4,63,17,24,7,ok,2,0,0.002,8,0.96,0.18,8.77,43,0.114,8.20
8.4890,0.03142,0.04538,0.25482,0.00000,0.00000,0.00000,58,23,25,3,64,17,23,11,ok,2,0,0.002,8,0.96,0.18,8.77,43,0.127,8.20
8.5017,0.03142,0.04538,0.25482,0.00000,0.00000,0.00000,57,26,27,3,64,19,22,13,ok,2,0,0.002,8,0.96,0.18,8.77,43,0.140,8.20
8.5218,0.03142,0.04538,0.25482,0.00000,0.00000,0.00000,57,26,27,2,64,20,24,12,ok,2,0,0.002,8,0.96,0.18,8.77,43,0.152,8.20
8.5267,0.03142,0.04538,0.25482,0.00000,0.00000,0.00000,58,25,29,2,64,21,25,12,ok,2,0,0.002,8,0.96,0.18,8.77,43,0.165,8.20
8.5391,0.03142,0.04538,0.25482,0.00000,0.00000,0.00000,58,21,30,2,65,22,25,10,ok,2,0,0.002,8,0.96,0.18,8.77,43,0.177,8.20
8.5618,0.03142,0.04538,0.25482,0.00000,0.00000,0.00000,60,18,31,1,64,23,26,9,ok,2,0,0.002,8,0.96,0.18,8.77,43,0.190,8.20
8.5653,-0.08203,0.04363,0.27227,0.00000,0.00000,0.00000,60,13,33,2,64,25,28,10,ok,2,0,0.002,8,0.08,-1.78,10.35,44,0.000,8.20
8.5777,-0.08203,0.04363,0.27227,0.00000,0.00000,0.00000,60,11,34,2,65,25,29,9,ok,2,0,0.002,8,0.08,-1.78,10.35,44,0.013,8.20
8.5978,-0.08203,0.04363,0.27227,0.00000,0.00000,0.00000,60,10,36,2,64,27,31,9,ok,2,0,0.002,8,0.08,-1.78,10.35,44,0.025,8.20
8.6029,-0.08203,0.04363,0.27227,0.00000,0.00000,0.00000,60,7,37,2,64,28,33,9,ok,2,0,0.002,8,0.08,-1.78,10.35,44,0.038,8.20
8.6151,-0.08203,0.04363,0.27227,0.00000,0.00000,0.00000,60,4,39,3,64,30,33,9,ok,2,0,0.002,8,0.08,-1.78,10.35,44,0.050,8.20
8.6378,-0.08203,0.04363,0.27227,0.00000,0.00000,0.00000,60,1,40,3,64,32,35,9,ok,2,0,0.002,8,0.08,-1.78,10.35,44,0.063,8.20
8.6412,-0.08203,0.04363,0.27227,0.00000,0.00000,0.00000,59,-1,41,3,64,34,36,9,ok,2,0,0.002,9,0.08,-1.78,10.35,44,0.076,8.20
8.6537,-0.08203,0.04363,0.27227,0.00000,0.00000,0.00000,58,-3,43,3,64,35,37,9,ok,2,0,0.002,9,0.08,-1.78,10.35,44,0.089,8.20
8.6738,-0.08203,0.04363,0.27227,0.00000,0.00000,0.00000,58,-5,44,3,64,35,38,8,ok,2,0,0.002,9,0.08,-1.78,10.35,44,0.101,8.20
8.6788,-0.08203,0.04363,0.27227,0.00000,0.00000,0.00000,56,-6,44,3,66,35,39,8,ok,2,0,0.002,9,0.08,-1.78,10.35,44,0.114,8.20
8.6912,-0.08203,0.04363,0.27227,0.00000,0.00000,0.00000,56,-7,45,3,68,33,41,7,ok,2,0,0.002,9,0.08,-1.78,10.35,44,0.126,8.20
8.7138,-0.08203,0.04363,0.27227,0.00000,0.00000,0.00000,56,-9,47,3,70,28,42,7,ok,2,0,0.002,9,0.08,-1.78,10.35,44,0.139,8.20
8.7170,-0.08203,0.04363,0.27227,0.00000,0.00000,0.00000,54,-9,48,4,71,24,43,7,ok,2,0,0.002,9,0.08,-1.78,10.35,44,0.152,8.20
8.7299,-0.08203,0.04363,0.27227,0.00000,0.00000,0.00000,54,-10,49,4,73,21,44,7,ok,2,0,0.002,9,0.08,-1.78,10.35,44,0.165,8.20
8.7498,-0.08203,0.04363,0.27227,0.00000,0.00000,0.00000,52,-10,49,4,74,20,45,8,ok,2,0,0.002,9,0.08,-1.78,10.35,44,0.177,8.20
8.7547,-0.08203,0.04363,0.27227,0.00000,0.00000,0.00000,51,-11,49,6,74,18,46,8,ok,2,0,0.002,9,0.08,-1.78,10.35,44,0.190,8.20
8.7672,-0.08203,0.04363,0.27227,0.00000,0.00000,0.00000,50,-11,51,6,74,14,47,8,ok,2,0,0.002,9,0.08,-1.78,10.35,44,0.202,8.20
8.7898,0.07156,0.01745,0.28274,0.00000,0.00000,0.00000,48,-11,52,6,73,11,48,8,ok,2,0,0.002,9,0.59,0.41,10.68,45,0.000,8.20
8.7930,0.07156,0.01745,0.28274,0.00000,0.00000,0.00000,47,-10,53,6,73,10,49,8,ok,2,0,0.002,9,0.59,0.41,10.68,45,0.013,8.20
8.8057,0.07156,0.01745,0.28274,0.00000,0.00000,0.00000,46,-10,53,6,73,7,49,9,ok,2,0,0.002,9,0.59,0.41,10.68,45,0.026,8.20
8.8258,0.07156,0.01745,0.28274,0.00000,0.00000,0.00000,44,-10,55,6,72,5,49,8,ok,2,0,0.002,9,0.59,0.41,10.68,45,0.038,8.20
8.8307,0.07156,0.01745,0.28274,0.00000,0.00000,0.00000,43,-9,56,6,72,4,50,9,ok,2,0,0.002,9,0.59,0.41,10.68,45,0.051,8.20
8.8431,0.07156,0.01745,0.28274,0.00000,0.00000,0.00000,42,-8,57,6,69,1,51,8,ok,2,0,0.002,9,0.59,0.41,10.68,45,0.063,8.20
8.8658,0.07156,0.01745,0.28274,0.00000,0.00000,0.00000,40,-6,57,7,66,2,52,8,ok,2,0,0.002,9,0.59,0.41,10.68,45,0.076,8.20
8.8690,0.07156,0.01745,0.28274,0.00000,0.00000,0.00000,38,-4,58,7,65,-1,52,8,ok,2,0,0.002,9,0.59,0.41,10.68,45,0.089,8.20
8.8817,0.07156,0.01745,0.28274,0.00000,0.00000,0.00000,37,-3,58,7,64,-3,54,8,ok,2,0,0.002,9,0.59,0.41,10.68,45,0.102,8.20
8.9018,0.07156,0.01745,0.28274,0.00000,0.00000,0.00000,35,0,59,8,62,-4,55,8,ok,2,0,0.002,9,0.59,0.41,10.68,45,0.114,8.20
8.9069,0.07156,0.01745,0.28274,0.00000,0.00000,0.00000,35,-1,60,10,60,-5,54,8,ok,2,0,0.002,9,0.59,0.41,10.68,45,0.127,8.20
8.9192,0.07156,0.01745,0.28274,0.00000,0.00000,0.00000,34,0,61,10,59,-6,56,6,ok,2,0,0.002,9,0.59,0.41,10.68,45,0.139,8.20
8.9418,0.07156,0.01745,0.28274,0.00000,0.00000,0.00000,33,2,61,11,56,-6,57,7,ok,2,0,0.002,9,0.59,0.41,10.68,45,0.152,8.20
8.9449,0.07156,0.01745,0.28274,0.00000,0.00000,0.00000,32,5,61,11,54,-7,58,8,ok,2,0,0.002,9,0.59,0.41,10.68,45,0.165,8.20
8.9578,0.07156,0.01745,0.28274,0.00000,0.00000,0.00000,32,8,61,12,51,-6,58,8,ok,2,0,0.002,9,0.59,0.41,10.68,45,0.178,8.20
8.9778,0.07156,0.01745,0.28274,0.00000,0.00000,0.00000,31,10,61,12,48,-6,59,9,ok,2,0,0.002,9,0.59,0.41,10.68,45,0.190,8.20
8.9830,0.01571,0.04363,0.31416,0.00000,0.00000,0.00000,32,11,62,13,46,-6,60,10,ok,2,0,0.002,9,0.82,-0.20,8.35,46,0.000,8.20
8.9951,0.01571,0.04363,0.31416,0.00000,0.00000,0.00000,32,10,61,14,43,-5,60,10,ok,2,0,0.002,9,0.82,-0.20,8.35,46,0.013,8.20
9.0178,0.01571,0.04363,0.31416,0.00000,0.00000,0.00000,33,9,62,14,40,-5,60,11,ok,2,0,0.002,9,0.82,-0.20,8.35,46,0.025,8.20
9.0212,0.01571,0.04363,0.31416,0.00000,0.00000,0.00000,34,8,62,15,37,-4,61,12,ok,2,0,0.002,9,0.82,-0.20,8.35,46,0.038,8.20
9.0337,0.01571,0.04363,0.31416,0.00000,0.00000,0.00000,34,8,62,15,34,-3,61,13,ok,2,0,0.002,9,0.82,-0.20,8.35,46,0.051,8.20
9.0538,0.01571,0.04363,0.31416,0.00000,0.00000,0.00000,35,7,63,16,31,-2,61,13,ok,2,0,0.002,9,0.82,-0.20,8.35,46,0.064,8.20
9.0587,0.01571,0.04363,0.31416,0.00000,0.00000,0.00000,35,6,63,17,30,0,62,14,ok,2,0,0.002,9,0.82,-0.20,8.35,46,0.076,8.20
9.0713,0.01571,0.04363,0.31416,0.00000,0.00000,0.00000,36,5,64,19,28,1,62,15,ok,2,0,0.002,9,0.82,-0.20,8.35,46,0.089,8.20
9.0938,0.01571,0.04363,0.31416,0.00000,0.00000,0.00000,36,4,64,20,25,5,63,15,ok,2,0,0.002,9,0.82,-0.20,8.35,46,0.101,8.20
9.0970,0.01571,0.04363,0.31416,0.00000,0.00000,0.00000,37,4,64,21,24,8,63,16,ok,2,0,0.002,9,0.82,-0.20,8.35,46,0.114,8.20
9.1097,0.01571,0.04363,0.31416,0.00000,0.00000,0.00000,38,3,64,22,23,11,63,18,ok,2,0,0.002,9,0.82,-0.20,8.35,46,0.127,8.20
9.1298,0.01571,0.04363,0.31416,0.00000,0.00000,0.00000,38,3,64,23,22,14,64,18,ok,2,0,0.002,9,0.82,-0.20,8.35,46,0.140,8.20
9.1347,0.01571,0.04363,0.31416,0.00000,0.00000,0.00000,38,3,63,26,24,13,64,19,ok,2,0,0.002,9,0.82,-0.20,8.35,46,0.152,8.20
9.1471,0.01571,0.04363,0.31416,0.00000,0.00000,0.00000,39,2,63,27,24,13,64,19,ok,2,0,0.002,9,0.82,-0.20,8.35,46,0.165,8.20
9.1698,0.01571,0.04363,0.31416,0.00000,0.00000,0.00000,40,2,64,26,26,11,64,21,ok,2,0,0.002,9,0.82,-0.20,8.35,46,0.177,8.20
9.1730,0.01571,0.04363,0.31416,0.00000,0.00000,0.00000,40,1,67,22,27,11,65,21,ok,2,0,0.002,9,0.82,-0.20,8.35,46,0.190,8.20
9.1861,-0.07505,-0.01222,0.24958,0.00000,0.00000,0.00000,41,1,69,19,28,11,65,22,ok,2,0,0.002,9,-1.63,-1.51,9.29,47,0.000,8.20
9.2058,-0.07505,-0.01222,0.24958,0.00000,0.00000,0.00000,42,1,70,15,29,10,65,24,ok,2,0,0.002,9,-1.63,-1.51,9.29,47,0.012,8.20
9.2107,-0.07505,-0.01222,0.24958,0.00000,0.00000,0.00000,42,1,71,13,30,9,65,26,ok,2,0,0.002,9,-1.63,-1.51,9.29,47,0.025,8.20
9.2232,-0.07505,-0.01222,0.24958,0.00000,0.00000,0.00000,44,1,70,12,33,9,66,26,ok,2,0,0.002,9,-1.63,-1.51,9.29,47,0.038,8.20
9.2458,-0.07505,-0.01222,0.24958,0.00000,0.00000,0.00000,44,1,70,9,32,9,65,29,ok,2,0,0.002,9,-1.63,-1.51,9.29,47,0.050,8.20
9.2490,-0.07505,-0.01222,0.24958,0.00000,0.00000,0.00000,45,2,69,6,35,9,64,30,ok,2,0,0.002,9,-1.63,-1.51,9.29,47,0.063,8.20
9.2617,-0.07505,-0.01222,0.24958,0.00000,0.00000,0.00000,46,2,69,3,36,8,65,31,ok,2,0,0.002,9,-1.63,-1.51,9.29,47,0.076,8.20
9.2818,-0.07505,-0.01222,0.24958,0.00000,0.00000,0.00000,46,2,67,1,37,9,64,33,ok,2,0,0.002,9,-1.63,-1.51,9.29,47,0.089,8.20
9.2868,-0.07505,-0.01222,0.24958,0.00000,0.00000,0.00000,47,1,66,-1,38,8,64,35,ok,2,0,0.002,9,-1.63,-1.51,9.29,47,0.101,8.20
9.2993,-0.07505,-0.01222,0.24958,0.00000,0.00000,0.00000,48,2,65,-3,39,8,63,36,ok,2,0,0.002,9,-1.63,-1.51,9.29,47,0.113,8.20
9.3218,-0.07505,-0.01222,0.24958,0.00000,0.00000,0.00000,48,2,62,-4,41,7,64,36,ok,2,0,0.002,9,-1.63,-1.51,9.29,47,0.126,8.20
9.3250,-0.07505,-0.01222,0.24958,0.00000,0.00000,0.00000,48,3,61,-5,42,7,65,35,ok,2,0,0.002,9,-1.63,-1.51,9.29,47,0.139,8.20
9.3378,-0.07505,-0.01222,0.24958,0.00000,0.00000,0.00000,49,3,60,-8,43,7,67,33,ok,2,0,0.002,9,-1.63,-1.51,9.29,47,0.152,8.20
9.3578,-0.07505,-0.01222,0.24958,0.00000,0.00000,0.00000,50,4,58,-8,44,7,69,27,ok,2,0,0.002,9,-1.63,-1.51,9.29,47,0.165,8.20
9.3627,-0.07505,-0.01222,0.24958,0.00000,0.00000,0.00000,50,3,56,-9,44,7,70,24,ok,2,0,0.002,9,-1.63,-1.51,9.29,47,0.177,8.20
9.3752,-0.07505,-0.01222,0.24958,0.00000,0.00000,0.00000,50,3,54,-9,46,7,72,21,ok,2,0,0.002,9,-1.63,-1.51,9.29,47,0.190,8.20
9.3978,-0.07505,-0.01222,0.24958,0.00000,0.00000,0.00000,50,5,51,-10,47,7,72,21,ok,2,0,0.002,9,-1.63,-1.51,9.29,47,0.202,8.20
9.4013,-0.10123,0.03840,0.34034,0.00000,0.00000,0.00000,51,6,49,-10,47,7,72,19,ok,2,0,0.002,9,0.22,-1.10,10.76,48,0.000,8.20
9.4139,-0.10123,0.03840,0.34034,0.00000,0.00000,0.00000,52,6,46,-10,48,7,72,15,ok,2,0,0.002,9,0.22,-1.10,10.76,48,0.013,8.20
9.4338,-0.10123,0.03840,0.34034,0.00000,0.00000,0.00000,52,6,44,-9,49,7,72,12,ok,2,0,0.002,9,0.22,-1.10,10.76,48,0.025,8.20
9.4387,-0.10123,0.03840,0.34034,0.00000,0.00000,0.00000,52,7,42,-10,50,7,71,11,ok,2,0,0.002,9,0.22,-1.10,10.76,48,0.038,8.20
9.4511,-0.10123,0.03840,0.34034,0.00000,0.00000,0.00000,53,7,39,-10,50,7,71,7,ok,2,0,0.002,9,0.22,-1.10,10.76,48,0.050,8.20
9.4738,-0.10123,0.03840,0.34034,0.00000,0.00000,0.00000,54,7,37,-9,52,6,70,6,ok,2,0,0.002,9,0.22,-1.10,10.76,48,0.063,8.20
9.4772,-0.10123,0.03840,0.34034,0.00000,0.00000,0.00000,54,7,33,-8,52,7,70,4,ok,2,0,0.003,9,0.22,-1.10,10.76,48,0.076,8.20
9.4897,-0.10123,0.03840,0.34034,0.00000,0.00000,0.00000,54,8,30,-7,53,7,68,2,ok,2,0,0.003,9,0.22,-1.10,10.76,48,0.089,8.20
9.5098,-0.10123,0.03840,0.34034,0.00000,0.00000,0.00000,54,8,27,-6,54,8,66,2,ok,2,0,0.003,9,0.22,-1.10,10.76,48,0.101,8.20
9.5147,-0.10123,0.03840,0.34034,0.00000,0.00000,0.00000,54,8,24,-4,55,8,65,0,ok,2,0,0.003,9,0.22,-1.10,10.76,48,0.114,8.20
9.5271,-0.10123,0.03840,0.34034,0.00000,0.00000,0.00000,55,9,20,-2,56,8,64,-2,ok,2,0,0.003,9,0.22,-1.10,10.76,48,0.126,8.20
9.5498,-0.10123,0.03840,0.34034,0.00000,0.00000,0.00000,55,10,19,-1,58,6,62,-3,ok,2,0,0.003,9,0.22,-1.10,10.76,48,0.139,8.20
9.5531,-0.10123,0.03840,0.34034,0.00000,0.00000,0.00000,56,9,18,0,58,7,60,-4,ok,2,0,0.003,9,0.22,-1.10,10.76,48,0.152,8.20
9.5657,-0.10123,0.03840,0.34034,0.00000,0.00000,0.00000,56,10,16,3,59,8,58,-5,ok,2,0,0.003,9,0.22,-1.10,10.76,48,0.165,8.20
9.5858,-0.10123,0.03840,0.34034,0.00000,0.00000,0.00000,56,11,14,6,59,8,55,-5,ok,2,0,0.003,9,0.22,-1.10,10.76,48,0.177,8.20
9.5908,-0.10123,0.03840,0.34034,0.00000,0.00000,0.00000,56,12,13,9,60,9,54,-6,ok,2,0,0.003,9,0.22,-1.10,10.76,48,0.190,8.20
9.6035,0.06283,0.06807,0.28798,0.00000,0.00000,0.00000,56,12,12,12,60,9,50,-5,ok,2,0,0.003,9,1.27,0.59,9.63,49,0.000,8.20
9.6258,0.06283,0.06807,0.28798,0.00000,0.00000,0.00000,56,13,14,12,61,10,47,-5,ok,2,0,0.003,9,1.27,0.59,9.63,49,0.013,8.20
9.6290,0.06283,0.06807,0.28798,0.00000,0.00000,0.00000,56,14,15,11,61,11,45,-5,ok,2,0,0.003,9,1.27,0.59,9.63,49,0.026,8.20
9.6419,0.06283,0.06807,0.28798,0.00000,0.00000,0.00000,56,14,16,10,62,11,42,-4,ok,2,0,0.003,9,1.27,0.59,9.63,49,0.039,8.20
9.6618,0.06283,0.06807,0.28798,0.00000,0.00000,0.00000,56,15,18,9,62,12,40,-4,ok,2,0,0.003,9,1.27,0.59,9.63,49,0.051,8.20
9.6667,0.06283,0.06807,0.28798,0.00000,0.00000,0.00000,56,16,19,8,62,13,36,-3,ok,2,0,0.003,10,1.27,0.59,9.63,49,0.064,8.20
9.6792,0.06283,0.06807,0.28798,0.00000,0.00000,0.00000,56,17,21,7,62,13,34,-3,ok,2,0,0.003,10,1.27,0.59,9.63,49,0.076,8.20
9.7018,0.06283,0.06807,0.28798,0.00000,0.00000,0.00000,56,19,21,6,62,14,31,-1,ok,2,0,0.003,10,1.27,0.59,9.63,49,0.089,8.20
9.7052,0.06283,0.06807,0.28798,0.00000,0.00000,0.00000,57,20,22,5,63,14,30,0,ok,2,0,0.003,10,1.27,0.59,9.63,49,0.102,8.20
9.7177,0.06283,0.06807,0.28798,0.00000,0.00000,0.00000,57,21,24,5,63,15,27,1,ok,2,0,0.003,10,1.27,0.59,9.63,49,0.115,8.20
9.7378,0.06283,0.06807,0.28798,0.00000,0.00000,0.00000,58,21,24,4,63,16,25,4,ok,2,0,0.003,10,1.27,0.59,9.63,49,0.127,8.20
9.7427,0.06283,0.06807,0.28798,0.00000,0.00000,0.00000,58,22,25,4,64,17,24,7,ok,2,0,0.003,10,1.27,0.59,9.63,49,0.140,8.20
9.7553,0.06283,0.06807,0.28798,0.00000,0.00000,0.00000,58,22,25,3,64,18,23,11,ok,2,0,0.003,10,1.27,0.59,9.63,49,0.152,8.20
9.7778,0.06283,0.06807,0.28798,0.00000,0.00000,0.00000,57,25,27,3,64,19,22,13,ok,2,0,0.003,10,1.27,0.59,9.63,49,0.165,8.20
9.7809,0.06283,0.06807,0.28798,0.00000,0.00000,0.00000,56,26,27,2,64,20,24,12,ok,2,0,0.003,10,1.27,0.59,9.63,49,0.178,8.20
9.7937,0.06283,0.06807,0.28798,0.00000,0.00000,0.00000,58,25,29,2,64,21,25,11,ok,2,0,0.003,10,1.27,0.59,9.63,49,0.191,8.20
9.8138,-0.05411,0.03491,0.32987,0.00000,0.00000,0.00000,58,21,30,2,65,22,25,10,ok,2,0,0.003,10,1.50,-2.18,10.28,50,0.000,8.20
9.8187,-0.05411,0.03491,0.32987,0.00000,0.00000,0.00000,60,17,31,2,64,23,27,9,ok,2,0,0.003,10,1.50,-2.18,10.28,50,0.012,8.20
9.8311,-0.05411,0.03491,0.32987,0.00000,0.00000,0.00000,60,12,33,2,64,25,28,10,ok,2,0,0.003,10,1.50,-2.18,10.28,50,0.025,8.20
9.8538,-0.05411,0.03491,0.32987,0.00000,0.00000,0.00000,60,10,34,2,65,25,30,9,ok,2,0,0.003,10,1.50,-2.18,10.28,50,0.038,8.20
9.8570,-0.05411,0.03491,0.32987,0.00000,0.00000,0.00000,60,10,36,2,63,27,31,9,ok,2,0,0.003,10,1.50,-2.18,10.28,50,0.051,8.20
9.8699,-0.05411,0.03491,0.32987,0.00000,0.00000,0.00000,60,6,37,2,64,29,33,9,ok,2,0,0.003,10,1.50,-2.18,10.28,50,0.064,8.20
9.8898,-0.05411,0.03491,0.32987,0.00000,0.00000,0.00000,60,4,39,3,64,30,34,9,ok,2,0,0.003,10,1.50,-2.18,10.28,50,0.076,8.20
9.8947,-0.05411,0.03491,0.32987,0.00000,0.00000,0.00000,60,1,40,4,64,32,35,9,ok,2,0,0.003,10,1.50,-2.18,10.28,50,0.089,8.20
9.9071,-0.05411,0.03491,0.32987,0.00000,0.00000,0.00000,59,-1,42,3,64,34,36,8,ok,2,0,0.003,10,1.50,-2.18,10.28,50,0.101,8.20
9.9298,-0.05411,0.03491,0.32987,0.00000,0.00000,0.00000,58,-3,43,3,64,35,37,9,ok,2,0,0.003,10,1.50,-2.18,10.28,50,0.114,8.20
9.9330,-0.05411,0.03491,0.32987,0.00000,0.00000,0.00000,58,-4,44,3,64,35,38,8,ok,2,0,0.003,10,1.50,-2.18,10.28,50,0.127,8.20
9.9457,-0.05411,0.03491,0.32987,0.00000,0.00000,0.00000,56,-5,44,3,66,35,39,8,ok,2,0,0.003,10,1.50,-2.18,10.28,50,0.140,8.20
9.9658,-0.05411,0.03491,0.32987,0.00000,0.00000,0.00000,56,-6,45,3,67,33,41,7,ok,2,0,0.003,10,1.50,-2.18,10.28,50,0.152,8.20
9.9706,-0.05411,0.03491,0.32987,0.00000,0.00000,0.00000,56,-8,47,3,69,28,42,7,ok,2,0,0.003,10,1.50,-2.18,10.28,50,0.165,8.20
9.9831,-0.05411,0.03491,0.32987,0.00000,0.00000,0.00000,54,-9,48,4,71,24,43,7,ok,2,0,0.003,10,1.50,-2.18,10.28,50,0.177,8.20
10.0058,-0.05411,0.03491,0.32987,0.00000,0.00000,0.00000,53,-10,49,4,73,21,44,7,ok,2,0,0.003,10,1.50,-2.18,10.28,50,0.190,8.20
10.0093,-0.05411,0.03491,0.32987,0.00000,0.00000,0.00000,52,-10,50,4,74,20,45,7,ok,2,0,0.003,10,1.50,-2.18,10.28,50,0.203,8.20
10.0220,-0.00873,0.05236,0.38397,0.00000,0.00000,0.00000,51,-11,50,6,74,18,46,7,ok,2,0,0.003,10,-0.02,1.05,10.47,51,0.000,8.20
10.0498,-0.00873,0.05236,0.38397,0.00000,0.00000,0.00000,50,-11,51,6,74,15,47,8,ok,2,0,0.003,10,-0.02,1.05,10.47,51,0.013,8.20
10.0530,-0.00873,0.05236,0.38397,0.00000,0.00000,0.00000,48,-11,52,6,73,12,48,8,ok,2,0,0.003,10,-0.02,1.05,10.47,51,0.031,8.20
10.0658,-0.00873,0.05236,0.38397,0.00000,0.00000,0.00000,47,-10,53,6,73,10,49,8,ok,2,0,0.003,10,-0.02,1.05,10.47,51,0.044,8.20
10.0858,-0.00873,0.05236,0.38397,0.00000,0.00000,0.00000,46,-10,53,7,72,6,49,9,ok,2,0,0.003,10,-0.02,1.05,10.47,51,0.057,8.20
10.0908,-0.00873,0.05236,0.38397,0.00000,0.00000,0.00000,44,-11,55,7,72,5,50,8,ok,2,0,0.003,10,-0.02,1.05,10.47,51,0.069,8.20
10.1036,-0.00873,0.05236,0.38397,0.00000,0.00000,0.00000,43,-10,56,7,71,4,51,9,ok,2,0,0.003,10,-0.02,1.05,10.47,51,0.082,8.14
10.1258,-0.00873,0.05236,0.38397,0.00000,0.00000,0.00000,42,-8,57,7,69,1,52,8,ok,2,0,0.003,10,-0.02,1.05,10.47,51,0.094,8.14
10.1290,-0.00873,0.05236,0.38397,0.00000,0.00000,0.00000,40,-7,57,8,66,1,52,8,ok,2,0,0.003,10,-0.02,1.05,10.47,51,0.107,8.14
10.1417,-0.00873,0.05236,0.38397,0.00000,0.00000,0.00000,38,-6,57,8,65,-1,53,8,ok,2,0,0.003,10,-0.02,1.05,10.47,51,0.120,8.14
10.1618,-0.00873,0.05236,0.38397,0.00000,0.00000,0.00000,37,-4,58,8,64,-3,54,9,ok,2,0,0.003,10,-0.02,1.05,10.47,51,0.133,8.14
10.1666,-0.00873,0.05236,0.38397,0.00000,0.00000,0.00000,35,-2,59,9,62,-4,55,8,ok,2,0,0.003,10,-0.02,1.05,10.47,51,0.145,8.14
10.1793,-0.00873,0.05236,0.38397,0.00000,0.00000,0.00000,34,-2,60,11,61,-5,55,8,ok,2,0,0.003,10,-0.02,1.05,10.47,51,0.158,8.14
10.2018,-0.00873,0.05236,0.38397,0.00000,0.00000,0.00000,34,-1,60,10,59,-6,57,6,ok,2,0,0.003,10,-0.02,1.05,10.47,51,0.170,8.14
10.2050,-0.00873,0.05236,0.38397,0.00000,0.00000,0.00000,33,2,61,11,56,-7,57,7,ok,2,0,0.003,10,-0.02,1.05,10.47,51,0.183,8.14
10.2180,0.02793,-0.00698,0.40143,0.00000,0.00000,0.00000,32,5,61,11,54,-7,58,8,ok,2,0,0.003,10,-0.51,0.84,8.87,52,0.000,8.14
10.2378,0.02793,-0.00698,0.40143,0.00000,0.00000,0.00000,32,8,61,12,51,-6,59,9,ok,2,0,0.003,10,-0.51,0.84,8.87,52,0.013,8.14
10.2426,0.02793,-0.00698,0.40143,0.00000,0.00000,0.00000,31,10,61,11,49,-6,59,9,ok,2,0,0.003,10,-0.51,0.84,8.87,52,0.025,8.14
10.2552,0.02793,-0.00698,0.40143,0.00000,0.00000,0.00000,32,11,61,12,46,-6,60,10,ok,2,0,0.003,10,-0.51,0.84,8.87,52,0.037,8.14
10.2779,0.02793,-0.00698,0.40143,0.00000,0.00000,0.00000,32,11,61,13,43,-5,60,10,ok,2,0,0.003,10,-0.51,0.84,8.87,52,0.050,8.14
10.2811,0.02793,-0.00698,0.40143,0.00000,0.00000,0.00000,33,10,62,13,41,-5,61,11,ok,2,0,0.003,10,-0.51,0.84,8.87,52,0.063,8.14
10.2937,0.02793,-0.00698,0.40143,0.00000,0.00000,0.00000,34,9,62,14,38,-4,61,12,ok,2,0,0.003,10,-0.51,0.84,8.87,52,0.076,8.14
10.3138,0.02793,-0.00698,0.40143,0.00000,0.00000,0.00000,34,9,62,15,35,-3,61,13,ok,2,0,0.003,10,-0.51,0.84,8.87,52,0.089,8.14
10.3187,0.02793,-0.00698,0.40143,0.00000,0.00000,0.00000,35,8,63,15,32,-2,61,13,ok,2,0,0.003,10,-0.51,0.84,8.87,52,0.101,8.14
10.3313,0.02793,-0.00698,0.40143,0.00000,0.00000,0.00000,36,7,63,16,30,0,62,14,ok,2,0,0.003,10,-0.51,0.84,8.87,52,0.114,8.14
10.3538,0.02793,-0.00698,0.40143,0.00000,0.00000,0.00000,36,6,64,18,28,1,62,15,ok,2,0,0.003,10,-0.51,0.84,8.87,52,0.126,8.14
10.3572,0.02793,-0.00698,0.40143,0.00000,0.00000,0.00000,37,5,64,19,26,5,63,15,ok,2,0,0.003,10,-0.51,0.84,8.87,52,0.139,8.14
10.3696,0.02793,-0.00698,0.40143,0.00000,0.00000,0.00000,38,5,64,20,24,8,63,16,ok,2,0,0.003,10,-0.51,0.84,8.87,52,0.152,8.14
10.3898,0.02793,-0.00698,0.40143,0.00000,0.00000,0.00000,38,4,64,21,23,11,63,17,ok,2,0,0.003,10,-0.51,0.84,8.87,52,0.165,8.14
10.3946,0.02793,-0.00698,0.40143,0.00000,0.00000,0.00000,38,4,64,23,22,14,64,18,ok,2,0,0.003,10,-0.51,0.84,8.87,52,0.177,8.14
10.4074,0.02793,-0.00698,0.40143,0.00000,0.00000,0.00000,39,3,63,25,24,13,64,19,ok,2,0,0.003,10,-0.51,0.84,8.87,52,0.190,8.14
10.4298,0.02793,-0.00698,0.40143,0.00000,0.00000,0.00000,40,2,63,27,24,14,64,19,ok,2,0,0.003,10,-0.51,0.84,8.87,52,0.202,8.14
10.4333,-0.04887,0.02618,0.36652,0.00000,0.00000,0.00000,40,2,65,25,25,11,64,21,ok,2,0,0.003,10,0.83,0.24,9.33,53,0.000,8.14
10.4456,-0.04887,0.02618,0.36652,0.00000,0.00000,0.00000,40,1,67,23,26,10,65,21,ok,2,0,0.003,10,0.83,0.24,9.33,53,0.013,8.14
10.4658,-0.04887,0.02618,0.36652,0.00000,0.00000,0.00000,41,1,70,19,27,10,65,23,ok,2,0,0.003,10,0.83,0.24,9.33,53,0.025,8.14
10.4707,-0.04887,0.02618,0.36652,0.00000,0.00000,0.00000,42,1,71,15,28,10,64,24,ok,2,0,0.003,10,0.83,0.24,9.33,53,0.038,8.14
10.4832,-0.04887,0.02618,0.36652,0.00000,0.00000,0.00000,42,1,71,13,30,9,64,26,ok,2,0,0.003,10,0.83,0.24,9.33,53,0.050,8.14
10.5058,-0.04887,0.02618,0.36652,0.00000,0.00000,0.00000,44,1,70,12,32,9,65,27,ok,2,0,0.003,10,0.83,0.24,9.33,53,0.063,8.14
10.5091,-0.04887,0.02618,0.36652,0.00000,0.00000,0.00000,44,1,70,9,33,9,64,29,ok,2,0,0.003,10,0.83,0.24,9.33,53,0.076,8.14
10.5217,-0.04887,0.02618,0.36652,0.00000,0.00000,0.00000,45,2,69,6,35,9,64,30,ok,2,0,0.003,10,0.83,0.24,9.33,53,0.089,8.14
10.5418,-0.04887,0.02618,0.36652,0.00000,0.00000,0.00000,46,2,69,3,36,8,64,31,ok,2,0,0.003,10,0.83,0.24,9.33,53,0.101,8.14
10.5467,-0.04887,0.02618,0.36652,0.00000,0.00000,0.00000,46,2,67,1,37,9,64,33,ok,2,0,0.003,10,0.83,0.24,9.33,53,0.114,8.14
10.5592,-0.04887,0.02618,0.36652,0.00000,0.00000,0.00000,47,1,66,-1,39,8,64,35,ok,2,0,0.003,10,0.83,0.24,9.33,53,0.126,8.14
10.5818,-0.04887,0.02618,0.36652,0.00000,0.00000,0.00000,48,2,64,-3,39,8,63,36,ok,2,0,0.003,10,0.83,0.24,9.33,53,0.139,8.14
10.5851,-0.04887,0.02618,0.36652,0.00000,0.00000,0.00000,48,2,62,-4,41,7,64,36,ok,2,0,0.003,10,0.83,0.24,9.33,53,0.152,8.14
10.5976,-0.04887,0.02618,0.36652,0.00000,0.00000,0.00000,48,3,61,-6,42,7,65,35,ok,2,0,0.003,10,0.83,0.24,9.33,53,0.165,8.14
10.6178,-0.04887,0.02618,0.36652,0.00000,0.00000,0.00000,48,3,60,-8,43,7,67,33,ok,2,0,0.003,10,0.83,0.24,9.33,53,0.177,8.14
10.6228,-0.04887,0.02618,0.36652,0.00000,0.00000,0.00000,50,3,58,-8,44,7,69,27,ok,2,0,0.003,10,0.83,0.24,9.33,53,0.190,8.14
10.6356,-0.09774,0.01047,0.39968,0.00000,0.00000,0.00000,50,3,56,-9,45,7,71,24,ok,2,0,0.003,10,-0.82,-0.71,10.11,54,0.000,8.14
10.6578,-0.09774,0.01047,0.39968,0.00000,0.00000,0.00000,50,3,53,-9,46,7,72,21,ok,2,0,0.003,10,-0.82,-0.71,10.11,54,0.013,8.14
10.6611,-0.09774,0.01047,0.39968,0.00000,0.00000,0.00000,50,5,51,-10,47,7,73,21,ok,2,0,0.003,10,-0.82,-0.71,10.11,54,0.026,8.14
10.6738,-0.09774,0.01047,0.39968,0.00000,0.00000,0.00000,51,6,49,-10,47,7,73,18,ok,2,0,0.003,10,-0.82,-0.71,10.11,54,0.038,8.14
10.6938,-0.09774,0.01047,0.39968,0.00000,0.00000,0.00000,52,5,46,-10,48,7,73,15,ok,2,0,0.003,11,-0.82,-0.71,10.11,54,0.051,8.14
10.6986,-0.09774,0.01047,0.39968,0.00000,0.00000,0.00000,52,6,44,-9,49,7,72,12,ok,2,0,0.003,11,-0.82,-0.71,10.11,54,0.063,8.14
10.7112,-0.09774,0.01047,0.39968,0.00000,0.00000,0.00000,52,7,41,-10,50,7,72,11,ok,2,0,0.003,11,-0.82,-0.71,10.11,54,0.076,8.14
10.7338,-0.09774,0.01047,0.39968,0.00000,0.00000,0.00000,53,7,39,-10,51,7,71,7,ok,2,0,0.003,11,-0.82,-0.71,10.11,54,0.088,8.14
10.7372,-0.09774,0.01047,0.39968,0.00000,0.00000,0.00000,54,7,36,-9,52,6,71,6,ok,2,0,0.003,11,-0.82,-0.71,10.11,54,0.102,8.14
10.7496,-0.09774,0.01047,0.39968,0.00000,0.00000,0.00000,54,7,33,-8,52,7,70,4,ok,2,0,0.003,11,-0.82,-0.71,10.11,54,0.114,8.14
10.7698,-0.09774,0.01047,0.39968,0.00000,0.00000,0.00000,54,8,30,-7,53,7,68,2,ok,2,0,0.003,11,-0.82,-0.71,10.11,54,0.127,8.14
10.7746,-0.09774,0.01047,0.39968,0.00000,0.00000,0.00000,54,8,27,-6,54,8,66,2,ok,2,0,0.003,11,-0.82,-0.71,10.11,54,0.139,8.14
10.7872,-0.09774,0.01047,0.39968,0.00000,0.00000,0.00000,54,9,24,-4,55,8,65,0,ok,2,0,0.003,11,-0.82,-0.71,10.11,54,0.152,8.14
10.8098,-0.09774,0.01047,0.39968,0.00000,0.00000,0.00000,55,10,21,-2,56,8,64,-2,ok,2,0,0.003,11,-0.82,-0.71,10.11,54,0.164,8.14
10.8131,-0.09774,0.01047,0.39968,0.00000,0.00000,0.00000,55,10,19,-1,58,6,62,-3,ok,2,0,0.003,11,-0.82,-0.71,10.11,54,0.178,8.14
10.8259,-0.09774,0.01047,0.39968,0.00000,0.00000,0.00000,56,10,18,0,58,7,60,-4,ok,2,0,0.003,11,-0.82,-0.71,10.11,54,0.190,8.14
10.8458,-0.01222,0.04538,0.34732,0.00000,0.00000,0.00000,56,11,16,3,59,8,58,-4,ok,2,0,0.003,11,-0.27,0.19,9.62,55,0.000,8.14
10.8506,-0.01222,0.04538,0.34732,0.00000,0.00000,0.00000,56,11,15,6,59,8,55,-5,ok,2,0,0.003,11,-0.27,0.19,9.62,55,0.012,8.14
10.8632,-0.01222,0.04538,0.34732,0.00000,0.00000,0.00000,56,12,13,9,60,9,53,-6,ok,2,0,0.003,11,-0.27,0.19,9.62,55,0.025,8.14
10.8858,-0.01222,0.04538,0.34732,0.00000,0.00000,0.00000,56,12,12,11,60,9,50,-5,ok,2,0,0.003,11,-0.27,0.19,9.62,55,0.038,8.14
10.8890,-0.01222,0.04538,0.34732,0.00000,0.00000,0.00000,56,13,14,12,61,10,47,-5,ok,2,0,0.003,11,-0.27,0.19,9.62,55,0.051,8.14
10.9018,-0.01222,0.04538,0.34732,0.00000,0.00000,0.00000,56,14,15,11,61,10,45,-5,ok,2,0,0.003,11,-0.27,0.19,9.62,55,0.064,8.14
10.9218,-0.01222,0.04538,0.34732,0.00000,0.00000,0.00000,56,14,16,10,61,11,42,-4,ok,2,0,0.003,11,-0.27,0.19,9.62,55,0.076,8.14
10.9267,-0.01222,0.04538,0.34732,0.00000,0.00000,0.00000,56,15,18,9,61,12,40,-4,ok,2,0,0.003,11,-0.27,0.19,9.62,55,0.088,8.14
10.9392,-0.01222,0.04538,0.34732,0.00000,0.00000,0.00000,56,16,19,8,61,12,37,-3,ok,2,0,0.003,11,-0.27,0.19,9.62,55,0.101,8.14
10.9618,-0.01222,0.04538,0.34732,0.00000,0.00000,0.00000,56,17,21,7,62,13,35,-3,ok,2,0,0.003,11,-0.27,0.19,9.62,55,0.114,8.14
10.9650,-0.01222,0.04538,0.34732,0.00000,0.00000,0.00000,56,18,21,7,62,14,31,-1,ok,2,0,0.003,11,-0.27,0.19,9.62,55,0.127,8.14
10.9778,-0.01222,0.04538,0.34732,0.00000,0.00000,0.00000,58,19,23,6,63,14,30,0,ok,2,0,0.003,11,-0.27,0.19,9.62,55,0.140,8.14
10.9978,-0.01222,0.04538,0.34732,0.00000,0.00000,0.00000,57,20,24,5,63,15,27,2,ok,2,0,0.003,11,-0.27,0.19,9.62,55,0.152,8.14
11.0026,-0.01222,0.04538,0.34732,0.00000,0.00000,0.00000,58,21,24,5,63,16,25,5,ok,2,0,0.003,11,-0.27,0.19,9.62,55,0.164,8.14
11.0152,-0.01222,0.04538,0.34732,0.00000,0.00000,0.00000,58,22,25,4,64,17,24,7,ok,2,0,0.003,11,-0.27,0.19,9.62,55,0.177,8.14
11.0378,-0.01222,0.04538,0.34732,0.00000,0.00000,0.00000,58,23,26,3,64,17,23,11,ok,2,0,0.003,11,-0.27,0.19,9.62,55,0.190,8.14
11.0413,-0.00873,0.07330,0.35605,0.00000,0.00000,0.00000,57,26,27,3,64,19,22,13,ok,2,0,0.003,11,1.19,-1.11,9.85,56,0.000,8.14
11.0539,-0.00873,0.07330,0.35605,0.00000,0.00000,0.00000,57,26,27,2,64,20,24,12,ok,2,0,0.003,11,1.19,-1.11,9.85,56,0.013,8.14
11.0738,-0.00873,0.07330,0.35605,0.00000,0.00000,0.00000,58,25,29,2,64,21,25,12,ok,2,0,0.003,11,1.19,-1.11,9.85,56,0.025,8.14
11.0786,-0.00873,0.07330,0.35605,0.00000,0.00000,0.00000,58,21,30,2,65,22,25,10,ok,2,0,0.003,11,1.19,-1.11,9.85,56,0.038,8.14
11.0912,-0.00873,0.07330,0.35605,0.00000,0.00000,0.00000,60,18,31,1,64,23,27,9,ok,2,0,0.003,11,1.19,-1.11,9.85,56,0.050,8.14
11.1138,-0.00873,0.07330,0.35605,0.00000,0.00000,0.00000,60,13,32,2,64,25,28,10,ok,2,0,0.003,11,1.19,-1.11,9.85,56,0.063,8.14
11.1170,-0.00873,0.07330,0.35605,0.00000,0.00000,0.00000,60,11,33,2,65,25,29,9,ok,2,0,0.003,11,1.19,-1.11,9.85,56,0.076,8.14
11.1296,-0.00873,0.07330,0.35605,0.00000,0.00000,0.00000,60,11,35,2,64,28,30,9,ok,2,0,0.003,11,1.19,-1.11,9.85,56,0.089,8.14
11.1498,-0.00873,0.07330,0.35605,0.00000,0.00000,0.00000,60,7,36,2,64,29,32,9,ok,2,0,0.003,11,1.19,-1.11,9.85,56,0.101,8.14
11.1546,-0.00873,0.07330,0.35605,0.00000,0.00000,0.00000,60,5,38,3,64,30,33,9,ok,2,0,0.003,11,1.19,-1.11,9.85,56,0.114,8.14
11.1672,-0.00873,0.07330,0.35605,0.00000,0.00000,0.00000,60,2,40,3,64,32,35,9,ok,2,0,0.003,11,1.19,-1.11,9.85,56,0.126,8.14
11.1898,-0.00873,0.07330,0.35605,0.00000,0.00000,0.00000,59,-1,41,3,64,34,36,8,ok,2,0,0.003,11,1.19,-1.11,9.85,56,0.139,8.14
11.1932,-0.00873,0.07330,0.35605,0.00000,0.00000,0.00000,58,-3,42,2,64,35,37,8,ok,2,0,0.003,11,1.19,-1.11,9.85,56,0.152,8.14
11.2056,-0.00873,0.07330,0.35605,0.00000,0.00000,0.00000,58,-4,44,3,64,35,38,8,ok,2,0,0.003,11,1.19,-1.11,9.85,56,0.165,8.14
11.2258,-0.00873,0.07330,0.35605,0.00000,0.00000,0.00000,56,-5,44,3,66,35,39,8,ok,2,0,0.003,11,1.19,-1.11,9.85,56,0.177,8.14
11.2308,-0.00873,0.07330,0.35605,0.00000,0.00000,0.00000,56,-6,45,3,68,33,41,7,ok,2,0,0.003,11,1.19,-1.11,9.85,56,0.190,8.14
11.2436,-0.05236,-0.01222,0.37699,0.00000,0.00000,0.00000,56,-8,46,3,70,28,42,7,ok,2,0,0.003,11,1.38,0.49,8.89,57,0.000,8.14
11.2658,-0.05236,-0.01222,0.37699,0.00000,0.00000,0.00000,54,-9,48,4,72,24,44,7,ok,2,0,0.003,11,1.38,0.49,8.89,57,0.013,8.14
11.2690,-0.05236,-0.01222,0.37699,0.00000,0.00000,0.00000,53,-10,49,4,73,21,44,7,ok,2,0,0.003,11,1.38,0.49,8.89,57,0.026,8.14
11.2818,-0.05236,-0.01222,0.37699,0.00000,0.00000,0.00000,52,-11,49,3,74,21,45,7,ok,2,0,0.003,11,1.38,0.49,8.89,57,0.038,8.14
11.3018,-0.05236,-0.01222,0.37699,0.00000,0.00000,0.00000,51,-12,50,6,74,18,46,7,ok,2,0,0.003,11,1.38,0.49,8.89,57,0.051,8.14
11.3066,-0.05236,-0.01222,0.37699,0.00000,0.00000,0.00000,50,-11,51,6,74,15,47,8,ok,2,0,0.003,11,1.38,0.49,8.89,57,0.063,8.14
11.3192,-0.05236,-0.01222,0.37699,0.00000,0.00000,0.00000,48,-11,52,6,73,12,48,8,ok,2,0,0.003,11,1.38,0.49,8.89,57,0.076,8.14
11.3418,-0.05236,-0.01222,0.37699,0.00000,0.00000,0.00000,48,-11,53,6,73,10,49,8,ok,2,0,0.003,11,1.38,0.49,8.89,57,0.088,8.14
11.3452,-0.05236,-0.01222,0.37699,0.00000,0.00000,0.00000,46,-11,54,7,72,6,50,9,ok,2,0,0.003,11,1.38,0.49,8.89,57,0.102,8.14
11.3577,-0.05236,-0.01222,0.37699,0.00000,0.00000,0.00000,44,-11,56,7,72,5,50,8,ok,2,0,0.003,11,1.38,0.49,8.89,57,0.115,8.14
11.3778,-0.05236,-0.01222,0.37699,0.00000,0.00000,0.00000,44,-10,56,7,71,3,51,9,ok,2,0,0.003,11,1.38,0.49,8.89,57,0.127,8.14
11.3826,-0.05236,-0.01222,0.37699,0.00000,0.00000,0.00000,42,-9,57,7,69,1,52,8,ok,2,0,0.003,11,1.38,0.49,8.89,57,0.139,8.14
11.3952,-0.05236,-0.01222,0.37699,0.00000,0.00000,0.00000,40,-7,57,8,66,1,52,9,ok,2,0,0.003,11,1.38,0.49,8.89,57,0.152,8.14
11.4178,-0.05236,-0.01222,0.37699,0.00000,0.00000,0.00000,38,-6,58,8,65,-1,53,9,ok,2,0,0.003,11,1.38,0.49,8.89,57,0.165,8.14
11.4210,-0.05236,-0.01222,0.37699,0.00000,0.00000,0.00000,37,-4,58,8,63,-3,54,9,ok,2,0,0.003,11,1.38,0.49,8.89,57,0.178,8.14
11.4340,0.01222,0.00349,0.38921,0.00000,0.00000,0.00000,35,-1,59,9,61,-4,55,9,ok,2,0,0.003,11,-0.12,0.17,9.68,58,0.000,8.14
11.4538,0.01222,0.00349,0.38921,0.00000,0.00000,0.00000,35,-1,60,11,60,-5,54,8,ok,2,0,0.003,11,-0.12,0.17,9.68,58,0.013,8.14
11.4591,0.01222,0.00349,0.38921,0.00000,0.00000,0.00000,34,0,61,10,59,-6,56,6,ok,2,0,0.003,11,-0.12,0.17,9.68,58,0.025,8.14
11.4713,0.01222,0.00349,0.38921,0.00000,0.00000,0.00000,33,2,61,11,56,-6,57,7,ok,2,0,0.003,11,-0.12,0.17,9.68,58,0.038,8.14
11.4938,0.01222,0.00349,0.38921,0.00000,0.00000,0.00000,32,6,61,11,54,-7,57,8,ok,2,0,0.003,11,-0.12,0.17,9.68,58,0.050,8.14
11.4970,0.01222,0.00349,0.38921,0.00000,0.00000,0.00000,32,9,61,12,51,-6,58,9,ok,2,0,0.003,11,-0.12,0.17,9.68,58,0.063,8.14
11.5099,0.01222,0.00349,0.38921,0.00000,0.00000,0.00000,32,11,61,11,48,-6,58,9,ok,2,0,0.003,11,-0.12,0.17,9.68,58,0.076,8.14
11.5298,0.01222,0.00349,0.38921,0.00000,0.00000,0.00000,32,12,62,12,46,-6,60,10,ok,2,0,0.003,11,-0.12,0.17,9.68,58,0.089,8.14
11.5346,0.01222,0.00349,0.38921,0.00000,0.00000,0.00000,32,11,61,13,43,-5,59,10,ok,2,0,0.003,11,-0.12,0.17,9.68,58,0.101,8.14
11.5472,0.01222,0.00349,0.38921,0.00000,0.00000,0.00000,33,10,62,14,40,-5,60,11,ok,2,0,0.003,11,-0.12,0.17,9.68,58,0.114,8.14
11.5698,0.01222,0.00349,0.38921,0.00000,0.00000,0.00000,34,9,62,14,37,-4,60,12,ok,2,0,0.003,11,-0.12,0.17,9.68,58,0.126,8.14
11.5732,0.01222,0.00349,0.38921,0.00000,0.00000,0.00000,34,9,62,15,35,-3,61,13,ok,2,0,0.003,11,-0.12,0.17,9.68,58,0.139,8.14
11.5856,0.01222,0.00349,0.38921,0.00000,0.00000,0.00000,35,7,63,15,32,-2,61,13,ok,2,0,0.003,11,-0.12,0.17,9.68,58,0.152,8.14
11.6058,0.01222,0.00349,0.38921,0.00000,0.00000,0.00000,36,7,63,17,30,0,62,14,ok,2,0,0.003,11,-0.12,0.17,9.68,58,0.165,8.14
11.6106,0.01222,0.00349,0.38921,0.00000,0.00000,0.00000,36,6,64,18,28,1,62,15,ok,2,0,0.003,11,-0.12,0.17,9.68,58,0.177,8.14
11.6232,0.01222,0.00349,0.38921,0.00000,0.00000,0.00000,37,5,64,19,25,4,63,15,ok,2,0,0.003,11,-0.12,0.17,9.68,58,0.190,8.14
11.6458,0.01222,0.00349,0.38921,0.00000,0.00000,0.00000,38,5,64,20,24,8,63,16,ok,2,0,0.003,11,-0.12,0.17,9.68,58,0.202,8.14
11.6494,-0.15010,-0.01396,0.39095,0.00000,0.00000,0.00000,38,4,64,22,23,11,63,18,ok,2,0,0.003,11,-0.66,-1.32,9.76,59,0.000,8.14
11.6617,-0.15010,-0.01396,0.39095,0.00000,0.00000,0.00000,38,3,64,23,22,13,64,18,ok,2,0,0.003,11,-0.66,-1.32,9.76,59,0.013,8.14
11.6818,-0.15010,-0.01396,0.39095,0.00000,0.00000,0.00000,39,3,63,26,24,13,65,19,ok,2,0,0.003,11,-0.66,-1.32,9.76,59,0.025,8.14
11.6866,-0.15010,-0.01396,0.39095,0.00000,0.00000,0.00000,40,2,63,27,24,13,65,20,ok,2,0,0.003,11,-0.66,-1.32,9.76,59,0.038,8.14
11.6992,-0.15010,-0.01396,0.39095,0.00000,0.00000,0.00000,40,1,64,26,25,11,65,21,ok,2,0,0.003,12,-0.66,-1.32,9.76,59,0.050,8.14
11.7218,-0.15010,-0.01396,0.39095,0.00000,0.00000,0.00000,40,0,67,23,26,10,65,22,ok,2,0,0.003,12,-0.66,-1.32,9.76,59,0.063,8.14
11.7252,-0.15010,-0.01396,0.39095,0.00000,0.00000,0.00000,41,0,69,20,27,10,65,23,ok,2,0,0.003,12,-0.66,-1.32,9.76,59,0.076,8.14
11.7376,-0.15010,-0.01396,0.39095,0.00000,0.00000,0.00000,42,0,71,16,29,10,65,24,ok,2,0,0.003,12,-0.66,-1.32,9.76,59,0.089,8.14
11.7578,-0.15010,-0.01396,0.39095,0.00000,0.00000,0.00000,42,0,71,14,30,9,65,26,ok,2,0,0.003,12,-0.66,-1.32,9.76,59,0.101,8.14
11.7626,-0.15010,-0.01396,0.39095,0.00000,0.00000,0.00000,44,0,71,13,32,9,65,27,ok,2,0,0.003,12,-0.66,-1.32,9.76,59,0.114,8.14
11.7752,-0.15010,-0.01396,0.39095,0.00000,0.00000,0.00000,44,1,71,9,33,9,64,29,ok,2,0,0.003,12,-0.66,-1.32,9.76,59,0.126,8.14
11.7978,-0.15010,-0.01396,0.39095,0.00000,0.00000,0.00000,45,2,70,6,35,8,64,31,ok,2,0,0.003,12,-0.66,-1.32,9.76,59,0.139,8.14
11.8012,-0.15010,-0.01396,0.39095,0.00000,0.00000,0.00000,46,3,69,3,36,8,64,32,ok,2,0,0.003,12,-0.66,-1.32,9.76,59,0.152,8.14
11.8137,-0.15010,-0.01396,0.39095,0.00000,0.00000,0.00000,46,3,67,0,37,8,64,33,ok,2,0,0.003,12,-0.66,-1.32,9.76,59,0.165,8.14
11.8338,-0.15010,-0.01396,0.39095,0.00000,0.00000,0.00000,47,2,66,-2,39,7,64,35,ok,2,0,0.003,12,-0.66,-1.32,9.76,59,0.177,8.14
11.8389,-0.15010,-0.01396,0.39095,0.00000,0.00000,0.00000,48,3,65,-3,39,7,63,36,ok,2,0,0.003,12,-0.66,-1.32,9.76,59,0.190,8.14
11.8515,-0.12392,0.04538,0.41888,0.00000,0.00000,0.00000,48,3,62,-4,41,6,64,36,ok,2,0,0.003,12,0.82,-1.37,8.72,60,0.000,8.14
11.8738,-0.12392,0.04538,0.41888,0.00000,0.00000,0.00000,48,3,61,-6,42,6,65,35,ok,2,0,0.003,12,0.82,-1.37,8.72,60,0.012,8.14
11.8770,-0.12392,0.04538,0.41888,0.00000,0.00000,0.00000,49,3,60,-8,43,6,67,33,ok,2,0,0.003,12,0.82,-1.37,8.72,60,0.026,8.14
11.8896,-0.12392,0.04538,0.41888,0.00000,0.00000,0.00000,50,4,58,-8,44,7,69,28,ok,2,0,0.003,12,0.82,-1.37,8.72,60,0.038,8.14
11.9098,-0.12392,0.04538,0.41888,0.00000,0.00000,0.00000,50,3,55,-9,45,7,70,24,ok,2,0,0.003,12,0.82,-1.37,8.72,60,0.051,8.14
11.9146,-0.12392,0.04538,0.41888,0.00000,0.00000,0.00000,50,3,53,-9,46,7,72,21,ok,2,0,0.003,12,0.82,-1.37,8.72,60,0.063,8.14
11.9272,-0.12392,0.04538,0.41888,0.00000,0.00000,0.00000,50,5,51,-10,47,7,72,21,ok,2,0,0.003,12,0.82,-1.37,8.72,60,0.076,8.14
11.9498,-0.12392,0.04538,0.41888,0.00000,0.00000,0.00000,51,6,48,-10,48,7,72,19,ok,2,0,0.003,12,0.82,-1.37,8.72,60,0.088,8.14
11.9530,-0.12392,0.04538,0.41888,0.00000,0.00000,0.00000,52,6,46,-10,49,7,72,15,ok,2,0,0.003,12,0.82,-1.37,8.72,60,0.102,8.14
11.9657,-0.12392,0.04538,0.41888,0.00000,0.00000,0.00000,52,6,44,-10,49,7,72,12,ok,2,0,0.003,12,0.82,-1.37,8.72,60,0.115,8.14
11.9858,-0.12392,0.04538,0.41888,0.00000,0.00000,0.00000,52,7,41,-10,50,7,71,11,ok,2,0,0.003,12,0.82,-1.37,8.72,60,0.127,8.14
11.9908,-0.12392,0.04538,0.41888,0.00000,0.00000,0.00000,53,7,39,-10,51,7,71,7,ok,2,0,0.003,12,0.82,-1.37,8.72,60,0.139,8.14
12.0032,-0.12392,0.04538,0.41888,0.00000,0.00000,0.00000,53,7,36,-9,52,6,71,6,ok,2,0,0.003,12,0.82,-1.37,8.72,60,0.152,8.14
12.0258,-0.12392,0.04538,0.41888,0.00000,0.00000,0.00000,54,7,33,-9,52,7,70,4,ok,2,0,0.003,12,0.82,-1.37,8.72,60,0.165,8.14
12.0290,-0.12392,0.04538,0.41888,0.00000,0.00000,0.00000,54,8,30,-7,53,7,68,2,ok,2,0,0.003,12,0.82,-1.37,8.72,60,0.178,8.14
12.0417,-0.12392,0.04538,0.41888,0.00000,0.00000,0.00000,54,8,27,-6,54,8,66,2,ok,2,0,0.003,12,0.82,-1.37,8.72,60,0.190,8.14
12.0618,0.00873,0.01396,0.39619,0.00000,0.00000,0.00000,54,9,24,-4,55,8,65,0,ok,2,0,0.003,12,1.14,0.63,10.85,61,0.000,8.14
12.0668,0.00873,0.01396,0.39619,0.00000,0.00000,0.00000,55,10,20,-3,56,8,64,-2,ok,2,0,0.003,12,1.14,0.63,10.85,61,0.012,8.14
12.0792,0.00873,0.01396,0.39619,0.00000,0.00000,0.00000,55,10,19,-1,58,6,61,-3,ok,2,0,0.003,12,1.14,0.63,10.85,61,0.025,8.14
12.1018,0.00873,0.01396,0.39619,0.00000,0.00000,0.00000,56,10,18,0,59,7,59,-4,ok,2,0,0.003,12,1.14,0.63,10.85,61,0.038,8.14
12.1050,0.00873,0.01396,0.39619,0.00000,0.00000,0.00000,56,11,16,2,59,8,57,-4,ok,2,0,0.003,12,1.14,0.63,10.85,61,0.051,8.14
12.1178,0.00873,0.01396,0.39619,0.00000,0.00000,0.00000,56,12,15,5,60,8,55,-5,ok,2,0,0.003,12,1.14,0.63,10.85,61,0.064,8.14
12.1378,0.00873,0.01396,0.39619,0.00000,0.00000,0.00000,56,13,13,8,60,9,53,-6,ok,2,0,0.003,12,1.14,0.63,10.85,61,0.076,8.14
12.1426,0.00873,0.01396,0.39619,0.00000,0.00000,0.00000,56,13,13,11,60,9,50,-5,ok,2,0,0.003,12,1.14,0.63,10.85,61,0.089,8.14
12.1552,0.00873,0.01396,0.39619,0.00000,0.00000,0.00000,56,14,14,11,60,9,47,-5,ok,2,0,0.003,12,1.14,0.63,10.85,61,0.101,8.14
12.1778,0.00873,0.01396,0.39619,0.00000,0.00000,0.00000,56,14,15,11,61,10,45,-5,ok,2,0,0.003,12,1.14,0.63,10.85,61,0.114,8.14
12.1810,0.00873,0.01396,0.39619,0.00000,0.00000,0.00000,56,14,17,10,61,11,42,-4,ok,2,0,0.003,12,1.14,0.63,10.85,61,0.127,8.14
12.1936,0.00873,0.01396,0.39619,0.00000,0.00000,0.00000,56,15,19,9,61,12,40,-4,ok,2,0,0.003,12,1.14,0.63,10.85,61,0.140,8.14
12.2138,0.00873,0.01396,0.39619,0.00000,0.00000,0.00000,56,15,19,9,61,12,37,-3,ok,2,0,0.003,12,1.14,0.63,10.85,61,0.152,8.14
12.2186,0.00873,0.01396,0.39619,0.00000,0.00000,0.00000,56,16,21,8,62,13,35,-3,ok,2,0,0.003,12,1.14,0.63,10.85,61,0.164,8.14
12.2312,0.00873,0.01396,0.39619,0.00000,0.00000,0.00000,56,17,21,7,62,14,31,-1,ok,2,0,0.003,12,1.14,0.63,10.85,61,0.177,8.14
12.2538,0.00873,0.01396,0.39619,0.00000,0.00000,0.00000,58,18,23,6,63,14,30,0,ok,2,0,0.003,12,1.14,0.63,10.85,61,0.189,8.14
12.2573,-0.00175,0.01222,0.38223,0.00000,0.00000,0.00000,58,20,24,5,63,15,27,2,ok,2,0,0.003,12,-0.47,-0.11,9.99,62,0.000,8.14
12.2698,-0.00175,0.01222,0.38223,0.00000,0.00000,0.00000,58,21,24,5,63,16,25,5,ok,2,0,0.003,12,-0.47,-0.11,9.99,62,0.013,8.14
