# run_gait log  cmd_fwd=0.100 hz=80.0 fw_balance=off policy_yaw_sign=-1
t,roll,pitch,yaw,gx,gy,gz,j0,j1,j2,j3,j4,j5,j6,j7,guard_state,hottest_j,hottest_tier,hottest_frac,duty_s,ax,ay,az,imu_n,imu_age_s,volt
0.0403,-0.01920,0.01222,0.00000,0.00000,0.00000,0.00000,36,0,57,10,60,-3,54,8,ok,3,0,0.000,0,0.10,-0.20,10.00,9,0.029,nan
0.0459,-0.01920,0.01222,0.00000,0.00000,0.00000,0.00000,34,1,59,10,59,-4,56,6,ok,2,0,0.000,0,0.10,-0.20,10.00,9,0.054,nan
0.0591,-0.01920,0.01222,0.00000,0.00000,0.00000,0.00000,34,4,59,11,56,-5,56,8,ok,4,0,0.000,0,0.10,-0.20,10.00,9,0.067,8.24
0.0802,-0.01920,0.01222,0.00000,0.00000,0.00000,0.00000,33,6,60,12,55,-6,57,8,ok,4,0,0.000,0,0.10,-0.20,10.00,9,0.079,8.24
0.0842,-0.01920,0.01222,0.00000,0.00000,0.00000,0.00000,32,10,59,13,52,-5,57,9,ok,4,0,0.000,0,0.10,-0.20,10.00,9,0.094,8.24
0.0967,-0.01920,0.01222,0.00000,0.00000,0.00000,0.00000,31,12,60,13,50,-5,58,10,ok,4,0,0.000,0,0.10,-0.20,10.00,9,0.106,8.24
0.1202,-0.01920,0.01222,0.00000,0.00000,0.00000,0.00000,32,13,60,14,47,-5,59,11,ok,4,0,0.000,0,0.10,-0.20,10.00,9,0.119,8.24
0.1243,-0.01920,0.01222,0.00000,0.00000,0.00000,0.00000,32,13,60,15,44,-4,59,11,ok,4,0,0.000,0,0.10,-0.20,10.00,9,0.134,8.24
0.1367,-0.01920,0.01222,0.00000,0.00000,0.00000,0.00000,33,12,61,15,42,-4,60,12,ok,4,0,0.000,0,0.10,-0.20,10.00,9,0.146,8.24
0.1602,-0.01920,0.01222,0.00000,0.00000,0.00000,0.00000,34,11,61,16,39,-3,60,12,ok,4,0,0.000,0,0.10,-0.20,10.00,9,0.159,8.24
0.1645,-0.01920,0.01222,0.00000,0.00000,0.00000,0.00000,34,11,61,17,36,-2,61,13,ok,4,0,0.000,0,0.10,-0.20,10.00,9,0.174,8.24
0.1765,-0.02967,-0.09250,-0.00175,0.00000,0.00000,0.00000,34,9,61,18,32,-1,61,14,ok,4,0,0.000,0,-0.97,0.24,8.94,10,0.000,8.24
0.1961,-0.02967,-0.09250,-0.00175,0.00000,0.00000,0.00000,35,9,61,18,30,1,62,15,ok,4,0,0.000,0,-0.97,0.24,8.94,10,0.012,8.24
0.2012,-0.02967,-0.09250,-0.00175,0.00000,0.00000,0.00000,36,8,62,19,28,2,62,16,ok,4,0,0.000,0,-0.97,0.24,8.94,10,0.025,8.24
0.2136,-0.02967,-0.09250,-0.00175,0.00000,0.00000,0.00000,36,7,63,21,25,5,63,16,ok,4,0,0.000,0,-0.97,0.24,8.94,10,0.037,8.24
0.2361,-0.02967,-0.09250,-0.00175,0.00000,0.00000,0.00000,37,7,63,21,23,8,64,17,ok,4,0,0.000,0,-0.97,0.24,8.94,10,0.050,8.24
0.2393,-0.02967,-0.09250,-0.00175,0.00000,0.00000,0.00000,38,6,63,22,22,11,64,18,ok,4,0,0.000,0,-0.97,0.24,8.94,10,0.063,8.24
0.2521,-0.02967,-0.09250,-0.00175,0.00000,0.00000,0.00000,38,6,62,23,21,14,64,18,ok,4,0,0.000,0,-0.97,0.24,8.94,10,0.076,8.24
0.2721,-0.02967,-0.09250,-0.00175,0.00000,0.00000,0.00000,39,6,62,26,22,14,65,19,ok,4,0,0.000,0,-0.97,0.24,8.94,10,0.088,8.24
0.2769,-0.02967,-0.09250,-0.00175,0.00000,0.00000,0.00000,40,5,62,28,22,14,65,20,ok,4,0,0.000,0,-0.97,0.24,8.94,10,0.101,8.24
0.2894,-0.02967,-0.09250,-0.00175,0.00000,0.00000,0.00000,40,5,64,26,23,12,65,21,ok,4,0,0.000,0,-0.97,0.24,8.94,10,0.113,8.24
0.3121,-0.02967,-0.09250,-0.00175,0.00000,0.00000,0.00000,40,4,66,23,25,11,65,23,ok,4,0,0.000,0,-0.97,0.24,8.94,10,0.126,8.24
0.3152,-0.02967,-0.09250,-0.00175,0.00000,0.00000,0.00000,42,4,69,19,26,11,65,24,ok,4,0,0.000,0,-0.97,0.24,8.94,10,0.139,8.24
0.3281,-0.02967,-0.09250,-0.00175,0.00000,0.00000,0.00000,42,4,70,16,27,11,65,25,ok,4,0,0.000,0,-0.97,0.24,8.94,10,0.152,8.24
0.3481,-0.02967,-0.09250,-0.00175,0.00000,0.00000,0.00000,43,4,71,14,28,10,65,27,ok,4,0,0.000,0,-0.97,0.24,8.94,10,0.164,8.24
0.3529,-0.02967,-0.09250,-0.00175,0.00000,0.00000,0.00000,44,3,71,13,30,10,65,28,ok,4,0,0.000,0,-0.97,0.24,8.94,10,0.177,8.24
0.3656,-0.02967,-0.09250,-0.00175,0.00000,0.00000,0.00000,44,3,71,10,30,10,64,30,ok,4,0,0.000,0,-0.97,0.24,8.94,10,0.189,8.24
0.3881,-0.02967,-0.09250,-0.00175,0.00000,0.00000,0.00000,45,4,71,7,32,10,64,31,ok,4,0,0.000,0,-0.97,0.24,8.94,10,0.202,8.24
0.3916,-0.16232,0.00524,0.03665,0.00000,0.00000,0.00000,46,4,70,4,34,9,65,32,ok,4,0,0.000,0,0.69,-1.80,10.39,11,0.000,8.24
0.4039,-0.16232,0.00524,0.03665,0.00000,0.00000,0.00000,46,3,69,2,35,8,65,33,ok,4,0,0.000,0,0.69,-1.80,10.39,11,0.013,8.24
0.4241,-0.16232,0.00524,0.03665,0.00000,0.00000,0.00000,47,3,68,0,36,7,64,35,ok,4,0,0.000,0,0.69,-1.80,10.39,11,0.025,8.24
0.4290,-0.16232,0.00524,0.03665,0.00000,0.00000,0.00000,48,3,67,-1,37,7,64,36,ok,4,0,0.000,0,0.69,-1.80,10.39,11,0.038,8.24
0.4414,-0.16232,0.00524,0.03665,0.00000,0.00000,0.00000,48,2,64,-2,39,6,65,36,ok,4,0,0.000,0,0.69,-1.80,10.39,11,0.050,8.24
0.4641,-0.16232,0.00524,0.03665,0.00000,0.00000,0.00000,48,3,62,-4,41,6,66,35,ok,4,0,0.000,0,0.69,-1.80,10.39,11,0.063,8.24
0.4673,-0.16232,0.00524,0.03665,0.00000,0.00000,0.00000,49,3,61,-6,42,6,68,32,ok,4,0,0.000,0,0.69,-1.80,10.39,11,0.076,8.24
0.4801,-0.16232,0.00524,0.03665,0.00000,0.00000,0.00000,50,3,59,-7,44,6,70,27,ok,4,0,0.000,0,0.69,-1.80,10.39,11,0.089,8.24
0.5001,-0.16232,0.00524,0.03665,0.00000,0.00000,0.00000,50,3,56,-8,44,6,71,24,ok,4,0,0.000,0,0.69,-1.80,10.39,11,0.101,8.24
0.5049,-0.16232,0.00524,0.03665,0.00000,0.00000,0.00000,51,3,54,-9,46,6,73,21,ok,4,0,0.000,0,0.69,-1.80,10.39,11,0.114,8.24
0.5174,-0.16232,0.00524,0.03665,0.00000,0.00000,0.00000,51,5,52,-10,47,6,73,20,ok,4,0,0.000,0,0.69,-1.80,10.39,11,0.126,8.24
0.5401,-0.16232,0.00524,0.03665,0.00000,0.00000,0.00000,52,6,49,-10,48,7,73,17,ok,4,0,0.000,1,0.69,-1.80,10.39,11,0.139,8.24
0.5434,-0.16232,0.00524,0.03665,0.00000,0.00000,0.00000,52,6,47,-10,49,7,73,14,ok,4,0,0.000,1,0.69,-1.80,10.39,11,0.152,8.24
0.5559,-0.16232,0.00524,0.03665,0.00000,0.00000,0.00000,52,6,45,-10,50,7,73,11,ok,4,0,0.000,1,0.69,-1.80,10.39,11,0.165,8.24
0.5763,-0.16232,0.00524,0.03665,0.00000,0.00000,0.00000,52,7,42,-10,51,7,72,10,ok,4,0,0.000,1,0.69,-1.80,10.39,11,0.177,8.24
0.5815,-0.04712,-0.02967,0.01745,0.00000,0.00000,0.00000,54,7,39,-11,52,7,72,6,ok,4,0,0.000,1,0.35,0.22,11.37,12,0.000,8.24
0.5935,-0.04712,-0.02967,0.01745,0.00000,0.00000,0.00000,54,7,37,-10,53,6,71,4,ok,4,0,0.000,1,0.35,0.22,11.37,12,0.012,8.24
0.6161,-0.04712,-0.02967,0.01745,0.00000,0.00000,0.00000,54,7,33,-9,53,7,70,3,ok,4,0,0.000,1,0.35,0.22,11.37,12,0.025,8.24
0.6192,-0.04712,-0.02967,0.01745,0.00000,0.00000,0.00000,54,8,31,-8,54,8,68,1,ok,4,0,0.000,1,0.35,0.22,11.37,12,0.038,8.24
0.6319,-0.04712,-0.02967,0.01745,0.00000,0.00000,0.00000,54,9,27,-7,55,8,66,0,ok,4,0,0.000,1,0.35,0.22,11.37,12,0.051,8.24
0.6521,-0.04712,-0.02967,0.01745,0.00000,0.00000,0.00000,55,10,25,-5,55,8,65,-2,ok,2,0,0.000,1,0.35,0.22,11.37,12,0.063,8.24
0.6569,-0.04712,-0.02967,0.01745,0.00000,0.00000,0.00000,56,11,21,-3,56,8,64,-3,ok,2,0,0.000,1,0.35,0.22,11.37,12,0.076,8.24
0.6695,-0.04712,-0.02967,0.01745,0.00000,0.00000,0.00000,56,11,19,-2,58,6,62,-5,ok,2,0,0.000,1,0.35,0.22,11.37,12,0.089,8.24
0.6921,-0.04712,-0.02967,0.01745,0.00000,0.00000,0.00000,56,11,18,0,58,8,60,-5,ok,2,0,0.000,1,0.35,0.22,11.37,12,0.101,8.24
0.6953,-0.04712,-0.02967,0.01745,0.00000,0.00000,0.00000,56,12,16,2,59,9,58,-6,ok,2,0,0.000,1,0.35,0.22,11.37,12,0.114,8.24
0.7079,-0.04712,-0.02967,0.01745,0.00000,0.00000,0.00000,56,11,14,6,59,9,55,-6,ok,2,0,0.000,1,0.35,0.22,11.37,12,0.127,8.24
0.7281,-0.04712,-0.02967,0.01745,0.00000,0.00000,0.00000,56,12,13,9,59,10,53,-7,ok,2,0,0.000,1,0.35,0.22,11.37,12,0.139,8.24
0.7331,-0.04712,-0.02967,0.01745,0.00000,0.00000,0.00000,56,12,12,12,60,10,50,-6,ok,2,0,0.000,1,0.35,0.22,11.37,12,0.152,8.24
0.7454,-0.04712,-0.02967,0.01745,0.00000,0.00000,0.00000,56,13,14,12,60,10,47,-6,ok,2,0,0.000,1,0.35,0.22,11.37,12,0.164,8.24
0.7681,-0.04712,-0.02967,0.01745,0.00000,0.00000,0.00000,56,14,15,11,60,11,45,-6,ok,2,0,0.000,1,0.35,0.22,11.37,12,0.177,8.24
0.7713,-0.04712,-0.02967,0.01745,0.00000,0.00000,0.00000,56,14,16,10,61,11,42,-5,ok,2,0,0.000,1,0.35,0.22,11.37,12,0.190,8.24
0.7841,-0.04712,-0.02967,0.01745,0.00000,0.00000,0.00000,56,15,19,9,61,12,40,-5,ok,2,0,0.000,1,0.35,0.22,11.37,12,0.203,8.24
0.8041,-0.06981,0.05760,-0.00698,0.00000,0.00000,0.00000,56,15,19,9,61,13,37,-3,ok,2,0,0.000,1,1.22,-1.13,11.15,13,0.000,8.24
0.8091,-0.06981,0.05760,-0.00698,0.00000,0.00000,0.00000,57,16,21,8,61,13,35,-3,ok,2,0,0.000,1,1.22,-1.13,11.15,13,0.012,8.24
0.8215,-0.06981,0.05760,-0.00698,0.00000,0.00000,0.00000,57,17,22,7,61,14,31,-1,ok,2,0,0.000,1,1.22,-1.13,11.15,13,0.025,8.24
0.8441,-0.06981,0.05760,-0.00698,0.00000,0.00000,0.00000,58,19,23,6,62,14,30,0,ok,2,0,0.000,1,1.22,-1.13,11.15,13,0.037,8.24
0.8473,-0.06981,0.05760,-0.00698,0.00000,0.00000,0.00000,58,20,24,5,62,15,27,1,ok,2,0,0.000,1,1.22,-1.13,11.15,13,0.051,8.24
0.8599,-0.06981,0.05760,-0.00698,0.00000,0.00000,0.00000,58,21,24,5,62,16,25,5,ok,2,0,0.000,1,1.22,-1.13,11.15,13,0.063,8.24
0.8801,-0.06981,0.05760,-0.00698,0.00000,0.00000,0.00000,58,22,25,4,63,17,24,7,ok,2,0,0.000,1,1.22,-1.13,11.15,13,0.076,8.24
0.8849,-0.06981,0.05760,-0.00698,0.00000,0.00000,0.00000,58,22,26,3,64,17,23,11,ok,2,0,0.000,1,1.22,-1.13,11.15,13,0.088,8.24
0.8976,-0.06981,0.05760,-0.00698,0.00000,0.00000,0.00000,57,25,27,3,64,19,23,13,ok,2,0,0.000,1,1.22,-1.13,11.15,13,0.101,8.24
0.9201,-0.06981,0.05760,-0.00698,0.00000,0.00000,0.00000,57,26,27,2,64,20,25,12,ok,2,0,0.000,1,1.22,-1.13,11.15,13,0.113,8.24
0.9232,-0.06981,0.05760,-0.00698,0.00000,0.00000,0.00000,58,25,29,2,64,21,25,12,ok,2,0,0.000,1,1.22,-1.13,11.15,13,0.127,8.24
0.9358,-0.06981,0.05760,-0.00698,0.00000,0.00000,0.00000,58,21,30,2,65,22,26,10,ok,2,0,0.000,1,1.22,-1.13,11.15,13,0.139,8.24
0.9561,-0.06981,0.05760,-0.00698,0.00000,0.00000,0.00000,60,18,31,1,64,23,27,9,ok,2,0,0.000,1,1.22,-1.13,11.15,13,0.152,8.24
0.9608,-0.06981,0.05760,-0.00698,0.00000,0.00000,0.00000,60,13,32,2,64,25,28,10,ok,2,0,0.000,1,1.22,-1.13,11.15,13,0.164,8.24
0.9736,-0.06981,0.05760,-0.00698,0.00000,0.00000,0.00000,60,11,34,2,65,25,29,9,ok,2,0,0.000,1,1.22,-1.13,11.15,13,0.177,8.24
0.9961,-0.06981,0.05760,-0.00698,0.00000,0.00000,0.00000,60,11,35,2,64,28,31,9,ok,2,0,0.000,1,1.22,-1.13,11.15,13,0.189,8.24
0.9996,-0.11519,0.04538,0.04887,0.00000,0.00000,0.00000,60,7,36,2,64,29,33,9,ok,2,0,0.000,1,-0.36,0.20,9.56,14,0.000,8.24
1.0119,-0.11519,0.04538,0.04887,0.00000,0.00000,0.00000,60,5,38,3,64,30,33,9,ok,2,0,0.000,1,-0.36,0.20,9.56,14,0.013,8.24
1.0321,-0.11519,0.04538,0.04887,0.00000,0.00000,0.00000,60,2,40,3,64,32,35,8,ok,2,0,0.000,1,-0.36,0.20,9.56,14,0.025,8.24
1.0371,-0.11519,0.04538,0.04887,0.00000,0.00000,0.00000,59,-1,41,3,64,33,36,8,ok,2,0,0.000,1,-0.36,0.20,9.56,14,0.038,8.24
1.0494,-0.11519,0.04538,0.04887,0.00000,0.00000,0.00000,58,-3,42,2,63,35,37,8,ok,2,0,0.000,1,-0.36,0.20,9.56,14,0.050,8.24
1.0721,-0.11519,0.04538,0.04887,0.00000,0.00000,0.00000,58,-4,44,3,64,35,38,8,ok,2,0,0.000,1,-0.36,0.20,9.56,14,0.063,8.24
1.0753,-0.11519,0.04538,0.04887,0.00000,0.00000,0.00000,56,-5,44,3,65,35,40,8,ok,2,0,0.000,1,-0.36,0.20,9.56,14,0.076,8.24
1.0879,-0.11519,0.04538,0.04887,0.00000,0.00000,0.00000,56,-6,45,3,67,33,41,7,ok,2,0,0.000,1,-0.36,0.20,9.56,14,0.089,8.24
1.1081,-0.11519,0.04538,0.04887,0.00000,0.00000,0.00000,56,-8,46,3,69,28,42,7,ok,2,0,0.000,1,-0.36,0.20,9.56,14,0.101,8.24
1.1130,-0.11519,0.04538,0.04887,0.00000,0.00000,0.00000,54,-9,48,4,71,24,44,7,ok,2,0,0.000,1,-0.36,0.20,9.56,14,0.114,8.24
1.1255,-0.11519,0.04538,0.04887,0.00000,0.00000,0.00000,53,-10,49,4,73,21,44,7,ok,2,0,0.000,1,-0.36,0.20,9.56,14,0.126,8.24
1.1481,-0.11519,0.04538,0.04887,0.00000,0.00000,0.00000,52,-10,49,4,74,20,45,7,ok,2,0,0.000,1,-0.36,0.20,9.56,14,0.139,8.24
1.1512,-0.11519,0.04538,0.04887,0.00000,0.00000,0.00000,51,-11,49,6,74,18,46,7,ok,2,0,0.000,1,-0.36,0.20,9.56,14,0.152,8.24
1.1638,-0.11519,0.04538,0.04887,0.00000,0.00000,0.00000,50,-11,51,6,74,14,47,8,ok,2,0,0.000,1,-0.36,0.20,9.56,14,0.165,8.24
1.1842,-0.11519,0.04538,0.04887,0.00000,0.00000,0.00000,48,-11,52,6,73,11,48,8,ok,2,0,0.000,1,-0.36,0.20,9.56,14,0.177,8.24
1.1896,-0.00698,0.02443,0.05411,0.00000,0.00000,0.00000,47,-10,53,6,73,10,49,8,ok,2,0,0.000,1,-0.35,-0.60,10.62,15,0.000,8.24
1.2017,-0.00698,0.02443,0.05411,0.00000,0.00000,0.00000,46,-10,53,7,72,7,49,9,ok,2,0,0.000,1,-0.35,-0.60,10.62,15,0.013,8.24
1.2242,-0.00698,0.02443,0.05411,0.00000,0.00000,0.00000,44,-11,55,6,72,5,50,8,ok,2,0,0.000,1,-0.35,-0.60,10.62,15,0.025,8.24
1.2277,-0.00698,0.02443,0.05411,0.00000,0.00000,0.00000,43,-9,56,6,71,4,51,9,ok,2,0,0.000,1,-0.35,-0.60,10.62,15,0.039,8.24
1.2403,-0.00698,0.02443,0.05411,0.00000,0.00000,0.00000,42,-8,57,6,69,1,52,8,ok,2,0,0.000,1,-0.35,-0.60,10.62,15,0.051,8.24
1.2602,-0.00698,0.02443,0.05411,0.00000,0.00000,0.00000,40,-6,57,7,67,2,52,8,ok,2,0,0.000,1,-0.35,-0.60,10.62,15,0.064,8.24
1.2651,-0.00698,0.02443,0.05411,0.00000,0.00000,0.00000,38,-5,57,7,65,-1,53,8,ok,2,0,0.000,1,-0.35,-0.60,10.62,15,0.076,8.24
1.2779,-0.00698,0.02443,0.05411,0.00000,0.00000,0.00000,37,-3,58,7,64,-2,54,9,ok,2,0,0.000,1,-0.35,-0.60,10.62,15,0.089,8.24
1.3001,-0.00698,0.02443,0.05411,0.00000,0.00000,0.00000,35,-1,59,8,61,-4,55,8,ok,2,0,0.000,1,-0.35,-0.60,10.62,15,0.101,8.24
1.3033,-0.00698,0.02443,0.05411,0.00000,0.00000,0.00000,34,0,60,10,60,-5,55,8,ok,2,0,0.000,1,-0.35,-0.60,10.62,15,0.114,8.24
1.3159,-0.00698,0.02443,0.05411,0.00000,0.00000,0.00000,34,1,60,10,58,-5,57,6,ok,2,0,0.000,1,-0.35,-0.60,10.62,15,0.127,8.24
1.3361,-0.00698,0.02443,0.05411,0.00000,0.00000,0.00000,33,2,61,11,56,-6,57,7,ok,2,0,0.000,1,-0.35,-0.60,10.62,15,0.140,8.24
1.3409,-0.00698,0.02443,0.05411,0.00000,0.00000,0.00000,32,5,61,11,54,-7,58,8,ok,2,0,0.000,1,-0.35,-0.60,10.62,15,0.152,8.24
1.3537,-0.00698,0.02443,0.05411,0.00000,0.00000,0.00000,32,8,61,12,51,-6,59,8,ok,2,0,0.000,1,-0.35,-0.60,10.62,15,0.165,8.24
1.3761,-0.00698,0.02443,0.05411,0.00000,0.00000,0.00000,31,11,61,12,48,-6,59,9,ok,2,0,0.000,1,-0.35,-0.60,10.62,15,0.177,8.24
1.3793,-0.00698,0.02443,0.05411,0.00000,0.00000,0.00000,32,11,61,13,46,-6,60,10,ok,2,0,0.000,1,-0.35,-0.60,10.62,15,0.190,8.24
1.3922,-0.05061,0.01571,0.09948,0.00000,0.00000,0.00000,32,11,61,13,43,-5,60,10,ok,4,0,0.000,1,0.87,-0.30,11.03,16,0.000,8.24
1.4121,-0.05061,0.01571,0.09948,0.00000,0.00000,0.00000,33,9,62,14,40,-5,61,11,ok,4,0,0.000,1,0.87,-0.30,11.03,16,0.013,8.24
1.4169,-0.05061,0.01571,0.09948,0.00000,0.00000,0.00000,34,9,62,15,37,-4,61,11,ok,4,0,0.000,1,0.87,-0.30,11.03,16,0.025,8.24
1.4296,-0.05061,0.01571,0.09948,0.00000,0.00000,0.00000,34,8,62,15,34,-3,62,13,ok,4,0,0.000,1,0.87,-0.30,11.03,16,0.038,8.24
1.4521,-0.05061,0.01571,0.09948,0.00000,0.00000,0.00000,35,7,62,16,31,-2,62,13,ok,4,0,0.000,1,0.87,-0.30,11.03,16,0.050,8.24
1.4552,-0.05061,0.01571,0.09948,0.00000,0.00000,0.00000,36,7,62,17,29,0,62,14,ok,4,0,0.000,1,0.87,-0.30,11.03,16,0.063,8.24
1.4679,-0.05061,0.01571,0.09948,0.00000,0.00000,0.00000,36,6,64,18,28,1,63,15,ok,4,0,0.000,1,0.87,-0.30,11.03,16,0.076,8.24
1.4921,-0.05061,0.01571,0.09948,0.00000,0.00000,0.00000,37,5,64,19,25,4,64,15,ok,4,0,0.000,1,0.87,-0.30,11.03,16,0.089,8.24
1.4954,-0.05061,0.01571,0.09948,0.00000,0.00000,0.00000,37,4,64,21,24,7,63,16,ok,4,0,0.000,1,0.87,-0.30,11.03,16,0.103,8.24
1.5079,-0.05061,0.01571,0.09948,0.00000,0.00000,0.00000,38,4,64,22,23,11,63,18,ok,4,0,0.000,1,0.87,-0.30,11.03,16,0.116,8.24
1.5281,-0.05061,0.01571,0.09948,0.00000,0.00000,0.00000,38,3,64,23,22,14,64,18,ok,4,0,0.000,1,0.87,-0.30,11.03,16,0.129,8.24
1.5330,-0.05061,0.01571,0.09948,0.00000,0.00000,0.00000,39,3,63,26,24,13,64,19,ok,4,0,0.000,1,0.87,-0.30,11.03,16,0.141,8.24
1.5454,-0.05061,0.01571,0.09948,0.00000,0.00000,0.00000,40,3,63,27,24,13,64,20,ok,4,0,0.000,1,0.87,-0.30,11.03,16,0.153,8.24
1.5681,-0.05061,0.01571,0.09948,0.00000,0.00000,0.00000,40,2,64,25,25,11,64,21,ok,4,0,0.000,2,0.87,-0.30,11.03,16,0.166,8.24
1.5712,-0.05061,0.01571,0.09948,0.00000,0.00000,0.00000,40,2,67,22,27,10,65,21,ok,4,0,0.000,2,0.87,-0.30,11.03,16,0.179,8.24
1.5842,-0.05061,0.01571,0.09948,0.00000,0.00000,0.00000,41,1,69,19,28,10,65,22,ok,4,0,0.000,2,0.87,-0.30,11.03,16,0.192,8.24
1.6041,-0.10996,-0.02269,0.10297,0.00000,0.00000,0.00000,42,1,70,15,29,10,64,24,ok,4,0,0.000,2,-0.61,-1.01,8.86,17,0.000,8.24
1.6089,-0.10996,-0.02269,0.10297,0.00000,0.00000,0.00000,42,1,71,12,30,9,65,26,ok,4,0,0.000,2,-0.61,-1.01,8.86,17,0.012,8.24
1.6214,-0.10996,-0.02269,0.10297,0.00000,0.00000,0.00000,44,2,70,12,33,9,65,26,ok,4,0,0.000,2,-0.61,-1.01,8.86,17,0.025,8.24
1.6441,-0.10996,-0.02269,0.10297,0.00000,0.00000,0.00000,44,1,70,8,33,9,64,29,ok,4,0,0.000,2,-0.61,-1.01,8.86,17,0.037,8.24
1.6473,-0.10996,-0.02269,0.10297,0.00000,0.00000,0.00000,45,2,69,6,35,9,64,30,ok,4,0,0.000,2,-0.61,-1.01,8.86,17,0.051,8.24
1.6601,-0.10996,-0.02269,0.10297,0.00000,0.00000,0.00000,46,2,69,3,36,8,64,31,ok,4,0,0.000,2,-0.61,-1.01,8.86,17,0.064,8.24
1.6801,-0.10996,-0.02269,0.10297,0.00000,0.00000,0.00000,46,2,68,0,37,9,64,33,ok,4,0,0.000,2,-0.61,-1.01,8.86,17,0.076,8.24
1.6849,-0.10996,-0.02269,0.10297,0.00000,0.00000,0.00000,47,2,66,-1,38,8,64,35,ok,4,0,0.000,2,-0.61,-1.01,8.86,17,0.089,8.24
1.6974,-0.10996,-0.02269,0.10297,0.00000,0.00000,0.00000,48,2,65,-3,39,8,63,36,ok,4,0,0.000,2,-0.61,-1.01,8.86,17,0.101,8.24
1.7201,-0.10996,-0.02269,0.10297,0.00000,0.00000,0.00000,48,2,62,-4,41,7,64,36,ok,4,0,0.000,2,-0.61,-1.01,8.86,17,0.114,8.24
1.7232,-0.10996,-0.02269,0.10297,0.00000,0.00000,0.00000,48,3,61,-6,42,7,65,35,ok,4,0,0.000,2,-0.61,-1.01,8.86,17,0.127,8.24
1.7359,-0.10996,-0.02269,0.10297,0.00000,0.00000,0.00000,49,3,60,-8,43,7,67,33,ok,4,0,0.001,2,-0.61,-1.01,8.86,17,0.140,8.24
1.7561,-0.10996,-0.02269,0.10297,0.00000,0.00000,0.00000,50,4,58,-8,44,7,69,27,ok,4,0,0.001,2,-0.61,-1.01,8.86,17,0.152,8.24
1.7609,-0.10996,-0.02269,0.10297,0.00000,0.00000,0.00000,50,4,56,-9,44,7,70,24,ok,4,0,0.001,2,-0.61,-1.01,8.86,17,0.164,8.24
1.7735,-0.10996,-0.02269,0.10297,0.00000,0.00000,0.00000,50,3,54,-9,46,7,72,21,ok,4,0,0.001,2,-0.61,-1.01,8.86,17,0.177,8.24
1.7961,-0.10996,-0.02269,0.10297,0.00000,0.00000,0.00000,50,6,51,-10,47,7,72,21,ok,4,0,0.001,2,-0.61,-1.01,8.86,17,0.189,8.24
1.7996,-0.05760,0.03491,0.12566,0.00000,0.00000,0.00000,51,6,49,-10,47,7,72,19,ok,4,0,0.001,2,-0.82,-0.10,10.48,18,0.000,8.24
1.8119,-0.05760,0.03491,0.12566,0.00000,0.00000,0.00000,52,6,46,-10,48,7,72,15,ok,4,0,0.001,2,-0.82,-0.10,10.48,18,0.013,8.24
1.8321,-0.05760,0.03491,0.12566,0.00000,0.00000,0.00000,52,7,44,-10,49,7,71,12,ok,4,0,0.001,2,-0.82,-0.10,10.48,18,0.025,8.24
1.8371,-0.05760,0.03491,0.12566,0.00000,0.00000,0.00000,52,7,42,-10,50,7,71,11,ok,4,0,0.001,2,-0.82,-0.10,10.48,18,0.038,8.24
1.8494,-0.05760,0.03491,0.12566,0.00000,0.00000,0.00000,54,8,39,-10,51,7,70,7,ok,4,0,0.001,2,-0.82,-0.10,10.48,18,0.050,8.24
1.8721,-0.05760,0.03491,0.12566,0.00000,0.00000,0.00000,54,8,37,-10,52,6,70,6,ok,4,0,0.001,2,-0.82,-0.10,10.48,18,0.063,8.24
1.8752,-0.05760,0.03491,0.12566,0.00000,0.00000,0.00000,54,8,33,-9,52,7,69,4,ok,2,0,0.001,2,-0.82,-0.10,10.48,18,0.076,8.24
1.8879,-0.05760,0.03491,0.12566,0.00000,0.00000,0.00000,54,8,30,-8,53,7,67,2,ok,2,0,0.001,2,-0.82,-0.10,10.48,18,0.089,8.24
1.9081,-0.05760,0.03491,0.12566,0.00000,0.00000,0.00000,54,8,27,-6,54,8,66,2,ok,2,0,0.001,2,-0.82,-0.10,10.48,18,0.101,8.24
1.9131,-0.05760,0.03491,0.12566,0.00000,0.00000,0.00000,54,9,24,-5,55,8,65,0,ok,2,0,0.001,2,-0.82,-0.10,10.48,18,0.114,8.24
1.9254,-0.05760,0.03491,0.12566,0.00000,0.00000,0.00000,55,10,20,-2,56,8,64,-2,ok,2,0,0.001,2,-0.82,-0.10,10.48,18,0.126,8.24
1.9481,-0.05760,0.03491,0.12566,0.00000,0.00000,0.00000,55,10,19,-1,58,6,62,-3,ok,2,0,0.001,2,-0.82,-0.10,10.48,18,0.139,8.24
1.9512,-0.05760,0.03491,0.12566,0.00000,0.00000,0.00000,56,9,18,0,58,7,60,-4,ok,2,0,0.001,2,-0.82,-0.10,10.48,18,0.152,8.24
1.9641,-0.05760,0.03491,0.12566,0.00000,0.00000,0.00000,56,10,16,3,59,8,58,-5,ok,2,0,0.001,2,-0.82,-0.10,10.48,18,0.165,8.24
1.9841,-0.05760,0.03491,0.12566,0.00000,0.00000,0.00000,56,11,15,6,59,8,55,-6,ok,2,0,0.001,2,-0.82,-0.10,10.48,18,0.177,8.24
1.9889,-0.05760,0.03491,0.12566,0.00000,0.00000,0.00000,56,12,13,9,59,9,53,-6,ok,2,0,0.001,2,-0.82,-0.10,10.48,18,0.190,8.24
2.0017,0.02443,0.05061,0.09076,0.00000,0.00000,0.00000,56,12,12,11,60,9,50,-5,ok,2,0,0.001,2,0.22,-0.11,10.34,19,0.000,8.24
2.0241,0.02443,0.05061,0.09076,0.00000,0.00000,0.00000,56,13,14,12,60,10,47,-5,ok,2,0,0.001,2,0.22,-0.11,10.34,19,0.013,8.24
2.0272,0.02443,0.05061,0.09076,0.00000,0.00000,0.00000,56,13,15,11,61,11,45,-5,ok,2,0,0.001,2,0.22,-0.11,10.34,19,0.026,8.24
2.0399,0.02443,0.05061,0.09076,0.00000,0.00000,0.00000,56,14,16,10,61,11,42,-4,ok,2,0,0.001,2,0.22,-0.11,10.34,19,0.039,8.24
2.0601,0.02443,0.05061,0.09076,0.00000,0.00000,0.00000,56,15,18,9,62,12,40,-4,ok,2,0,0.001,2,0.22,-0.11,10.34,19,0.051,8.24
2.0649,0.02443,0.05061,0.09076,0.00000,0.00000,0.00000,56,16,19,8,62,13,37,-3,ok,2,0,0.001,2,0.22,-0.11,10.34,19,0.064,8.24
2.0774,0.02443,0.05061,0.09076,0.00000,0.00000,0.00000,56,17,21,7,62,13,34,-3,ok,2,0,0.001,2,0.22,-0.11,10.34,19,0.076,8.24
2.1001,0.02443,0.05061,0.09076,0.00000,0.00000,0.00000,56,18,21,7,62,14,31,-1,ok,2,0,0.001,2,0.22,-0.11,10.34,19,0.089,8.24
2.1033,0.02443,0.05061,0.09076,0.00000,0.00000,0.00000,57,19,23,6,63,14,30,0,ok,2,0,0.001,2,0.22,-0.11,10.34,19,0.102,8.24
2.1162,0.02443,0.05061,0.09076,0.00000,0.00000,0.00000,57,20,24,5,63,15,27,1,ok,2,0,0.001,2,0.22,-0.11,10.34,19,0.115,8.24
2.1361,0.02443,0.05061,0.09076,0.00000,0.00000,0.00000,58,21,24,4,63,16,25,5,ok,2,0,0.001,2,0.22,-0.11,10.34,19,0.127,8.24
2.1409,0.02443,0.05061,0.09076,0.00000,0.00000,0.00000,58,22,25,4,63,17,24,7,ok,2,0,0.001,2,0.22,-0.11,10.34,19,0.140,8.24
2.1534,0.02443,0.05061,0.09076,0.00000,0.00000,0.00000,58,23,25,3,64,18,23,11,ok,2,0,0.001,2,0.22,-0.11,10.34,19,0.152,8.24
2.1761,0.02443,0.05061,0.09076,0.00000,0.00000,0.00000,57,25,27,3,64,19,22,13,ok,2,0,0.001,2,0.22,-0.11,10.34,19,0.165,8.24
2.1793,0.02443,0.05061,0.09076,0.00000,0.00000,0.00000,57,26,28,2,64,20,24,12,ok,2,0,0.001,2,0.22,-0.11,10.34,19,0.178,8.24
2.1921,0.02443,0.05061,0.09076,0.00000,0.00000,0.00000,58,25,29,2,64,21,25,12,ok,2,0,0.001,2,0.22,-0.11,10.34,19,0.191,8.24
2.2121,-0.06458,0.04887,0.11868,0.00000,0.00000,0.00000,58,21,30,2,65,22,25,10,ok,2,0,0.001,2,0.62,-1.76,10.17,20,0.000,8.24
2.2170,-0.06458,0.04887,0.11868,0.00000,0.00000,0.00000,60,17,31,1,64,23,27,9,ok,2,0,0.001,2,0.62,-1.76,10.17,20,0.013,8.24
2.2295,-0.06458,0.04887,0.11868,0.00000,0.00000,0.00000,60,13,33,2,64,25,28,10,ok,2,0,0.001,2,0.62,-1.76,10.17,20,0.025,8.24
2.2521,-0.06458,0.04887,0.11868,0.00000,0.00000,0.00000,60,11,34,2,65,25,29,9,ok,2,0,0.001,2,0.62,-1.76,10.17,20,0.038,8.24
2.2552,-0.06458,0.04887,0.11868,0.00000,0.00000,0.00000,60,10,35,2,64,27,31,9,ok,2,0,0.001,2,0.62,-1.76,10.17,20,0.051,8.24
2.2679,-0.06458,0.04887,0.11868,0.00000,0.00000,0.00000,60,7,37,2,64,29,33,9,ok,2,0,0.001,2,0.62,-1.76,10.17,20,0.063,8.24
2.2881,-0.06458,0.04887,0.11868,0.00000,0.00000,0.00000,60,4,39,3,64,30,33,9,ok,2,0,0.001,2,0.62,-1.76,10.17,20,0.076,8.24
2.2929,-0.06458,0.04887,0.11868,0.00000,0.00000,0.00000,60,1,40,3,64,32,35,9,ok,2,0,0.001,2,0.62,-1.76,10.17,20,0.088,8.24
2.3054,-0.06458,0.04887,0.11868,0.00000,0.00000,0.00000,59,-1,41,3,64,34,36,9,ok,2,0,0.001,2,0.62,-1.76,10.17,20,0.101,8.24
2.3281,-0.06458,0.04887,0.11868,0.00000,0.00000,0.00000,58,-3,43,3,64,35,37,9,ok,2,0,0.001,2,0.62,-1.76,10.17,20,0.113,8.24
2.3313,-0.06458,0.04887,0.11868,0.00000,0.00000,0.00000,58,-4,44,3,64,35,38,8,ok,2,0,0.001,2,0.62,-1.76,10.17,20,0.127,8.24
2.3440,-0.06458,0.04887,0.11868,0.00000,0.00000,0.00000,56,-5,44,3,66,35,39,8,ok,2,0,0.001,2,0.62,-1.76,10.17,20,0.139,8.24
2.3641,-0.06458,0.04887,0.11868,0.00000,0.00000,0.00000,56,-6,45,3,67,33,41,7,ok,2,0,0.001,2,0.62,-1.76,10.17,20,0.152,8.24
2.3689,-0.06458,0.04887,0.11868,0.00000,0.00000,0.00000,56,-8,46,3,69,28,42,7,ok,2,0,0.001,2,0.62,-1.76,10.17,20,0.164,8.24
2.3814,-0.06458,0.04887,0.11868,0.00000,0.00000,0.00000,54,-9,48,4,71,24,43,7,ok,2,0,0.001,2,0.62,-1.76,10.17,20,0.177,8.24
2.4041,-0.06458,0.04887,0.11868,0.00000,0.00000,0.00000,54,-10,49,4,73,21,44,7,ok,2,0,0.001,2,0.62,-1.76,10.17,20,0.189,8.24
2.4076,0.00175,0.03491,0.13090,0.00000,0.00000,0.00000,52,-10,49,4,74,20,45,7,ok,2,0,0.001,2,-0.66,0.21,8.97,21,0.000,8.24
2.4200,0.00175,0.03491,0.13090,0.00000,0.00000,0.00000,51,-11,49,5,74,18,46,7,ok,2,0,0.001,2,-0.66,0.21,8.97,21,0.013,8.24
2.4401,0.00175,0.03491,0.13090,0.00000,0.00000,0.00000,50,-11,51,6,74,15,47,8,ok,2,0,0.001,2,-0.66,0.21,8.97,21,0.025,8.24
2.4450,0.00175,0.03491,0.13090,0.00000,0.00000,0.00000,48,-11,52,6,74,12,48,8,ok,2,0,0.001,2,-0.66,0.21,8.97,21,0.038,8.24
2.4576,0.00175,0.03491,0.13090,0.00000,0.00000,0.00000,47,-10,53,6,73,10,49,8,ok,2,0,0.001,2,-0.66,0.21,8.97,21,0.050,8.24
2.4801,0.00175,0.03491,0.13090,0.00000,0.00000,0.00000,46,-10,53,7,72,7,49,9,ok,2,0,0.001,2,-0.66,0.21,8.97,21,0.063,8.24
2.4832,0.00175,0.03491,0.13090,0.00000,0.00000,0.00000,44,-10,55,7,72,5,50,8,ok,2,0,0.001,2,-0.66,0.21,8.97,21,0.076,8.24
2.4960,0.00175,0.03491,0.13090,0.00000,0.00000,0.00000,43,-9,56,6,71,4,51,9,ok,2,0,0.001,2,-0.66,0.21,8.97,21,0.089,8.24
2.5161,0.00175,0.03491,0.13090,0.00000,0.00000,0.00000,42,-8,57,7,69,1,52,7,ok,2,0,0.001,2,-0.66,0.21,8.97,21,0.101,8.24
2.5209,0.00175,0.03491,0.13090,0.00000,0.00000,0.00000,40,-7,57,8,66,1,52,8,ok,2,0,0.001,2,-0.66,0.21,8.97,21,0.114,8.24
2.5334,0.00175,0.03491,0.13090,0.00000,0.00000,0.00000,38,-6,57,7,65,-1,53,8,ok,2,0,0.001,2,-0.66,0.21,8.97,21,0.126,8.24
2.5561,0.00175,0.03491,0.13090,0.00000,0.00000,0.00000,37,-4,58,8,64,-2,54,9,ok,2,0,0.001,2,-0.66,0.21,8.97,21,0.139,8.24
2.5593,0.00175,0.03491,0.13090,0.00000,0.00000,0.00000,35,-2,59,9,62,-4,55,8,ok,2,0,0.001,3,-0.66,0.21,8.97,21,0.152,8.24
2.5719,0.00175,0.03491,0.13090,0.00000,0.00000,0.00000,34,-2,60,11,61,-5,55,8,ok,2,0,0.001,3,-0.66,0.21,8.97,21,0.165,8.24
2.5921,0.00175,0.03491,0.13090,0.00000,0.00000,0.00000,34,-1,60,10,59,-6,57,6,ok,2,0,0.001,3,-0.66,0.21,8.97,21,0.177,8.24
2.5971,0.00175,0.03491,0.13090,0.00000,0.00000,0.00000,33,2,61,11,56,-6,57,7,ok,2,0,0.001,3,-0.66,0.21,8.97,21,0.190,8.24
2.6097,0.00175,0.03491,0.13090,0.00000,0.00000,0.00000,32,5,61,11,54,-7,58,8,ok,2,0,0.001,3,-0.66,0.21,8.97,21,0.202,8.24
2.6321,0.04538,-0.02967,0.15882,0.00000,0.00000,0.00000,32,8,61,12,51,-6,58,9,ok,2,0,0.001,3,0.62,-0.30,9.98,22,0.000,8.24
2.6352,0.04538,-0.02967,0.15882,0.00000,0.00000,0.00000,31,10,61,11,48,-6,59,9,ok,2,0,0.001,3,0.62,-0.30,9.98,22,0.013,8.24
2.6482,0.04538,-0.02967,0.15882,0.00000,0.00000,0.00000,32,11,61,12,46,-5,60,10,ok,2,0,0.001,3,0.62,-0.30,9.98,22,0.026,8.24
2.6681,0.04538,-0.02967,0.15882,0.00000,0.00000,0.00000,32,11,61,13,43,-5,60,10,ok,2,0,0.001,3,0.62,-0.30,9.98,22,0.039,8.24
2.6729,0.04538,-0.02967,0.15882,0.00000,0.00000,0.00000,33,10,62,13,41,-4,60,11,ok,2,0,0.001,3,0.62,-0.30,9.98,22,0.051,8.24
2.6854,0.04538,-0.02967,0.15882,0.00000,0.00000,0.00000,34,9,62,14,38,-3,61,11,ok,2,0,0.001,3,0.62,-0.30,9.98,22,0.064,8.24
2.7081,0.04538,-0.02967,0.15882,0.00000,0.00000,0.00000,34,9,63,15,35,-3,61,13,ok,2,0,0.001,3,0.62,-0.30,9.98,22,0.076,8.24
2.7112,0.04538,-0.02967,0.15882,0.00000,0.00000,0.00000,35,8,63,15,31,-2,61,13,ok,4,0,0.001,3,0.62,-0.30,9.98,22,0.089,8.24
2.7242,0.04538,-0.02967,0.15882,0.00000,0.00000,0.00000,36,8,63,16,29,0,62,14,ok,4,0,0.001,3,0.62,-0.30,9.98,22,0.102,8.24
2.7441,0.04538,-0.02967,0.15882,0.00000,0.00000,0.00000,36,7,64,18,28,1,62,15,ok,4,0,0.001,3,0.62,-0.30,9.98,22,0.115,8.24
2.7490,0.04538,-0.02967,0.15882,0.00000,0.00000,0.00000,37,6,64,19,25,5,63,15,ok,4,0,0.001,3,0.62,-0.30,9.98,22,0.127,8.24
2.7615,0.04538,-0.02967,0.15882,0.00000,0.00000,0.00000,38,5,64,20,24,8,63,16,ok,4,0,0.001,3,0.62,-0.30,9.98,22,0.140,8.24
2.7841,0.04538,-0.02967,0.15882,0.00000,0.00000,0.00000,38,4,64,22,23,11,63,17,ok,4,0,0.001,3,0.62,-0.30,9.98,22,0.152,8.24
2.7872,0.04538,-0.02967,0.15882,0.00000,0.00000,0.00000,38,4,64,22,22,14,63,18,ok,4,0,0.001,3,0.62,-0.30,9.98,22,0.165,8.24
2.7999,0.04538,-0.02967,0.15882,0.00000,0.00000,0.00000,39,3,63,25,24,14,64,19,ok,4,0,0.001,3,0.62,-0.30,9.98,22,0.178,8.24
2.8201,0.04538,-0.02967,0.15882,0.00000,0.00000,0.00000,40,3,63,27,24,14,64,19,ok,4,0,0.001,3,0.62,-0.30,9.98,22,0.191,8.24
2.8253,-0.05411,0.02967,0.16232,0.00000,0.00000,0.00000,40,2,65,25,25,11,64,21,ok,4,0,0.001,3,0.14,-0.33,10.32,23,0.000,8.24
2.8374,-0.05411,0.02967,0.16232,0.00000,0.00000,0.00000,40,2,67,23,26,10,65,21,ok,4,0,0.001,3,0.14,-0.33,10.32,23,0.013,8.24
2.8601,-0.05411,0.02967,0.16232,0.00000,0.00000,0.00000,41,1,70,19,27,10,65,23,ok,4,0,0.001,3,0.14,-0.33,10.32,23,0.025,8.24
2.8632,-0.05411,0.02967,0.16232,0.00000,0.00000,0.00000,42,1,71,15,28,10,64,24,ok,4,0,0.001,3,0.14,-0.33,10.32,23,0.038,8.24
2.8759,-0.05411,0.02967,0.16232,0.00000,0.00000,0.00000,43,1,71,13,29,9,64,26,ok,4,0,0.001,3,0.14,-0.33,10.32,23,0.051,8.24
2.8961,-0.05411,0.02967,0.16232,0.00000,0.00000,0.00000,44,1,70,13,32,9,65,26,ok,4,0,0.001,3,0.14,-0.33,10.32,23,0.064,8.24
2.9009,-0.05411,0.02967,0.16232,0.00000,0.00000,0.00000,44,1,70,9,32,9,64,29,ok,4,0,0.001,3,0.14,-0.33,10.32,23,0.076,8.24
2.9136,-0.05411,0.02967,0.16232,0.00000,0.00000,0.00000,45,1,69,7,35,9,64,30,ok,4,0,0.001,3,0.14,-0.33,10.32,23,0.088,8.24
2.9361,-0.05411,0.02967,0.16232,0.00000,0.00000,0.00000,46,2,69,4,36,8,64,31,ok,4,0,0.001,3,0.14,-0.33,10.32,23,0.101,8.24
2.9393,-0.05411,0.02967,0.16232,0.00000,0.00000,0.00000,46,1,67,1,37,9,64,33,ok,4,0,0.001,3,0.14,-0.33,10.32,23,0.114,8.24
2.9522,-0.05411,0.02967,0.16232,0.00000,0.00000,0.00000,46,1,66,-1,38,8,64,35,ok,4,0,0.001,3,0.14,-0.33,10.32,23,0.127,8.24
2.9721,-0.05411,0.02967,0.16232,0.00000,0.00000,0.00000,48,2,64,-3,39,8,63,36,ok,4,0,0.001,3,0.14,-0.33,10.32,23,0.140,8.24
2.9770,-0.05411,0.02967,0.16232,0.00000,0.00000,0.00000,48,2,62,-4,41,7,64,36,ok,4,0,0.001,3,0.14,-0.33,10.32,23,0.152,8.24
2.9894,-0.05411,0.02967,0.16232,0.00000,0.00000,0.00000,48,3,61,-6,42,7,65,35,ok,4,0,0.001,3,0.14,-0.33,10.32,23,0.165,8.24
3.0121,-0.05411,0.02967,0.16232,0.00000,0.00000,0.00000,49,3,60,-8,43,7,67,33,ok,4,0,0.001,3,0.14,-0.33,10.32,23,0.177,8.24
3.0155,-0.05411,0.02967,0.16232,0.00000,0.00000,0.00000,50,3,58,-8,44,7,69,27,ok,4,0,0.001,3,0.14,-0.33,10.32,23,0.190,8.24
3.0283,-0.16406,0.06283,0.22340,0.00000,0.00000,0.00000,50,3,55,-9,45,7,71,24,ok,4,0,0.001,3,-0.77,-0.53,11.75,24,0.000,8.24
3.0481,-0.16406,0.06283,0.22340,0.00000,0.00000,0.00000,50,3,53,-9,46,6,72,21,ok,4,0,0.001,3,-0.77,-0.53,11.75,24,0.013,8.24
3.0529,-0.16406,0.06283,0.22340,0.00000,0.00000,0.00000,50,5,51,-10,47,6,73,21,ok,2,0,0.001,3,-0.77,-0.53,11.75,24,0.025,8.24
3.0654,-0.16406,0.06283,0.22340,0.00000,0.00000,0.00000,51,5,49,-10,47,7,73,18,ok,2,0,0.001,3,-0.77,-0.53,11.75,24,0.037,8.24
3.0881,-0.16406,0.06283,0.22340,0.00000,0.00000,0.00000,52,5,46,-10,48,7,73,15,ok,2,0,0.001,3,-0.77,-0.53,11.75,24,0.050,8.24
3.0913,-0.16406,0.06283,0.22340,0.00000,0.00000,0.00000,52,5,44,-9,49,7,72,12,ok,2,0,0.001,3,-0.77,-0.53,11.75,24,0.063,8.24
3.1040,-0.16406,0.06283,0.22340,0.00000,0.00000,0.00000,52,6,41,-9,50,7,72,11,ok,2,0,0.001,3,-0.77,-0.53,11.75,24,0.076,8.24
3.1241,-0.16406,0.06283,0.22340,0.00000,0.00000,0.00000,53,6,38,-10,51,7,71,7,ok,2,0,0.001,3,-0.77,-0.53,11.75,24,0.089,8.24
3.1289,-0.16406,0.06283,0.22340,0.00000,0.00000,0.00000,53,6,36,-9,52,7,71,6,ok,2,0,0.001,3,-0.77,-0.53,11.75,24,0.101,8.24
3.1414,-0.16406,0.06283,0.22340,0.00000,0.00000,0.00000,54,6,33,-8,52,7,70,4,ok,2,0,0.001,3,-0.77,-0.53,11.75,24,0.114,8.24
3.1641,-0.16406,0.06283,0.22340,0.00000,0.00000,0.00000,54,7,30,-7,53,7,68,2,ok,2,0,0.001,3,-0.77,-0.53,11.75,24,0.126,8.24
3.1673,-0.16406,0.06283,0.22340,0.00000,0.00000,0.00000,54,8,27,-6,54,8,66,2,ok,2,0,0.001,3,-0.77,-0.53,11.75,24,0.139,8.24
3.1800,-0.16406,0.06283,0.22340,0.00000,0.00000,0.00000,54,9,24,-5,55,8,65,0,ok,2,0,0.001,3,-0.77,-0.53,11.75,24,0.152,8.24
3.2001,-0.16406,0.06283,0.22340,0.00000,0.00000,0.00000,55,10,20,-2,56,8,64,-2,ok,2,0,0.001,3,-0.77,-0.53,11.75,24,0.165,8.24
3.2052,-0.16406,0.06283,0.22340,0.00000,0.00000,0.00000,55,10,18,-1,58,6,62,-3,ok,2,0,0.001,3,-0.77,-0.53,11.75,24,0.177,8.24
3.2175,-0.16406,0.06283,0.22340,0.00000,0.00000,0.00000,56,10,18,0,58,7,60,-4,ok,2,0,0.001,3,-0.77,-0.53,11.75,24,0.190,8.24
3.2401,-0.02094,0.04712,0.17977,0.00000,0.00000,0.00000,56,11,16,3,59,8,58,-4,ok,2,0,0.001,3,-0.01,0.09,9.46,25,0.000,8.24
3.2432,-0.02094,0.04712,0.17977,0.00000,0.00000,0.00000,56,11,14,5,60,9,55,-5,ok,2,0,0.001,3,-0.01,0.09,9.46,25,0.013,8.24
3.2560,-0.02094,0.04712,0.17977,0.00000,0.00000,0.00000,56,12,12,9,60,9,53,-6,ok,2,0,0.001,3,-0.01,0.09,9.46,25,0.026,8.24
3.2761,-0.02094,0.04712,0.17977,0.00000,0.00000,0.00000,56,12,12,11,61,9,50,-5,ok,2,0,0.001,3,-0.01,0.09,9.46,25,0.038,8.24
3.2811,-0.02094,0.04712,0.17977,0.00000,0.00000,0.00000,56,14,14,11,61,10,47,-5,ok,2,0,0.001,3,-0.01,0.09,9.46,25,0.051,8.24
3.2934,-0.02094,0.04712,0.17977,0.00000,0.00000,0.00000,56,14,15,11,61,11,45,-5,ok,2,0,0.001,3,-0.01,0.09,9.46,25,0.063,8.24
3.3161,-0.02094,0.04712,0.17977,0.00000,0.00000,0.00000,56,15,16,9,62,11,42,-4,ok,2,0,0.001,3,-0.01,0.09,9.46,25,0.076,8.24
3.3192,-0.02094,0.04712,0.17977,0.00000,0.00000,0.00000,56,16,18,8,62,12,40,-4,ok,2,0,0.001,3,-0.01,0.09,9.46,25,0.089,8.24
3.3321,-0.02094,0.04712,0.17977,0.00000,0.00000,0.00000,56,16,19,8,62,12,37,-3,ok,2,0,0.001,3,-0.01,0.09,9.46,25,0.102,8.24
3.3521,-0.02094,0.04712,0.17977,0.00000,0.00000,0.00000,56,17,20,7,62,13,35,-3,ok,2,0,0.001,3,-0.01,0.09,9.46,25,0.114,8.24
3.3570,-0.02094,0.04712,0.17977,0.00000,0.00000,0.00000,56,18,21,7,62,14,31,-1,ok,2,0,0.001,3,-0.01,0.09,9.46,25,0.127,8.24
3.3694,-0.02094,0.04712,0.17977,0.00000,0.00000,0.00000,58,19,22,6,63,14,30,0,ok,2,0,0.001,3,-0.01,0.09,9.46,25,0.139,8.24
3.3921,-0.02094,0.04712,0.17977,0.00000,0.00000,0.00000,57,20,24,5,63,15,27,2,ok,2,0,0.001,3,-0.01,0.09,9.46,25,0.152,8.24
3.3953,-0.02094,0.04712,0.17977,0.00000,0.00000,0.00000,58,21,24,5,63,16,25,5,ok,2,0,0.001,3,-0.01,0.09,9.46,25,0.165,8.24
3.4079,-0.02094,0.04712,0.17977,0.00000,0.00000,0.00000,58,22,25,4,63,17,24,7,ok,2,0,0.001,3,-0.01,0.09,9.46,25,0.178,8.24
3.4281,-0.02094,0.04712,0.17977,0.00000,0.00000,0.00000,58,23,26,3,64,17,23,11,ok,2,0,0.001,3,-0.01,0.09,9.46,25,0.190,8.24
3.4333,-0.14486,0.12741,0.19373,0.00000,0.00000,0.00000,57,25,27,3,64,19,22,13,ok,2,0,0.001,3,1.24,-1.86,10.51,26,0.000,8.24
3.4457,-0.14486,0.12741,0.19373,0.00000,0.00000,0.00000,57,26,27,3,64,19,25,12,ok,2,0,0.001,3,1.24,-1.86,10.51,26,0.013,8.24
3.4681,-0.14486,0.12741,0.19373,0.00000,0.00000,0.00000,58,25,29,2,64,20,25,12,ok,2,0,0.001,3,1.24,-1.86,10.51,26,0.025,8.24
3.4713,-0.14486,0.12741,0.19373,0.00000,0.00000,0.00000,58,21,29,2,64,21,26,10,ok,2,0,0.001,3,1.24,-1.86,10.51,26,0.038,8.24
3.4841,-0.14486,0.12741,0.19373,0.00000,0.00000,0.00000,60,17,30,2,64,22,27,10,ok,2,0,0.001,3,1.24,-1.86,10.51,26,0.051,8.24
3.5041,-0.14486,0.12741,0.19373,0.00000,0.00000,0.00000,60,12,32,3,64,24,28,10,ok,2,0,0.001,3,1.24,-1.86,10.51,26,0.064,8.24
3.5090,-0.14486,0.12741,0.19373,0.00000,0.00000,0.00000,60,10,33,3,65,25,30,10,ok,2,0,0.001,3,1.24,-1.86,10.51,26,0.076,8.24
3.5214,-0.14486,0.12741,0.19373,0.00000,0.00000,0.00000,60,9,35,3,64,27,31,9,ok,2,0,0.001,3,1.24,-1.86,10.51,26,0.088,8.24
3.5441,-0.14486,0.12741,0.19373,0.00000,0.00000,0.00000,60,6,36,3,64,29,33,9,ok,2,0,0.001,3,1.24,-1.86,10.51,26,0.101,8.24
3.5472,-0.14486,0.12741,0.19373,0.00000,0.00000,0.00000,60,3,38,4,64,30,33,10,ok,2,0,0.001,3,1.24,-1.86,10.51,26,0.114,8.24
3.5601,-0.14486,0.12741,0.19373,0.00000,0.00000,0.00000,59,1,39,3,65,31,35,9,ok,2,0,0.001,3,1.24,-1.86,10.51,26,0.127,8.24
3.5801,-0.14486,0.12741,0.19373,0.00000,0.00000,0.00000,58,-1,41,3,64,33,36,9,ok,2,0,0.001,4,1.24,-1.86,10.51,26,0.140,8.24
3.5850,-0.14486,0.12741,0.19373,0.00000,0.00000,0.00000,58,-3,42,2,64,34,37,9,ok,2,0,0.001,4,1.24,-1.86,10.51,26,0.152,8.24
3.5974,-0.14486,0.12741,0.19373,0.00000,0.00000,0.00000,58,-4,43,2,65,35,38,8,ok,2,0,0.001,4,1.24,-1.86,10.51,26,0.165,8.24
3.6201,-0.14486,0.12741,0.19373,0.00000,0.00000,0.00000,56,-5,43,2,66,35,40,8,ok,2,0,0.001,4,1.24,-1.86,10.51,26,0.177,8.24
3.6233,-0.14486,0.12741,0.19373,0.00000,0.00000,0.00000,56,-6,44,3,68,32,41,7,ok,2,0,0.001,4,1.24,-1.86,10.51,26,0.190,8.24
3.6362,-0.14486,0.12741,0.19373,0.00000,0.00000,0.00000,56,-8,46,3,70,28,42,7,ok,2,0,0.001,4,1.24,-1.86,10.51,26,0.203,8.24
3.6561,-0.01222,0.02269,0.25307,0.00000,0.00000,0.00000,54,-9,47,4,72,24,44,7,ok,2,0,0.001,4,1.86,0.67,10.21,27,0.000,8.24
3.6609,-0.01222,0.02269,0.25307,0.00000,0.00000,0.00000,53,-10,48,3,74,22,44,7,ok,2,0,0.001,4,1.86,0.67,10.21,27,0.012,8.24
3.6734,-0.01222,0.02269,0.25307,0.00000,0.00000,0.00000,52,-10,48,3,75,21,45,7,ok,2,0,0.001,4,1.86,0.67,10.21,27,0.025,8.24
3.6961,-0.01222,0.02269,0.25307,0.00000,0.00000,0.00000,50,-11,49,5,75,18,46,7,ok,2,0,0.001,4,1.86,0.67,10.21,27,0.037,8.24
3.6992,-0.01222,0.02269,0.25307,0.00000,0.00000,0.00000,50,-10,51,5,75,15,47,8,ok,2,0,0.001,4,1.86,0.67,10.21,27,0.051,8.24
3.7121,-0.01222,0.02269,0.25307,0.00000,0.00000,0.00000,48,-10,51,5,74,12,48,8,ok,2,0,0.001,4,1.86,0.67,10.21,27,0.063,8.24
3.7321,-0.01222,0.02269,0.25307,0.00000,0.00000,0.00000,47,-9,53,5,73,10,49,8,ok,2,0,0.001,4,1.86,0.67,10.21,27,0.076,8.24
3.7370,-0.01222,0.02269,0.25307,0.00000,0.00000,0.00000,46,-9,53,6,72,6,49,9,ok,2,0,0.001,4,1.86,0.67,10.21,27,0.088,8.24
3.7494,-0.01222,0.02269,0.25307,0.00000,0.00000,0.00000,44,-10,55,6,72,4,50,8,ok,2,0,0.001,4,1.86,0.67,10.21,27,0.101,8.24
3.7721,-0.01222,0.02269,0.25307,0.00000,0.00000,0.00000,44,-9,56,6,71,3,51,8,ok,2,0,0.001,4,1.86,0.67,10.21,27,0.113,8.24
3.7753,-0.01222,0.02269,0.25307,0.00000,0.00000,0.00000,42,-8,57,6,69,1,52,7,ok,2,0,0.001,4,1.86,0.67,10.21,27,0.127,8.24
3.7880,-0.01222,0.02269,0.25307,0.00000,0.00000,0.00000,40,-7,57,7,66,1,52,8,ok,2,0,0.001,4,1.86,0.67,10.21,27,0.140,8.24
3.8081,-0.01222,0.02269,0.25307,0.00000,0.00000,0.00000,38,-6,57,8,65,-1,53,8,ok,2,0,0.001,4,1.86,0.67,10.21,27,0.152,8.24
3.8130,-0.01222,0.02269,0.25307,0.00000,0.00000,0.00000,37,-4,58,8,64,-3,54,9,ok,2,0,0.001,4,1.86,0.67,10.21,27,0.165,8.24
3.8255,-0.01222,0.02269,0.25307,0.00000,0.00000,0.00000,35,-2,59,9,62,-4,55,9,ok,2,0,0.001,4,1.86,0.67,10.21,27,0.177,8.24
3.8481,-0.01222,0.02269,0.25307,0.00000,0.00000,0.00000,34,-2,60,11,61,-5,54,8,ok,2,0,0.001,4,1.86,0.67,10.21,27,0.190,8.24
3.8516,0.03316,-0.07156,0.28972,0.00000,0.00000,0.00000,34,-1,60,10,59,-6,57,6,ok,2,0,0.001,4,-0.75,0.20,9.61,28,0.000,8.24
3.8640,0.03316,-0.07156,0.28972,0.00000,0.00000,0.00000,33,2,61,11,56,-6,57,7,ok,2,0,0.001,4,-0.75,0.20,9.61,28,0.013,8.24
3.8841,0.03316,-0.07156,0.28972,0.00000,0.00000,0.00000,32,5,61,10,54,-7,58,8,ok,2,0,0.001,4,-0.75,0.20,9.61,28,0.025,8.24
3.8892,0.03316,-0.07156,0.28972,0.00000,0.00000,0.00000,32,8,61,12,51,-6,58,9,ok,2,0,0.001,4,-0.75,0.20,9.61,28,0.038,8.24
3.9014,0.03316,-0.07156,0.28972,0.00000,0.00000,0.00000,31,11,62,11,48,-5,59,9,ok,2,0,0.001,4,-0.75,0.20,9.61,28,0.050,8.24
3.9241,0.03316,-0.07156,0.28972,0.00000,0.00000,0.00000,32,11,62,12,46,-6,60,10,ok,2,0,0.001,4,-0.75,0.20,9.61,28,0.063,8.24
3.9272,0.03316,-0.07156,0.28972,0.00000,0.00000,0.00000,32,11,62,13,43,-5,60,10,ok,2,0,0.001,4,-0.75,0.20,9.61,28,0.076,8.24
3.9402,0.03316,-0.07156,0.28972,0.00000,0.00000,0.00000,33,10,63,13,40,-5,60,11,ok,2,0,0.001,4,-0.75,0.20,9.61,28,0.089,8.24
3.9601,0.03316,-0.07156,0.28972,0.00000,0.00000,0.00000,34,10,62,14,37,-4,61,12,ok,2,0,0.001,4,-0.75,0.20,9.61,28,0.101,8.24
3.9649,0.03316,-0.07156,0.28972,0.00000,0.00000,0.00000,34,9,63,14,35,-3,61,13,ok,2,0,0.001,4,-0.75,0.20,9.61,28,0.114,8.24
3.9774,0.03316,-0.07156,0.28972,0.00000,0.00000,0.00000,36,8,63,15,31,-2,61,13,ok,2,0,0.001,4,-0.75,0.20,9.61,28,0.126,8.24
4.0001,0.03316,-0.07156,0.28972,0.00000,0.00000,0.00000,36,8,63,16,29,0,62,14,ok,2,0,0.001,4,-0.75,0.20,9.61,28,0.139,8.24
4.0033,0.03316,-0.07156,0.28972,0.00000,0.00000,0.00000,36,6,64,18,28,1,62,15,ok,2,0,0.001,4,-0.75,0.20,9.61,28,0.152,8.24
4.0159,0.03316,-0.07156,0.28972,0.00000,0.00000,0.00000,38,5,64,19,25,5,63,15,ok,2,0,0.001,4,-0.75,0.20,9.61,28,0.165,8.24
4.0361,0.03316,-0.07156,0.28972,0.00000,0.00000,0.00000,38,5,64,20,24,8,63,16,ok,2,0,0.001,4,-0.75,0.20,9.61,28,0.177,8.24
4.0409,0.03316,-0.07156,0.28972,0.00000,0.00000,0.00000,38,4,64,21,23,11,63,18,ok,2,0,0.001,4,-0.75,0.20,9.61,28,0.190,8.24
4.0537,-0.16755,0.03142,0.28449,0.00000,0.00000,0.00000,38,4,64,23,22,14,63,18,ok,2,0,0.001,4,1.09,-2.75,12.79,29,0.000,8.24
4.0761,-0.16755,0.03142,0.28449,0.00000,0.00000,0.00000,40,3,64,26,23,12,64,19,ok,2,0,0.001,4,1.09,-2.75,12.79,29,0.013,8.24
4.0794,-0.16755,0.03142,0.28449,0.00000,0.00000,0.00000,40,2,64,28,23,12,64,20,ok,2,0,0.001,4,1.09,-2.75,12.79,29,0.026,8.24
4.0920,-0.16755,0.03142,0.28449,0.00000,0.00000,0.00000,40,2,65,27,24,10,64,21,ok,2,0,0.001,4,1.09,-2.75,12.79,29,0.039,8.24
4.1121,-0.16755,0.03142,0.28449,0.00000,0.00000,0.00000,41,1,67,24,25,9,65,22,ok,2,0,0.001,4,1.09,-2.75,12.79,29,0.051,8.24
4.1169,-0.16755,0.03142,0.28449,0.00000,0.00000,0.00000,41,0,69,20,27,10,65,23,ok,2,0,0.001,4,1.09,-2.75,12.79,29,0.063,8.24
4.1296,-0.16755,0.03142,0.28449,0.00000,0.00000,0.00000,42,0,70,16,28,9,65,24,ok,2,0,0.001,4,1.09,-2.75,12.79,29,0.076,8.24
4.1521,-0.16755,0.03142,0.28449,0.00000,0.00000,0.00000,42,-1,71,14,30,8,64,26,ok,2,0,0.001,4,1.09,-2.75,12.79,29,0.089,8.24
4.1553,-0.16755,0.03142,0.28449,0.00000,0.00000,0.00000,44,0,70,14,32,9,65,27,ok,2,0,0.001,4,1.09,-2.75,12.79,29,0.102,8.24
4.1680,-0.16755,0.03142,0.28449,0.00000,0.00000,0.00000,44,0,70,10,33,9,64,30,ok,2,0,0.001,4,1.09,-2.75,12.79,29,0.115,8.24
4.1881,-0.16755,0.03142,0.28449,0.00000,0.00000,0.00000,45,1,69,7,35,8,64,31,ok,2,0,0.001,4,1.09,-2.75,12.79,29,0.127,8.24
4.1931,-0.16755,0.03142,0.28449,0.00000,0.00000,0.00000,46,2,69,4,36,8,64,32,ok,2,0,0.001,4,1.09,-2.75,12.79,29,0.140,8.24
4.2054,-0.16755,0.03142,0.28449,0.00000,0.00000,0.00000,46,2,67,0,37,8,64,33,ok,2,0,0.001,4,1.09,-2.75,12.79,29,0.152,8.24
4.2281,-0.16755,0.03142,0.28449,0.00000,0.00000,0.00000,47,2,66,-2,39,7,64,35,ok,2,0,0.001,4,1.09,-2.75,12.79,29,0.165,8.24
4.2312,-0.16755,0.03142,0.28449,0.00000,0.00000,0.00000,48,3,64,-3,40,7,63,36,ok,2,0,0.001,4,1.09,-2.75,12.79,29,0.178,8.24
4.2441,-0.16755,0.03142,0.28449,0.00000,0.00000,0.00000,48,3,62,-4,41,6,65,36,ok,2,0,0.001,4,1.09,-2.75,12.79,29,0.191,8.24
4.2641,-0.13265,0.04887,0.30020,0.00000,0.00000,0.00000,48,3,61,-6,42,6,66,35,ok,2,0,0.001,4,0.45,-1.55,8.57,30,0.000,8.24
4.2689,-0.13265,0.04887,0.30020,0.00000,0.00000,0.00000,49,3,60,-8,43,6,68,33,ok,2,0,0.001,4,0.45,-1.55,8.57,30,0.012,8.24
4.2814,-0.13265,0.04887,0.30020,0.00000,0.00000,0.00000,50,4,57,-8,44,7,69,28,ok,2,0,0.001,4,0.45,-1.55,8.57,30,0.025,8.24
4.3041,-0.13265,0.04887,0.30020,0.00000,0.00000,0.00000,50,4,55,-9,45,7,71,24,ok,2,0,0.001,4,0.45,-1.55,8.57,30,0.038,8.24
4.3072,-0.13265,0.04887,0.30020,0.00000,0.00000,0.00000,50,3,53,-10,46,7,72,21,ok,2,0,0.001,4,0.45,-1.55,8.57,30,0.051,8.24
4.3200,-0.13265,0.04887,0.30020,0.00000,0.00000,0.00000,50,6,51,-11,47,7,72,21,ok,2,0,0.001,4,0.45,-1.55,8.57,30,0.064,8.24
4.3401,-0.13265,0.04887,0.30020,0.00000,0.00000,0.00000,51,6,48,-10,48,7,72,19,ok,2,0,0.001,4,0.45,-1.55,8.57,30,0.076,8.24
4.3449,-0.13265,0.04887,0.30020,0.00000,0.00000,0.00000,52,6,46,-11,49,7,72,15,ok,2,0,0.001,4,0.45,-1.55,8.57,30,0.088,8.24
4.3574,-0.13265,0.04887,0.30020,0.00000,0.00000,0.00000,52,7,44,-10,49,7,72,12,ok,2,0,0.001,4,0.45,-1.55,8.57,30,0.101,8.24
4.3801,-0.13265,0.04887,0.30020,0.00000,0.00000,0.00000,52,7,41,-10,50,7,71,11,ok,2,0,0.001,4,0.45,-1.55,8.57,30,0.114,8.24
4.3833,-0.13265,0.04887,0.30020,0.00000,0.00000,0.00000,53,7,38,-11,51,7,71,7,ok,2,0,0.001,4,0.45,-1.55,8.57,30,0.127,8.24
4.3959,-0.13265,0.04887,0.30020,0.00000,0.00000,0.00000,54,7,36,-9,52,6,70,6,ok,2,0,0.001,4,0.45,-1.55,8.57,30,0.140,8.24
4.4161,-0.13265,0.04887,0.30020,0.00000,0.00000,0.00000,54,7,33,-9,52,7,70,4,ok,2,0,0.001,4,0.45,-1.55,8.57,30,0.152,8.24
4.4210,-0.13265,0.04887,0.30020,0.00000,0.00000,0.00000,54,8,30,-7,53,7,68,2,ok,2,0,0.001,4,0.45,-1.55,8.57,30,0.164,8.24
4.4336,-0.13265,0.04887,0.30020,0.00000,0.00000,0.00000,54,8,27,-6,54,8,66,2,ok,2,0,0.001,4,0.45,-1.55,8.57,30,0.177,8.24
4.4561,-0.13265,0.04887,0.30020,0.00000,0.00000,0.00000,54,9,24,-4,55,8,65,0,ok,2,0,0.001,4,0.45,-1.55,8.57,30,0.189,8.24
4.4596,-0.00349,-0.00349,0.28972,0.00000,0.00000,0.00000,55,10,20,-2,56,8,64,-2,ok,2,0,0.001,4,0.42,-0.06,9.77,31,0.000,8.24
4.4720,-0.00349,-0.00349,0.28972,0.00000,0.00000,0.00000,55,10,18,-1,58,6,61,-3,ok,2,0,0.001,4,0.42,-0.06,9.77,31,0.013,8.24
4.4921,-0.00349,-0.00349,0.28972,0.00000,0.00000,0.00000,56,10,18,0,59,7,59,-4,ok,2,0,0.001,4,0.42,-0.06,9.77,31,0.025,8.24
4.4970,-0.00349,-0.00349,0.28972,0.00000,0.00000,0.00000,56,11,16,2,59,8,57,-4,ok,2,0,0.001,4,0.42,-0.06,9.77,31,0.038,8.24
4.5097,-0.00349,-0.00349,0.28972,0.00000,0.00000,0.00000,56,11,15,5,60,9,55,-5,ok,2,0,0.001,4,0.42,-0.06,9.77,31,0.050,8.24
4.5321,-0.00349,-0.00349,0.28972,0.00000,0.00000,0.00000,56,13,13,8,60,9,53,-6,ok,2,0,0.001,4,0.42,-0.06,9.77,31,0.063,8.24
4.5352,-0.00349,-0.00349,0.28972,0.00000,0.00000,0.00000,56,13,13,11,60,9,50,-5,ok,2,0,0.001,4,0.42,-0.06,9.77,31,0.076,8.24
4.5479,-0.00349,-0.00349,0.28972,0.00000,0.00000,0.00000,56,14,14,11,60,10,47,-5,ok,2,0,0.001,4,0.42,-0.06,9.77,31,0.089,8.24
4.5681,-0.00349,-0.00349,0.28972,0.00000,0.00000,0.00000,56,14,15,10,61,10,46,-5,ok,2,0,0.001,4,0.42,-0.06,9.77,31,0.101,8.24
4.5734,-0.00349,-0.00349,0.28972,0.00000,0.00000,0.00000,56,15,17,10,61,10,42,-4,ok,2,0,0.001,4,0.42,-0.06,9.77,31,0.114,8.24
4.5856,-0.00349,-0.00349,0.28972,0.00000,0.00000,0.00000,56,16,19,9,61,12,40,-4,ok,2,0,0.001,5,0.42,-0.06,9.77,31,0.126,8.24
4.6081,-0.00349,-0.00349,0.28972,0.00000,0.00000,0.00000,56,16,19,8,61,12,37,-3,ok,2,0,0.001,5,0.42,-0.06,9.77,31,0.139,8.24
4.6112,-0.00349,-0.00349,0.28972,0.00000,0.00000,0.00000,57,16,21,8,62,13,35,-3,ok,2,0,0.001,5,0.42,-0.06,9.77,31,0.152,8.24
4.6240,-0.00349,-0.00349,0.28972,0.00000,0.00000,0.00000,57,17,21,7,62,14,31,-1,ok,2,0,0.001,5,0.42,-0.06,9.77,31,0.165,8.24
4.6441,-0.00349,-0.00349,0.28972,0.00000,0.00000,0.00000,58,19,23,6,63,14,30,0,ok,2,0,0.001,5,0.42,-0.06,9.77,31,0.177,8.24
4.6491,-0.00349,-0.00349,0.28972,0.00000,0.00000,0.00000,58,20,24,5,63,15,27,2,ok,2,0,0.001,5,0.42,-0.06,9.77,31,0.190,8.24
4.6618,-0.01745,0.04189,0.28100,0.00000,0.00000,0.00000,58,21,24,5,63,16,25,5,ok,2,0,0.001,5,1.91,0.17,14.69,32,0.000,8.24
4.6841,-0.01745,0.04189,0.28100,0.00000,0.00000,0.00000,58,22,25,4,63,17,24,7,ok,2,0,0.001,5,1.91,0.17,14.69,32,0.013,8.24
4.6873,-0.01745,0.04189,0.28100,0.00000,0.00000,0.00000,58,23,26,3,64,17,23,11,ok,2,0,0.001,5,1.91,0.17,14.69,32,0.026,8.24
4.7001,-0.01745,0.04189,0.28100,0.00000,0.00000,0.00000,57,26,27,3,64,18,22,13,ok,2,0,0.001,5,1.91,0.17,14.69,32,0.039,8.24
4.7201,-0.01745,0.04189,0.28100,0.00000,0.00000,0.00000,57,26,28,2,64,19,24,12,ok,2,0,0.001,5,1.91,0.17,14.69,32,0.051,8.24
4.7250,-0.01745,0.04189,0.28100,0.00000,0.00000,0.00000,58,25,29,2,64,21,24,12,ok,2,0,0.001,5,1.91,0.17,14.69,32,0.064,8.24
4.7376,-0.01745,0.04189,0.28100,0.00000,0.00000,0.00000,58,21,30,2,65,22,25,10,ok,2,0,0.001,5,1.91,0.17,14.69,32,0.076,8.24
4.7601,-0.01745,0.04189,0.28100,0.00000,0.00000,0.00000,60,18,31,2,64,23,26,10,ok,2,0,0.001,5,1.91,0.17,14.69,32,0.089,8.24
4.7633,-0.01745,0.04189,0.28100,0.00000,0.00000,0.00000,60,13,32,2,64,25,28,10,ok,2,0,0.001,5,1.91,0.17,14.69,32,0.102,8.24
4.7761,-0.01745,0.04189,0.28100,0.00000,0.00000,0.00000,60,11,34,2,65,25,29,10,ok,2,0,0.001,5,1.91,0.17,14.69,32,0.115,8.24
4.7961,-0.01745,0.04189,0.28100,0.00000,0.00000,0.00000,60,11,35,2,64,27,30,9,ok,2,0,0.001,5,1.91,0.17,14.69,32,0.127,8.24
4.8010,-0.01745,0.04189,0.28100,0.00000,0.00000,0.00000,60,7,37,2,64,29,32,9,ok,2,0,0.001,5,1.91,0.17,14.69,32,0.140,8.24
4.8136,-0.01745,0.04189,0.28100,0.00000,0.00000,0.00000,60,5,39,3,64,30,33,9,ok,2,0,0.001,5,1.91,0.17,14.69,32,0.152,8.24
4.8361,-0.01745,0.04189,0.28100,0.00000,0.00000,0.00000,60,2,40,3,64,32,35,9,ok,2,0,0.001,5,1.91,0.17,14.69,32,0.165,8.24
4.8392,-0.01745,0.04189,0.28100,0.00000,0.00000,0.00000,59,0,41,3,64,34,36,9,ok,2,0,0.001,5,1.91,0.17,14.69,32,0.178,8.24
4.8522,-0.01745,0.04189,0.28100,0.00000,0.00000,0.00000,58,-2,43,2,64,35,37,9,ok,2,0,0.001,5,1.91,0.17,14.69,32,0.191,8.24
4.8721,-0.07156,0.01047,0.35081,0.00000,0.00000,0.00000,58,-4,44,3,65,35,38,8,ok,2,0,0.001,5,-0.39,-1.01,10.34,33,0.000,8.24
4.8769,-0.07156,0.01047,0.35081,0.00000,0.00000,0.00000,57,-5,44,3,66,35,39,8,ok,2,0,0.001,5,-0.39,-1.01,10.34,33,0.012,8.24
4.8894,-0.07156,0.01047,0.35081,0.00000,0.00000,0.00000,56,-6,45,3,68,33,41,7,ok,2,0,0.001,5,-0.39,-1.01,10.34,33,0.025,8.24
4.9121,-0.07156,0.01047,0.35081,0.00000,0.00000,0.00000,56,-8,47,3,70,28,42,7,ok,2,0,0.001,5,-0.39,-1.01,10.34,33,0.038,8.24
4.9153,-0.07156,0.01047,0.35081,0.00000,0.00000,0.00000,54,-9,48,4,71,24,43,7,ok,2,0,0.001,5,-0.39,-1.01,10.34,33,0.051,8.24
4.9282,-0.07156,0.01047,0.35081,0.00000,0.00000,0.00000,54,-10,49,4,73,21,44,7,ok,2,0,0.001,5,-0.39,-1.01,10.34,33,0.064,8.24
4.9481,-0.07156,0.01047,0.35081,0.00000,0.00000,0.00000,52,-10,50,4,74,20,45,8,ok,2,0,0.001,5,-0.39,-1.01,10.34,33,0.076,8.24
4.9529,-0.07156,0.01047,0.35081,0.00000,0.00000,0.00000,51,-11,50,6,74,18,46,8,ok,2,0,0.001,5,-0.39,-1.01,10.34,33,0.089,8.24
4.9656,-0.07156,0.01047,0.35081,0.00000,0.00000,0.00000,50,-11,51,6,74,15,47,8,ok,2,0,0.001,5,-0.39,-1.01,10.34,33,0.101,8.24
4.9881,-0.07156,0.01047,0.35081,0.00000,0.00000,0.00000,48,-11,52,6,73,11,48,8,ok,2,0,0.001,5,-0.39,-1.01,10.34,33,0.114,8.24
4.9913,-0.07156,0.01047,0.35081,0.00000,0.00000,0.00000,48,-11,53,6,73,10,49,8,ok,2,0,0.001,5,-0.39,-1.01,10.34,33,0.127,8.24
5.0040,-0.07156,0.01047,0.35081,0.00000,0.00000,0.00000,46,-11,53,7,72,6,49,9,ok,2,0,0.001,5,-0.39,-1.01,10.34,33,0.140,8.24
5.0241,-0.07156,0.01047,0.35081,0.00000,0.00000,0.00000,44,-11,55,7,72,5,50,8,ok,2,0,0.001,5,-0.39,-1.01,10.34,33,0.152,8.24
5.0359,-0.07156,0.01047,0.35081,0.00000,0.00000,0.00000,44,-10,56,7,70,3,51,9,ok,2,0,0.001,5,-0.39,-1.01,10.34,33,0.165,8.24
5.0415,-0.07156,0.01047,0.35081,0.00000,0.00000,0.00000,42,-8,57,7,69,1,52,8,ok,2,0,0.001,5,-0.39,-1.01,10.34,33,0.177,8.24
5.0641,-0.07156,0.01047,0.35081,0.00000,0.00000,0.00000,40,-7,57,8,66,1,52,9,ok,2,0,0.001,5,-0.39,-1.01,10.34,33,0.190,8.24
5.0676,0.07679,-0.00349,0.37001,0.00000,0.00000,0.00000,38,-6,58,8,65,-1,53,9,ok,2,0,0.001,5,-0.38,0.73,9.96,34,0.000,8.24
5.0799,0.07679,-0.00349,0.37001,0.00000,0.00000,0.00000,37,-4,58,8,64,-2,54,9,ok,2,0,0.001,5,-0.38,0.73,9.96,34,0.013,8.24
5.1001,0.07679,-0.00349,0.37001,0.00000,0.00000,0.00000,35,-1,59,9,62,-4,54,9,ok,2,0,0.001,5,-0.38,0.73,9.96,34,0.025,8.24
5.1052,0.07679,-0.00349,0.37001,0.00000,0.00000,0.00000,34,-1,60,10,61,-5,54,8,ok,2,0,0.001,5,-0.38,0.73,9.96,34,0.038,8.24
5.1174,0.07679,-0.00349,0.37001,0.00000,0.00000,0.00000,34,1,61,10,59,-5,56,6,ok,2,0,0.001,5,-0.38,0.73,9.96,34,0.050,8.24
5.1401,0.07679,-0.00349,0.37001,0.00000,0.00000,0.00000,33,3,61,10,56,-6,56,7,ok,2,0,0.001,5,-0.38,0.73,9.96,34,0.063,8.24
5.1432,0.07679,-0.00349,0.37001,0.00000,0.00000,0.00000,32,6,61,10,54,-7,57,8,ok,2,0,0.001,5,-0.38,0.73,9.96,34,0.076,8.24
5.1561,0.07679,-0.00349,0.37001,0.00000,0.00000,0.00000,32,10,61,11,51,-6,58,9,ok,2,0,0.001,5,-0.38,0.73,9.96,34,0.089,8.24
5.1761,0.07679,-0.00349,0.37001,0.00000,0.00000,0.00000,32,12,61,10,48,-6,59,9,ok,2,0,0.001,5,-0.38,0.73,9.96,34,0.101,8.24
5.1810,0.07679,-0.00349,0.37001,0.00000,0.00000,0.00000,32,12,62,12,46,-6,59,9,ok,2,0,0.001,5,-0.38,0.73,9.96,34,0.114,8.24
5.1934,0.07679,-0.00349,0.37001,0.00000,0.00000,0.00000,32,12,61,13,43,-5,59,10,ok,2,0,0.001,5,-0.38,0.73,9.96,34,0.126,8.24
5.2161,0.07679,-0.00349,0.37001,0.00000,0.00000,0.00000,33,10,62,13,40,-5,60,11,ok,2,0,0.001,5,-0.38,0.73,9.96,34,0.139,8.24
5.2194,0.07679,-0.00349,0.37001,0.00000,0.00000,0.00000,34,9,62,14,37,-4,60,11,ok,2,0,0.001,5,-0.38,0.73,9.96,34,0.152,8.24
5.2320,0.07679,-0.00349,0.37001,0.00000,0.00000,0.00000,34,8,62,15,35,-3,61,13,ok,2,0,0.001,5,-0.38,0.73,9.96,34,0.165,8.24
5.2521,0.07679,-0.00349,0.37001,0.00000,0.00000,0.00000,35,7,63,16,31,-2,61,13,ok,2,0,0.001,5,-0.38,0.73,9.96,34,0.177,8.24
5.2569,0.07679,-0.00349,0.37001,0.00000,0.00000,0.00000,36,7,63,17,30,0,62,14,ok,2,0,0.001,5,-0.38,0.73,9.96,34,0.190,8.24
5.2698,-0.00873,0.05934,0.35256,0.00000,0.00000,0.00000,36,6,64,18,28,2,62,15,ok,2,0,0.001,5,1.90,1.90,12.83,35,0.000,8.24
5.2921,-0.00873,0.05934,0.35256,0.00000,0.00000,0.00000,37,5,64,20,25,4,63,15,ok,2,0,0.001,5,1.90,1.90,12.83,35,0.013,8.24
5.2953,-0.00873,0.05934,0.35256,0.00000,0.00000,0.00000,38,4,64,21,24,7,63,16,ok,2,0,0.001,5,1.90,1.90,12.83,35,0.026,8.24
5.3080,-0.00873,0.05934,0.35256,0.00000,0.00000,0.00000,38,4,64,22,23,11,63,17,ok,2,0,0.001,5,1.90,1.90,12.83,35,0.039,8.24
5.3281,-0.00873,0.05934,0.35256,0.00000,0.00000,0.00000,38,3,64,23,22,14,64,18,ok,2,0,0.001,5,1.90,1.90,12.83,35,0.051,8.24
5.3330,-0.00873,0.05934,0.35256,0.00000,0.00000,0.00000,39,2,63,26,24,13,64,19,ok,2,0,0.001,5,1.90,1.90,12.83,35,0.064,8.24
5.3454,-0.00873,0.05934,0.35256,0.00000,0.00000,0.00000,39,1,63,28,24,13,64,19,ok,2,0,0.001,5,1.90,1.90,12.83,35,0.076,8.24
5.3681,-0.00873,0.05934,0.35256,0.00000,0.00000,0.00000,40,1,64,26,25,11,64,21,ok,2,0,0.001,5,1.90,1.90,12.83,35,0.089,8.24
5.3712,-0.00873,0.05934,0.35256,0.00000,0.00000,0.00000,40,1,67,23,26,11,65,22,ok,2,0,0.001,5,1.90,1.90,12.83,35,0.102,8.24
5.3840,-0.00873,0.05934,0.35256,0.00000,0.00000,0.00000,41,0,69,19,28,11,65,23,ok,2,0,0.001,5,1.90,1.90,12.83,35,0.115,8.24
5.4041,-0.00873,0.05934,0.35256,0.00000,0.00000,0.00000,42,0,70,15,29,10,64,24,ok,2,0,0.001,5,1.90,1.90,12.83,35,0.127,8.24
5.4089,-0.00873,0.05934,0.35256,0.00000,0.00000,0.00000,42,1,71,13,30,9,64,26,ok,2,0,0.001,5,1.90,1.90,12.83,35,0.139,8.24
5.4214,-0.00873,0.05934,0.35256,0.00000,0.00000,0.00000,44,1,70,12,33,9,65,26,ok,2,0,0.001,5,1.90,1.90,12.83,35,0.152,8.24
5.4441,-0.00873,0.05934,0.35256,0.00000,0.00000,0.00000,44,1,70,9,33,9,64,29,ok,2,0,0.001,5,1.90,1.90,12.83,35,0.164,8.24
5.4474,-0.00873,0.05934,0.35256,0.00000,0.00000,0.00000,45,2,69,6,35,9,64,30,ok,2,0,0.001,5,1.90,1.90,12.83,35,0.178,8.24
5.4599,-0.00873,0.05934,0.35256,0.00000,0.00000,0.00000,46,2,68,3,37,8,64,31,ok,2,0,0.001,5,1.90,1.90,12.83,35,0.190,8.24
5.4801,-0.00873,0.05934,0.35256,0.00000,0.00000,0.00000,46,2,67,0,38,9,64,33,ok,2,0,0.001,5,1.90,1.90,12.83,35,0.203,8.24
5.4853,-0.16057,0.02269,0.36652,0.00000,0.00000,0.00000,46,2,66,-2,39,8,64,34,ok,2,0,0.001,5,0.16,-2.05,9.35,36,0.000,8.24
5.4976,-0.16057,0.02269,0.36652,0.00000,0.00000,0.00000,48,2,64,-3,40,7,64,36,ok,2,0,0.001,5,0.16,-2.05,9.35,36,0.012,8.24
5.5201,-0.16057,0.02269,0.36652,0.00000,0.00000,0.00000,48,2,62,-4,41,6,65,36,ok,2,0,0.001,5,0.16,-2.05,9.35,36,0.025,8.24
5.5232,-0.16057,0.02269,0.36652,0.00000,0.00000,0.00000,48,2,61,-5,42,6,66,35,ok,2,0,0.001,5,0.16,-2.05,9.35,36,0.038,8.24
5.5359,-0.16057,0.02269,0.36652,0.00000,0.00000,0.00000,49,2,60,-7,43,6,68,33,ok,2,0,0.001,5,0.16,-2.05,9.35,36,0.051,8.24
5.5561,-0.16057,0.02269,0.36652,0.00000,0.00000,0.00000,50,2,57,-7,44,6,70,27,ok,2,0,0.001,5,0.16,-2.05,9.35,36,0.064,8.24
5.5610,-0.16057,0.02269,0.36652,0.00000,0.00000,0.00000,50,2,55,-8,45,7,71,24,ok,2,0,0.001,5,0.16,-2.05,9.35,36,0.076,8.24
5.5735,-0.16057,0.02269,0.36652,0.00000,0.00000,0.00000,50,2,53,-8,46,7,73,21,ok,2,0,0.001,5,0.16,-2.05,9.35,36,0.089,8.24
5.5961,-0.16057,0.02269,0.36652,0.00000,0.00000,0.00000,50,4,51,-9,47,7,73,21,ok,2,0,0.001,5,0.16,-2.05,9.35,36,0.101,8.24
5.5992,-0.16057,0.02269,0.36652,0.00000,0.00000,0.00000,51,5,49,-10,48,7,73,19,ok,2,0,0.001,6,0.16,-2.05,9.35,36,0.114,8.24
5.6119,-0.16057,0.02269,0.36652,0.00000,0.00000,0.00000,52,4,46,-10,49,7,73,15,ok,2,0,0.001,6,0.16,-2.05,9.35,36,0.127,8.24
5.6321,-0.16057,0.02269,0.36652,0.00000,0.00000,0.00000,52,6,44,-9,49,7,72,12,ok,2,0,0.001,6,0.16,-2.05,9.35,36,0.140,8.24
5.6370,-0.16057,0.02269,0.36652,0.00000,0.00000,0.00000,52,7,41,-10,50,7,72,11,ok,2,0,0.002,6,0.16,-2.05,9.35,36,0.152,8.24
5.6494,-0.16057,0.02269,0.36652,0.00000,0.00000,0.00000,53,7,39,-10,51,7,71,7,ok,2,0,0.002,6,0.16,-2.05,9.35,36,0.165,8.24
5.6721,-0.16057,0.02269,0.36652,0.00000,0.00000,0.00000,54,7,36,-9,52,6,71,6,ok,2,0,0.002,6,0.16,-2.05,9.35,36,0.177,8.24
5.6756,-0.05585,0.01745,0.37001,0.00000,0.00000,0.00000,54,7,33,-9,52,7,70,4,ok,2,0,0.002,6,0.75,0.50,10.36,37,0.000,8.24
5.6880,-0.05585,0.01745,0.37001,0.00000,0.00000,0.00000,54,8,30,-8,53,7,68,2,ok,2,0,0.002,6,0.75,0.50,10.36,37,0.013,8.24
5.7081,-0.05585,0.01745,0.37001,0.00000,0.00000,0.00000,54,8,27,-7,54,8,66,2,ok,2,0,0.002,6,0.75,0.50,10.36,37,0.025,8.24
5.7130,-0.05585,0.01745,0.37001,0.00000,0.00000,0.00000,54,9,24,-5,55,8,64,0,ok,2,0,0.002,6,0.75,0.50,10.36,37,0.038,8.24
5.7256,-0.05585,0.01745,0.37001,0.00000,0.00000,0.00000,55,10,20,-3,56,8,63,-2,ok,2,0,0.002,6,0.75,0.50,10.36,37,0.050,8.24
5.7481,-0.05585,0.01745,0.37001,0.00000,0.00000,0.00000,55,11,19,-1,58,6,61,-3,ok,2,0,0.002,6,0.75,0.50,10.36,37,0.063,8.24
5.7512,-0.05585,0.01745,0.37001,0.00000,0.00000,0.00000,56,10,18,0,58,7,59,-4,ok,2,0,0.002,6,0.75,0.50,10.36,37,0.076,8.24
5.7641,-0.05585,0.01745,0.37001,0.00000,0.00000,0.00000,56,11,16,2,59,8,58,-4,ok,2,0,0.002,6,0.75,0.50,10.36,37,0.089,8.24
5.7841,-0.05585,0.01745,0.37001,0.00000,0.00000,0.00000,56,12,15,5,59,8,55,-5,ok,2,0,0.002,6,0.75,0.50,10.36,37,0.101,8.24
5.7890,-0.05585,0.01745,0.37001,0.00000,0.00000,0.00000,56,13,13,9,60,9,53,-6,ok,2,0,0.002,6,0.75,0.50,10.36,37,0.114,8.24
5.8014,-0.05585,0.01745,0.37001,0.00000,0.00000,0.00000,56,13,12,11,60,9,50,-5,ok,2,0,0.002,6,0.75,0.50,10.36,37,0.126,8.24
5.8241,-0.05585,0.01745,0.37001,0.00000,0.00000,0.00000,56,13,14,12,60,9,48,-5,ok,2,0,0.002,6,0.75,0.50,10.36,37,0.139,8.24
5.8273,-0.05585,0.01745,0.37001,0.00000,0.00000,0.00000,56,13,15,11,61,10,46,-5,ok,2,0,0.002,6,0.75,0.50,10.36,37,0.152,8.24
5.8402,-0.05585,0.01745,0.37001,0.00000,0.00000,0.00000,56,14,17,10,61,11,42,-4,ok,2,0,0.002,6,0.75,0.50,10.36,37,0.165,8.24
5.8601,-0.05585,0.01745,0.37001,0.00000,0.00000,0.00000,56,15,19,9,61,12,40,-4,ok,2,0,0.002,6,0.75,0.50,10.36,37,0.177,8.24
5.8649,-0.05585,0.01745,0.37001,0.00000,0.00000,0.00000,56,15,19,9,61,12,37,-3,ok,2,0,0.002,6,0.75,0.50,10.36,37,0.190,8.24
5.8778,0.00698,0.04887,0.36128,0.00000,0.00000,0.00000,56,16,21,8,62,13,35,-3,ok,2,0,0.002,6,0.04,0.12,9.55,38,0.000,8.24
5.9001,0.00698,0.04887,0.36128,0.00000,0.00000,0.00000,56,17,21,7,62,14,31,-1,ok,2,0,0.002,6,0.04,0.12,9.55,38,0.013,8.24
5.9034,0.00698,0.04887,0.36128,0.00000,0.00000,0.00000,57,19,23,6,63,14,29,0,ok,2,0,0.002,6,0.04,0.12,9.55,38,0.026,8.24
5.9159,0.00698,0.04887,0.36128,0.00000,0.00000,0.00000,57,20,24,5,63,15,27,2,ok,2,0,0.002,6,0.04,0.12,9.55,38,0.038,8.24
5.9361,0.00698,0.04887,0.36128,0.00000,0.00000,0.00000,58,21,24,5,63,16,25,5,ok,2,0,0.002,6,0.04,0.12,9.55,38,0.051,8.24
5.9409,0.00698,0.04887,0.36128,0.00000,0.00000,0.00000,58,22,25,4,64,17,24,7,ok,2,0,0.002,6,0.04,0.12,9.55,38,0.063,8.24
5.9534,0.00698,0.04887,0.36128,0.00000,0.00000,0.00000,58,23,26,3,64,17,23,11,ok,2,0,0.002,6,0.04,0.12,9.55,38,0.076,8.24
5.9761,0.00698,0.04887,0.36128,0.00000,0.00000,0.00000,57,26,27,3,64,18,22,13,ok,2,0,0.002,6,0.04,0.12,9.55,38,0.088,8.24
5.9792,0.00698,0.04887,0.36128,0.00000,0.00000,0.00000,57,27,27,2,64,20,24,12,ok,2,0,0.002,6,0.04,0.12,9.55,38,0.102,8.24
5.9921,0.00698,0.04887,0.36128,0.00000,0.00000,0.00000,58,25,29,2,64,21,25,12,ok,2,0,0.002,6,0.04,0.12,9.55,38,0.114,8.24
6.0121,0.00698,0.04887,0.36128,0.00000,0.00000,0.00000,58,22,30,2,65,22,25,10,ok,2,0,0.002,6,0.04,0.12,9.55,38,0.127,8.24
6.0169,0.00698,0.04887,0.36128,0.00000,0.00000,0.00000,60,18,31,1,64,23,27,9,ok,2,0,0.002,6,0.04,0.12,9.55,38,0.139,8.24
6.0294,0.00698,0.04887,0.36128,0.00000,0.00000,0.00000,60,13,32,2,64,25,28,10,ok,2,0,0.002,6,0.04,0.12,9.55,38,0.152,8.24
6.0521,0.00698,0.04887,0.36128,0.00000,0.00000,0.00000,60,11,34,2,65,25,29,9,ok,2,0,0.002,6,0.04,0.12,9.55,38,0.164,8.24
6.0552,0.00698,0.04887,0.36128,0.00000,0.00000,0.00000,60,11,35,2,64,28,30,9,ok,2,0,0.002,6,0.04,0.12,9.55,38,0.178,8.24
6.0681,0.00698,0.04887,0.36128,0.00000,0.00000,0.00000,60,7,37,2,64,29,32,9,ok,2,0,0.002,6,0.04,0.12,9.55,38,0.190,8.24
6.0881,-0.11868,0.04887,0.43284,0.00000,0.00000,0.00000,60,5,39,3,64,30,33,9,ok,2,0,0.002,6,0.16,-0.88,9.48,39,0.000,8.24
6.0929,-0.11868,0.04887,0.43284,0.00000,0.00000,0.00000,60,2,40,3,64,31,35,9,ok,2,0,0.002,6,0.16,-0.88,9.48,39,0.012,8.24
6.1056,-0.11868,0.04887,0.43284,0.00000,0.00000,0.00000,59,-1,42,3,63,33,36,9,ok,2,0,0.002,6,0.16,-0.88,9.48,39,0.025,8.24
6.1281,-0.11868,0.04887,0.43284,0.00000,0.00000,0.00000,58,-3,43,3,63,34,37,9,ok,2,0,0.002,6,0.16,-0.88,9.48,39,0.038,8.24
6.1312,-0.11868,0.04887,0.43284,0.00000,0.00000,0.00000,58,-4,44,3,64,35,39,8,ok,2,0,0.002,6,0.16,-0.88,9.48,39,0.051,8.24
6.1440,-0.11868,0.04887,0.43284,0.00000,0.00000,0.00000,56,-6,44,3,65,35,40,8,ok,2,0,0.002,6,0.16,-0.88,9.48,39,0.064,8.24
6.1645,-0.11868,0.04887,0.43284,0.00000,0.00000,0.00000,56,-7,45,4,67,33,41,7,ok,2,0,0.002,6,0.16,-0.88,9.48,39,0.076,8.24
6.1691,-0.11868,0.04887,0.43284,0.00000,0.00000,0.00000,56,-9,46,4,69,28,42,7,ok,2,0,0.002,6,0.16,-0.88,9.48,39,0.089,8.24
6.1816,-0.11868,0.04887,0.43284,0.00000,0.00000,0.00000,54,-10,48,5,71,24,43,7,ok,2,0,0.002,6,0.16,-0.88,9.48,39,0.101,8.24
6.2041,-0.11868,0.04887,0.43284,0.00000,0.00000,0.00000,54,-11,49,4,73,21,44,8,ok,2,0,0.002,6,0.16,-0.88,9.48,39,0.114,8.24
6.2072,-0.11868,0.04887,0.43284,0.00000,0.00000,0.00000,52,-11,49,4,74,20,45,8,ok,2,0,0.002,6,0.16,-0.88,9.48,39,0.127,8.24
6.2200,-0.11868,0.04887,0.43284,0.00000,0.00000,0.00000,51,-12,49,6,74,18,46,8,ok,2,0,0.002,6,0.16,-0.88,9.48,39,0.140,8.24
6.2401,-0.11868,0.04887,0.43284,0.00000,0.00000,0.00000,50,-11,51,6,74,14,47,8,ok,2,0,0.002,6,0.16,-0.88,9.48,39,0.152,8.24
6.2452,-0.11868,0.04887,0.43284,0.00000,0.00000,0.00000,48,-11,51,6,73,11,48,8,ok,2,0,0.002,6,0.16,-0.88,9.48,39,0.165,8.24
6.2574,-0.11868,0.04887,0.43284,0.00000,0.00000,0.00000,47,-10,52,6,73,9,49,8,ok,2,0,0.002,6,0.16,-0.88,9.48,39,0.177,8.24
6.2801,-0.11868,0.04887,0.43284,0.00000,0.00000,0.00000,46,-11,53,7,72,6,50,9,ok,2,0,0.002,6,0.16,-0.88,9.48,39,0.190,8.24
6.2836,0.04189,-0.01571,0.43110,0.00000,0.00000,0.00000,44,-11,55,7,72,4,50,8,ok,2,0,0.002,6,-0.46,0.44,9.78,40,0.000,8.24
6.2960,0.04189,-0.01571,0.43110,0.00000,0.00000,0.00000,43,-10,55,6,71,4,51,9,ok,2,0,0.002,6,-0.46,0.44,9.78,40,0.013,8.24
6.3161,0.04189,-0.01571,0.43110,0.00000,0.00000,0.00000,42,-8,56,6,70,1,51,8,ok,2,0,0.002,6,-0.46,0.44,9.78,40,0.025,8.24
6.3212,0.04189,-0.01571,0.43110,0.00000,0.00000,0.00000,40,-7,57,7,67,2,52,9,ok,2,0,0.002,6,-0.46,0.44,9.78,40,0.038,8.24
6.3334,0.04189,-0.01571,0.43110,0.00000,0.00000,0.00000,38,-5,58,7,66,0,52,9,ok,2,0,0.002,6,-0.46,0.44,9.78,40,0.050,8.24
6.3561,0.04189,-0.01571,0.43110,0.00000,0.00000,0.00000,37,-3,58,7,64,-2,54,9,ok,2,0,0.002,6,-0.46,0.44,9.78,40,0.063,8.24
6.3593,0.04189,-0.01571,0.43110,0.00000,0.00000,0.00000,35,0,59,8,62,-4,54,9,ok,2,0,0.002,6,-0.46,0.44,9.78,40,0.076,8.24
6.3719,0.04189,-0.01571,0.43110,0.00000,0.00000,0.00000,35,0,60,9,61,-5,54,8,ok,2,0,0.002,6,-0.46,0.44,9.78,40,0.089,8.24
6.3921,0.04189,-0.01571,0.43110,0.00000,0.00000,0.00000,34,1,61,9,59,-6,56,6,ok,2,0,0.002,6,-0.46,0.44,9.78,40,0.101,8.24
6.3972,0.04189,-0.01571,0.43110,0.00000,0.00000,0.00000,34,3,61,10,56,-7,57,7,ok,2,0,0.002,6,-0.46,0.44,9.78,40,0.114,8.24
6.4094,0.04189,-0.01571,0.43110,0.00000,0.00000,0.00000,32,6,61,10,54,-7,57,8,ok,2,0,0.002,6,-0.46,0.44,9.78,40,0.126,8.24
6.4321,0.04189,-0.01571,0.43110,0.00000,0.00000,0.00000,32,9,61,12,51,-6,58,8,ok,2,0,0.002,6,-0.46,0.44,9.78,40,0.139,8.24
6.4354,0.04189,-0.01571,0.43110,0.00000,0.00000,0.00000,32,11,62,12,48,-6,58,9,ok,2,0,0.002,6,-0.46,0.44,9.78,40,0.152,8.24
6.4480,0.04189,-0.01571,0.43110,0.00000,0.00000,0.00000,32,11,62,13,46,-6,59,10,ok,2,0,0.002,6,-0.46,0.44,9.78,40,0.165,8.24
6.4681,0.04189,-0.01571,0.43110,0.00000,0.00000,0.00000,32,11,62,14,43,-5,59,10,ok,2,0,0.002,6,-0.46,0.44,9.78,40,0.177,8.24
6.4730,0.04189,-0.01571,0.43110,0.00000,0.00000,0.00000,33,10,62,14,40,-5,60,11,ok,2,0,0.002,6,-0.46,0.44,9.78,40,0.190,8.24
6.4858,-0.06632,0.05760,0.46775,0.00000,0.00000,0.00000,34,9,62,14,37,-4,60,12,ok,2,0,0.002,6,1.48,-1.02,10.97,41,0.000,8.24
6.5081,-0.06632,0.05760,0.46775,0.00000,0.00000,0.00000,34,8,63,15,34,-4,61,13,ok,2,0,0.002,6,1.48,-1.02,10.97,41,0.013,8.24
6.5112,-0.06632,0.05760,0.46775,0.00000,0.00000,0.00000,36,7,63,16,31,-2,61,13,ok,2,0,0.002,6,1.48,-1.02,10.97,41,0.026,8.24
6.5240,-0.06632,0.05760,0.46775,0.00000,0.00000,0.00000,36,7,63,17,29,-1,62,14,ok,2,0,0.002,6,1.48,-1.02,10.97,41,0.038,8.24
6.5441,-0.06632,0.05760,0.46775,0.00000,0.00000,0.00000,36,5,64,19,27,1,62,15,ok,2,0,0.002,6,1.48,-1.02,10.97,41,0.051,8.24
6.5490,-0.06632,0.05760,0.46775,0.00000,0.00000,0.00000,37,4,64,20,25,4,63,15,ok,2,0,0.002,6,1.48,-1.02,10.97,41,0.063,8.24
6.5614,-0.06632,0.05760,0.46775,0.00000,0.00000,0.00000,37,3,64,21,24,7,63,17,ok,2,0,0.002,6,1.48,-1.02,10.97,41,0.076,8.24
6.5841,-0.06632,0.05760,0.46775,0.00000,0.00000,0.00000,38,3,64,23,23,11,63,18,ok,2,0,0.002,6,1.48,-1.02,10.97,41,0.088,8.24
6.5874,-0.06632,0.05760,0.46775,0.00000,0.00000,0.00000,38,2,64,24,22,14,64,18,ok,2,0,0.002,6,1.48,-1.02,10.97,41,0.102,8.24
6.6000,-0.06632,0.05760,0.46775,0.00000,0.00000,0.00000,38,2,63,26,24,13,64,19,ok,2,0,0.002,6,1.48,-1.02,10.97,41,0.114,8.24
6.6201,-0.06632,0.05760,0.46775,0.00000,0.00000,0.00000,39,1,63,28,24,13,65,20,ok,2,0,0.002,7,1.48,-1.02,10.97,41,0.127,8.24
6.6250,-0.06632,0.05760,0.46775,0.00000,0.00000,0.00000,40,2,64,26,25,11,65,21,ok,2,0,0.002,7,1.48,-1.02,10.97,41,0.139,8.24
6.6374,-0.06632,0.05760,0.46775,0.00000,0.00000,0.00000,40,1,67,22,27,10,65,22,ok,2,0,0.002,7,1.48,-1.02,10.97,41,0.152,8.24
6.6601,-0.06632,0.05760,0.46775,0.00000,0.00000,0.00000,41,1,69,19,28,10,65,23,ok,2,0,0.002,7,1.48,-1.02,10.97,41,0.165,8.24
6.6634,-0.06632,0.05760,0.46775,0.00000,0.00000,0.00000,42,1,70,15,29,10,65,24,ok,2,0,0.002,7,1.48,-1.02,10.97,41,0.178,8.24
6.6759,-0.06632,0.05760,0.46775,0.00000,0.00000,0.00000,42,1,70,12,30,9,65,26,ok,2,0,0.002,7,1.48,-1.02,10.97,41,0.190,8.24
6.6961,-0.06632,0.05760,0.46775,0.00000,0.00000,0.00000,44,1,70,12,33,9,65,27,ok,2,0,0.002,7,1.48,-1.02,10.97,41,0.203,8.24
6.7013,-0.11170,-0.00524,0.46775,0.00000,0.00000,0.00000,44,1,70,8,33,9,64,29,ok,2,0,0.002,7,0.62,-1.42,10.32,42,0.000,8.24
6.7136,-0.11170,-0.00524,0.46775,0.00000,0.00000,0.00000,45,2,69,6,35,8,64,30,ok,2,0,0.002,7,0.62,-1.42,10.32,42,0.013,8.24
6.7361,-0.11170,-0.00524,0.46775,0.00000,0.00000,0.00000,46,2,68,3,37,8,65,31,ok,2,0,0.002,7,0.62,-1.42,10.32,42,0.025,8.24
6.7393,-0.11170,-0.00524,0.46775,0.00000,0.00000,0.00000,46,2,67,0,38,8,64,33,ok,2,0,0.002,7,0.62,-1.42,10.32,42,0.038,8.24
6.7522,-0.11170,-0.00524,0.46775,0.00000,0.00000,0.00000,47,2,66,-2,38,8,64,35,ok,2,0,0.002,7,0.62,-1.42,10.32,42,0.051,8.24
6.7721,-0.11170,-0.00524,0.46775,0.00000,0.00000,0.00000,48,2,64,-3,40,8,64,36,ok,2,0,0.002,7,0.62,-1.42,10.32,42,0.064,8.24
6.7769,-0.11170,-0.00524,0.46775,0.00000,0.00000,0.00000,48,2,62,-4,41,7,65,36,ok,2,0,0.002,7,0.62,-1.42,10.32,42,0.076,8.24
6.7894,-0.11170,-0.00524,0.46775,0.00000,0.00000,0.00000,48,3,61,-5,42,7,66,35,ok,2,0,0.002,7,0.62,-1.42,10.32,42,0.089,8.24
6.8121,-0.11170,-0.00524,0.46775,0.00000,0.00000,0.00000,49,3,60,-8,43,7,67,33,ok,2,0,0.002,7,0.62,-1.42,10.32,42,0.101,8.24
6.8152,-0.11170,-0.00524,0.46775,0.00000,0.00000,0.00000,50,3,58,-8,44,7,69,27,ok,2,0,0.002,7,0.62,-1.42,10.32,42,0.114,8.24
6.8280,-0.11170,-0.00524,0.46775,0.00000,0.00000,0.00000,50,3,55,-9,45,7,70,24,ok,2,0,0.002,7,0.62,-1.42,10.32,42,0.127,8.24
6.8481,-0.11170,-0.00524,0.46775,0.00000,0.00000,0.00000,50,3,53,-9,46,7,72,21,ok,2,0,0.002,7,0.62,-1.42,10.32,42,0.140,8.24
6.8530,-0.11170,-0.00524,0.46775,0.00000,0.00000,0.00000,50,5,51,-10,47,7,72,21,ok,2,0,0.002,7,0.62,-1.42,10.32,42,0.152,8.24
6.8654,-0.11170,-0.00524,0.46775,0.00000,0.00000,0.00000,51,6,49,-10,47,7,72,19,ok,2,0,0.002,7,0.62,-1.42,10.32,42,0.165,8.24
6.8881,-0.11170,-0.00524,0.46775,0.00000,0.00000,0.00000,52,6,46,-10,48,7,72,15,ok,2,0,0.002,7,0.62,-1.42,10.32,42,0.177,8.24
6.8913,-0.11170,-0.00524,0.46775,0.00000,0.00000,0.00000,52,6,44,-10,49,7,72,13,ok,2,0,0.002,7,0.62,-1.42,10.32,42,0.190,8.24
6.9044,-0.09774,-0.01222,0.48695,0.00000,0.00000,0.00000,52,7,41,-10,50,7,71,11,ok,2,0,0.002,7,-1.10,-0.55,10.32,43,0.000,8.24
6.9241,-0.09774,-0.01222,0.48695,0.00000,0.00000,0.00000,54,7,39,-10,51,7,71,8,ok,2,0,0.002,7,-1.10,-0.55,10.32,43,0.013,8.24
6.9289,-0.09774,-0.01222,0.48695,0.00000,0.00000,0.00000,54,7,37,-9,52,6,70,6,ok,2,0,0.002,7,-1.10,-0.55,10.32,43,0.025,8.24
6.9414,-0.09774,-0.01222,0.48695,0.00000,0.00000,0.00000,54,7,33,-9,52,7,69,4,ok,2,0,0.002,7,-1.10,-0.55,10.32,43,0.038,8.24
6.9641,-0.09774,-0.01222,0.48695,0.00000,0.00000,0.00000,54,8,31,-7,53,7,68,2,ok,2,0,0.002,7,-1.10,-0.55,10.32,43,0.050,8.24
6.9672,-0.09774,-0.01222,0.48695,0.00000,0.00000,0.00000,54,8,27,-6,54,8,66,2,ok,2,0,0.002,7,-1.10,-0.55,10.32,43,0.063,8.24
6.9800,-0.09774,-0.01222,0.48695,0.00000,0.00000,0.00000,54,9,24,-5,55,8,65,0,ok,2,0,0.002,7,-1.10,-0.55,10.32,43,0.076,8.24
7.0001,-0.09774,-0.01222,0.48695,0.00000,0.00000,0.00000,55,10,21,-2,56,8,64,-2,ok,2,0,0.002,7,-1.10,-0.55,10.32,43,0.088,8.24
7.0051,-0.09774,-0.01222,0.48695,0.00000,0.00000,0.00000,56,10,19,-1,58,6,62,-3,ok,2,0,0.002,7,-1.10,-0.55,10.32,43,0.101,8.24
7.0174,-0.09774,-0.01222,0.48695,0.00000,0.00000,0.00000,56,10,18,1,58,7,59,-4,ok,2,0,0.002,7,-1.10,-0.55,10.32,43,0.113,8.24
7.0401,-0.09774,-0.01222,0.48695,0.00000,0.00000,0.00000,56,11,16,3,59,8,58,-4,ok,2,0,0.002,7,-1.10,-0.55,10.32,43,0.126,8.24
7.0433,-0.09774,-0.01222,0.48695,0.00000,0.00000,0.00000,56,11,15,6,59,8,55,-5,ok,2,0,0.002,7,-1.10,-0.55,10.32,43,0.139,8.24
7.0559,-0.09774,-0.01222,0.48695,0.00000,0.00000,0.00000,56,12,13,9,60,9,53,-6,ok,2,0,0.002,7,-1.10,-0.55,10.32,43,0.152,8.24
7.0761,-0.09774,-0.01222,0.48695,0.00000,0.00000,0.00000,56,12,13,12,60,9,50,-5,ok,2,0,0.002,7,-1.10,-0.55,10.32,43,0.164,8.24
7.0811,-0.09774,-0.01222,0.48695,0.00000,0.00000,0.00000,56,13,14,12,60,9,48,-5,ok,2,0,0.002,7,-1.10,-0.55,10.32,43,0.177,8.24
7.0937,-0.09774,-0.01222,0.48695,0.00000,0.00000,0.00000,56,14,15,11,61,10,46,-5,ok,2,0,0.002,7,-1.10,-0.55,10.32,43,0.189,8.24
7.1161,0.06632,0.09250,0.45029,0.00000,0.00000,0.00000,56,14,17,10,61,10,42,-4,ok,2,0,0.002,7,0.93,0.80,10.51,44,0.000,8.24
7.1192,0.06632,0.09250,0.45029,0.00000,0.00000,0.00000,56,15,19,9,61,12,40,-4,ok,2,0,0.002,7,0.93,0.80,10.51,44,0.013,8.24
7.1320,0.06632,0.09250,0.45029,0.00000,0.00000,0.00000,56,16,19,9,61,13,36,-3,ok,2,0,0.002,7,0.93,0.80,10.51,44,0.026,8.24
7.1521,0.06632,0.09250,0.45029,0.00000,0.00000,0.00000,56,17,21,7,62,13,34,-3,ok,2,0,0.002,7,0.93,0.80,10.51,44,0.038,8.24
7.1569,0.06632,0.09250,0.45029,0.00000,0.00000,0.00000,56,18,21,7,63,14,30,-1,ok,2,0,0.002,7,0.93,0.80,10.51,44,0.051,8.24
7.1694,0.06632,0.09250,0.45029,0.00000,0.00000,0.00000,58,20,23,6,63,14,29,0,ok,2,0,0.002,7,0.93,0.80,10.51,44,0.063,8.24
7.1921,0.06632,0.09250,0.45029,0.00000,0.00000,0.00000,58,21,24,4,63,15,26,1,ok,2,0,0.002,7,0.93,0.80,10.51,44,0.076,8.24
7.1952,0.06632,0.09250,0.45029,0.00000,0.00000,0.00000,58,22,24,4,63,16,25,5,ok,2,0,0.002,7,0.93,0.80,10.51,44,0.089,8.24
7.2080,0.06632,0.09250,0.45029,0.00000,0.00000,0.00000,58,23,25,3,63,17,24,7,ok,2,0,0.002,7,0.93,0.80,10.51,44,0.102,8.24
7.2281,0.06632,0.09250,0.45029,0.00000,0.00000,0.00000,58,24,25,3,64,18,23,11,ok,2,0,0.002,7,0.93,0.80,10.51,44,0.114,8.24
7.2329,0.06632,0.09250,0.45029,0.00000,0.00000,0.00000,57,26,26,2,64,19,22,13,ok,2,0,0.002,7,0.93,0.80,10.51,44,0.127,8.24
7.2456,0.06632,0.09250,0.45029,0.00000,0.00000,0.00000,57,27,27,2,64,20,24,12,ok,2,0,0.002,7,0.93,0.80,10.51,44,0.139,8.24
7.2681,0.06632,0.09250,0.45029,0.00000,0.00000,0.00000,58,25,28,2,65,21,25,11,ok,2,0,0.002,7,0.93,0.80,10.51,44,0.152,8.24
7.2713,0.06632,0.09250,0.45029,0.00000,0.00000,0.00000,58,21,29,2,65,22,25,10,ok,2,0,0.002,7,0.93,0.80,10.51,44,0.165,8.24
7.2839,0.06632,0.09250,0.45029,0.00000,0.00000,0.00000,60,17,30,1,65,23,27,9,ok,2,0,0.002,7,0.93,0.80,10.51,44,0.178,8.24
7.3041,-0.08378,0.06283,0.50440,0.00000,0.00000,0.00000,60,13,32,2,64,25,28,10,ok,2,0,0.002,7,-0.54,-1.77,8.66,45,0.000,8.24
7.3090,-0.08378,0.06283,0.50440,0.00000,0.00000,0.00000,60,10,33,2,65,25,30,9,ok,2,0,0.002,7,-0.54,-1.77,8.66,45,0.013,8.24
7.3214,-0.08378,0.06283,0.50440,0.00000,0.00000,0.00000,60,10,35,2,64,27,31,9,ok,2,0,0.002,7,-0.54,-1.77,8.66,45,0.025,8.24
7.3441,-0.08378,0.06283,0.50440,0.00000,0.00000,0.00000,60,6,36,2,64,28,33,9,ok,2,0,0.002,7,-0.54,-1.77,8.66,45,0.038,8.24
7.3473,-0.08378,0.06283,0.50440,0.00000,0.00000,0.00000,60,3,38,3,64,30,34,9,ok,2,0,0.002,7,-0.54,-1.77,8.66,45,0.051,8.24
7.3602,-0.08378,0.06283,0.50440,0.00000,0.00000,0.00000,60,1,39,4,64,32,35,9,ok,2,0,0.002,7,-0.54,-1.77,8.66,45,0.064,8.24
7.3801,-0.08378,0.06283,0.50440,0.00000,0.00000,0.00000,59,-2,41,3,64,34,37,8,ok,2,0,0.002,7,-0.54,-1.77,8.66,45,0.076,8.24
7.3850,-0.08378,0.06283,0.50440,0.00000,0.00000,0.00000,58,-4,42,3,64,35,37,9,ok,2,0,0.002,7,-0.54,-1.77,8.66,45,0.089,8.24
7.3975,-0.08378,0.06283,0.50440,0.00000,0.00000,0.00000,58,-5,44,3,64,35,38,8,ok,2,0,0.002,7,-0.54,-1.77,8.66,45,0.101,8.24
7.4201,-0.08378,0.06283,0.50440,0.00000,0.00000,0.00000,56,-6,44,3,66,35,39,8,ok,2,0,0.002,7,-0.54,-1.77,8.66,45,0.114,8.24
7.4234,-0.08378,0.06283,0.50440,0.00000,0.00000,0.00000,56,-7,45,3,68,33,41,7,ok,2,0,0.002,7,-0.54,-1.77,8.66,45,0.127,8.24
7.4359,-0.08378,0.06283,0.50440,0.00000,0.00000,0.00000,56,-9,46,3,69,28,42,7,ok,2,0,0.002,7,-0.54,-1.77,8.66,45,0.140,8.24
7.4561,-0.08378,0.06283,0.50440,0.00000,0.00000,0.00000,54,-9,48,4,71,24,43,7,ok,2,0,0.002,7,-0.54,-1.77,8.66,45,0.152,8.24
7.4609,-0.08378,0.06283,0.50440,0.00000,0.00000,0.00000,53,-10,49,4,73,21,44,7,ok,2,0,0.002,7,-0.54,-1.77,8.66,45,0.165,8.24
7.4734,-0.08378,0.06283,0.50440,0.00000,0.00000,0.00000,52,-10,49,3,74,20,45,8,ok,2,0,0.002,7,-0.54,-1.77,8.66,45,0.177,8.24
7.4961,-0.08378,0.06283,0.50440,0.00000,0.00000,0.00000,51,-11,49,6,74,18,46,8,ok,2,0,0.002,7,-0.54,-1.77,8.66,45,0.190,8.24
7.4997,0.01396,0.07156,0.53756,0.00000,0.00000,0.00000,50,-11,51,6,74,14,47,8,ok,2,0,0.002,7,-0.48,0.53,9.95,46,0.000,8.24
7.5122,0.01396,0.07156,0.53756,0.00000,0.00000,0.00000,48,-11,51,6,74,12,48,8,ok,2,0,0.002,7,-0.48,0.53,9.95,46,0.013,8.24
7.5321,0.01396,0.07156,0.53756,0.00000,0.00000,0.00000,47,-10,52,6,73,10,49,8,ok,2,0,0.002,7,-0.48,0.53,9.95,46,0.025,8.24
7.5370,0.01396,0.07156,0.53756,0.00000,0.00000,0.00000,46,-10,53,7,72,7,49,9,ok,2,0,0.002,7,-0.48,0.53,9.95,46,0.038,8.24
7.5494,0.01396,0.07156,0.53756,0.00000,0.00000,0.00000,44,-11,55,6,72,5,49,8,ok,2,0,0.002,7,-0.48,0.53,9.95,46,0.050,8.24
7.5721,0.01396,0.07156,0.53756,0.00000,0.00000,0.00000,43,-9,55,6,71,4,51,9,ok,2,0,0.002,7,-0.48,0.53,9.95,46,0.063,8.24
7.5752,0.01396,0.07156,0.53756,0.00000,0.00000,0.00000,42,-8,56,6,69,1,51,8,ok,2,0,0.002,7,-0.48,0.53,9.95,46,0.076,8.24
7.5879,0.01396,0.07156,0.53756,0.00000,0.00000,0.00000,40,-7,57,7,66,1,52,8,ok,2,0,0.002,7,-0.48,0.53,9.95,46,0.089,8.24
7.6081,0.01396,0.07156,0.53756,0.00000,0.00000,0.00000,38,-5,57,7,65,-1,53,8,ok,2,0,0.002,7,-0.48,0.53,9.95,46,0.101,8.24
7.6130,0.01396,0.07156,0.53756,0.00000,0.00000,0.00000,37,-3,58,8,64,-3,54,9,ok,2,0,0.002,7,-0.48,0.53,9.95,46,0.114,8.24
7.6254,0.01396,0.07156,0.53756,0.00000,0.00000,0.00000,35,-1,59,9,62,-4,55,8,ok,2,0,0.002,8,-0.48,0.53,9.95,46,0.126,8.24
7.6481,0.01396,0.07156,0.53756,0.00000,0.00000,0.00000,34,-1,59,10,61,-5,55,8,ok,2,0,0.002,8,-0.48,0.53,9.95,46,0.139,8.24
7.6513,0.01396,0.07156,0.53756,0.00000,0.00000,0.00000,34,-1,60,10,59,-6,57,6,ok,2,0,0.002,8,-0.48,0.53,9.95,46,0.152,8.24
7.6640,0.01396,0.07156,0.53756,0.00000,0.00000,0.00000,33,2,60,11,56,-6,57,7,ok,2,0,0.002,8,-0.48,0.53,9.95,46,0.165,8.24
7.6841,0.01396,0.07156,0.53756,0.00000,0.00000,0.00000,32,5,60,11,54,-7,58,8,ok,2,0,0.002,8,-0.48,0.53,9.95,46,0.177,8.24
7.6890,0.01396,0.07156,0.53756,0.00000,0.00000,0.00000,32,8,60,12,51,-6,59,8,ok,2,0,0.002,8,-0.48,0.53,9.95,46,0.190,8.24
7.7016,0.01396,0.07156,0.53756,0.00000,0.00000,0.00000,31,10,61,12,48,-6,59,9,ok,2,0,0.002,8,-0.48,0.53,9.95,46,0.202,8.24
7.7241,-0.00698,0.00524,0.57247,0.00000,0.00000,0.00000,32,11,61,13,46,-6,60,10,ok,2,0,0.002,8,0.70,-0.34,9.86,47,0.000,8.24
7.7274,-0.00698,0.00524,0.57247,0.00000,0.00000,0.00000,32,10,61,13,43,-5,60,10,ok,2,0,0.002,8,0.70,-0.34,9.86,47,0.013,8.24
7.7399,-0.00698,0.00524,0.57247,0.00000,0.00000,0.00000,32,9,62,14,41,-5,61,11,ok,2,0,0.002,8,0.70,-0.34,9.86,47,0.026,8.24
7.7601,-0.00698,0.00524,0.57247,0.00000,0.00000,0.00000,34,8,61,14,38,-4,61,12,ok,2,0,0.002,8,0.70,-0.34,9.86,47,0.039,8.24
7.7649,-0.00698,0.00524,0.57247,0.00000,0.00000,0.00000,34,8,62,15,35,-3,62,13,ok,2,0,0.002,8,0.70,-0.34,9.86,47,0.051,8.24
7.7776,-0.00698,0.00524,0.57247,0.00000,0.00000,0.00000,35,7,63,16,32,-2,62,13,ok,2,0,0.002,8,0.70,-0.34,9.86,47,0.063,8.24
7.8001,-0.00698,0.00524,0.57247,0.00000,0.00000,0.00000,36,7,63,17,30,0,63,14,ok,2,0,0.002,8,0.70,-0.34,9.86,47,0.076,8.24
7.8032,-0.00698,0.00524,0.57247,0.00000,0.00000,0.00000,36,6,64,18,28,1,63,15,ok,2,0,0.002,8,0.70,-0.34,9.86,47,0.089,8.24
7.8159,-0.00698,0.00524,0.57247,0.00000,0.00000,0.00000,37,5,64,19,26,4,63,15,ok,2,0,0.002,8,0.70,-0.34,9.86,47,0.102,8.24
7.8361,-0.00698,0.00524,0.57247,0.00000,0.00000,0.00000,37,5,64,20,25,7,63,16,ok,2,0,0.002,8,0.70,-0.34,9.86,47,0.114,8.24
7.8409,-0.00698,0.00524,0.57247,0.00000,0.00000,0.00000,38,4,64,21,23,11,63,17,ok,2,0,0.002,8,0.70,-0.34,9.86,47,0.127,8.24
7.8536,-0.00698,0.00524,0.57247,0.00000,0.00000,0.00000,38,3,64,22,22,14,64,18,ok,2,0,0.002,8,0.70,-0.34,9.86,47,0.139,8.24
7.8761,-0.00698,0.00524,0.57247,0.00000,0.00000,0.00000,39,3,63,25,24,13,64,19,ok,2,0,0.002,8,0.70,-0.34,9.86,47,0.152,8.24
7.8793,-0.00698,0.00524,0.57247,0.00000,0.00000,0.00000,40,2,63,27,24,13,64,20,ok,2,0,0.002,8,0.70,-0.34,9.86,47,0.165,8.24
7.8920,-0.00698,0.00524,0.57247,0.00000,0.00000,0.00000,40,2,64,25,25,11,64,21,ok,2,0,0.002,8,0.70,-0.34,9.86,47,0.178,8.24
7.9121,-0.03665,0.02269,0.58992,0.00000,0.00000,0.00000,40,2,67,22,26,11,65,21,ok,2,0,0.002,8,-0.33,-0.53,9.83,48,0.000,8.24
7.9170,-0.03665,0.02269,0.58992,0.00000,0.00000,0.00000,41,1,69,19,27,11,65,22,ok,2,0,0.002,8,-0.33,-0.53,9.83,48,0.012,8.24
7.9294,-0.03665,0.02269,0.58992,0.00000,0.00000,0.00000,42,1,70,15,29,10,64,24,ok,2,0,0.002,8,-0.33,-0.53,9.83,48,0.025,8.24
7.9521,-0.03665,0.02269,0.58992,0.00000,0.00000,0.00000,42,1,71,13,30,9,64,26,ok,2,0,0.002,8,-0.33,-0.53,9.83,48,0.038,8.24
7.9552,-0.03665,0.02269,0.58992,0.00000,0.00000,0.00000,44,1,70,12,32,9,65,26,ok,2,0,0.002,8,-0.33,-0.53,9.83,48,0.051,8.24
7.9680,-0.03665,0.02269,0.58992,0.00000,0.00000,0.00000,44,1,70,9,33,9,64,29,ok,2,0,0.002,8,-0.33,-0.53,9.83,48,0.063,8.24
7.9881,-0.03665,0.02269,0.58992,0.00000,0.00000,0.00000,45,2,69,6,35,9,64,30,ok,2,0,0.002,8,-0.33,-0.53,9.83,48,0.076,8.24
7.9929,-0.03665,0.02269,0.58992,0.00000,0.00000,0.00000,46,2,69,3,36,8,64,31,ok,2,0,0.002,8,-0.33,-0.53,9.83,48,0.088,8.24
8.0056,-0.03665,0.02269,0.58992,0.00000,0.00000,0.00000,46,2,67,1,37,9,64,33,ok,2,0,0.002,8,-0.33,-0.53,9.83,48,0.101,8.24
8.0281,-0.03665,0.02269,0.58992,0.00000,0.00000,0.00000,47,2,66,-2,39,8,63,34,ok,2,0,0.002,8,-0.33,-0.53,9.83,48,0.113,8.24
8.0312,-0.03665,0.02269,0.58992,0.00000,0.00000,0.00000,48,2,64,-3,39,8,63,36,ok,2,0,0.002,8,-0.33,-0.53,9.83,48,0.127,8.24
8.0440,-0.03665,0.02269,0.58992,0.00000,0.00000,0.00000,48,2,62,-4,41,7,64,36,ok,2,0,0.002,8,-0.33,-0.53,9.83,48,0.140,8.24
8.0641,-0.03665,0.02269,0.58992,0.00000,0.00000,0.00000,48,3,61,-6,42,7,65,35,ok,2,0,0.002,8,-0.33,-0.53,9.83,48,0.152,8.24
8.0689,-0.03665,0.02269,0.58992,0.00000,0.00000,0.00000,49,3,60,-8,43,7,67,33,ok,2,0,0.002,8,-0.33,-0.53,9.83,48,0.164,8.24
8.0816,-0.03665,0.02269,0.58992,0.00000,0.00000,0.00000,50,3,58,-8,44,7,69,27,ok,2,0,0.002,8,-0.33,-0.53,9.83,48,0.177,8.24
8.1041,-0.03665,0.02269,0.58992,0.00000,0.00000,0.00000,50,3,55,-9,45,7,71,24,ok,2,0,0.002,8,-0.33,-0.53,9.83,48,0.189,8.24
8.1074,-0.03665,0.02269,0.58992,0.00000,0.00000,0.00000,50,3,53,-9,46,7,72,21,ok,2,0,0.002,8,-0.33,-0.53,9.83,48,0.203,8.24
8.1203,-0.10123,0.03491,0.63530,0.00000,0.00000,0.00000,50,5,51,-10,47,7,72,20,ok,2,0,0.002,8,0.83,-1.99,8.53,49,0.000,8.24
8.1401,-0.10123,0.03491,0.63530,0.00000,0.00000,0.00000,51,6,49,-10,47,7,73,18,ok,2,0,0.002,8,0.83,-1.99,8.53,49,0.012,8.24
8.1450,-0.10123,0.03491,0.63530,0.00000,0.00000,0.00000,52,5,46,-10,48,7,73,15,ok,2,0,0.002,8,0.83,-1.99,8.53,49,0.025,8.24
8.1574,-0.10123,0.03491,0.63530,0.00000,0.00000,0.00000,52,6,44,-9,49,7,72,12,ok,2,0,0.002,8,0.83,-1.99,8.53,49,0.038,8.24
8.1801,-0.10123,0.03491,0.63530,0.00000,0.00000,0.00000,52,6,41,-10,49,7,72,11,ok,2,0,0.002,8,0.83,-1.99,8.53,49,0.050,8.24
8.1832,-0.10123,0.03491,0.63530,0.00000,0.00000,0.00000,53,6,39,-10,50,7,71,7,ok,2,0,0.002,8,0.83,-1.99,8.53,49,0.063,8.24
8.1961,-0.10123,0.03491,0.63530,0.00000,0.00000,0.00000,53,6,36,-9,52,6,71,6,ok,2,0,0.002,8,0.83,-1.99,8.53,49,0.076,8.24
8.2161,-0.10123,0.03491,0.63530,0.00000,0.00000,0.00000,54,7,33,-8,52,7,70,4,ok,2,0,0.002,8,0.83,-1.99,8.53,49,0.088,8.24
8.2210,-0.10123,0.03491,0.63530,0.00000,0.00000,0.00000,54,7,30,-7,53,8,68,2,ok,2,0,0.002,8,0.83,-1.99,8.53,49,0.101,8.24
8.2336,-0.10123,0.03491,0.63530,0.00000,0.00000,0.00000,54,7,27,-6,54,8,66,2,ok,2,0,0.002,8,0.83,-1.99,8.53,49,0.113,8.24
8.2561,-0.10123,0.03491,0.63530,0.00000,0.00000,0.00000,54,8,24,-4,55,8,65,0,ok,2,0,0.002,8,0.83,-1.99,8.53,49,0.126,8.24
8.2592,-0.10123,0.03491,0.63530,0.00000,0.00000,0.00000,55,9,20,-2,56,8,64,-2,ok,2,0,0.002,8,0.83,-1.99,8.53,49,0.139,8.24
8.2719,-0.10123,0.03491,0.63530,0.00000,0.00000,0.00000,55,10,19,-1,58,6,62,-3,ok,2,0,0.002,8,0.83,-1.99,8.53,49,0.152,8.24
8.2921,-0.10123,0.03491,0.63530,0.00000,0.00000,0.00000,56,10,18,1,58,7,60,-4,ok,2,0,0.002,8,0.83,-1.99,8.53,49,0.164,8.24
8.2970,-0.10123,0.03491,0.63530,0.00000,0.00000,0.00000,56,10,16,3,59,8,58,-5,ok,2,0,0.002,8,0.83,-1.99,8.53,49,0.177,8.24
8.3095,-0.10123,0.03491,0.63530,0.00000,0.00000,0.00000,56,11,14,6,59,8,55,-5,ok,2,0,0.002,8,0.83,-1.99,8.53,49,0.189,8.24
8.3321,-0.00349,0.04363,0.60214,0.00000,0.00000,0.00000,56,12,13,9,60,9,54,-6,ok,2,0,0.002,8,0.21,0.17,7.50,50,0.000,8.24
8.3353,-0.00349,0.04363,0.60214,0.00000,0.00000,0.00000,56,12,12,11,60,10,50,-5,ok,2,0,0.002,8,0.21,0.17,7.50,50,0.013,8.24
8.3479,-0.00349,0.04363,0.60214,0.00000,0.00000,0.00000,56,13,14,12,60,10,47,-5,ok,2,0,0.002,8,0.21,0.17,7.50,50,0.026,8.24
8.3681,-0.00349,0.04363,0.60214,0.00000,0.00000,0.00000,56,14,15,11,61,11,45,-5,ok,2,0,0.002,8,0.21,0.17,7.50,50,0.039,8.24
8.3732,-0.00349,0.04363,0.60214,0.00000,0.00000,0.00000,56,14,16,10,62,11,42,-4,ok,2,0,0.002,8,0.21,0.17,7.50,50,0.051,8.24
8.3854,-0.00349,0.04363,0.60214,0.00000,0.00000,0.00000,56,15,18,9,62,12,40,-4,ok,2,0,0.002,8,0.21,0.17,7.50,50,0.064,8.24
8.4081,-0.00349,0.04363,0.60214,0.00000,0.00000,0.00000,56,16,19,8,61,12,37,-3,ok,2,0,0.002,8,0.21,0.17,7.50,50,0.076,8.24
8.4112,-0.00349,0.04363,0.60214,0.00000,0.00000,0.00000,56,17,20,7,62,13,35,-3,ok,2,0,0.002,8,0.21,0.17,7.50,50,0.089,8.24
8.4239,-0.00349,0.04363,0.60214,0.00000,0.00000,0.00000,56,18,21,7,62,14,31,-1,ok,2,0,0.002,8,0.21,0.17,7.50,50,0.102,8.24
8.4441,-0.00349,0.04363,0.60214,0.00000,0.00000,0.00000,57,19,23,6,63,14,30,0,ok,2,0,0.002,8,0.21,0.17,7.50,50,0.114,8.24
8.4492,-0.00349,0.04363,0.60214,0.00000,0.00000,0.00000,57,20,24,5,63,15,27,1,ok,2,0,0.002,8,0.21,0.17,7.50,50,0.127,8.24
8.4614,-0.00349,0.04363,0.60214,0.00000,0.00000,0.00000,58,21,24,4,63,16,25,5,ok,2,0,0.002,8,0.21,0.17,7.50,50,0.140,8.24
8.4841,-0.00349,0.04363,0.60214,0.00000,0.00000,0.00000,58,22,25,4,63,17,24,7,ok,2,0,0.002,8,0.21,0.17,7.50,50,0.152,8.24
8.4872,-0.00349,0.04363,0.60214,0.00000,0.00000,0.00000,58,23,26,3,64,17,23,11,ok,2,0,0.002,8,0.21,0.17,7.50,50,0.165,8.24
8.4999,-0.00349,0.04363,0.60214,0.00000,0.00000,0.00000,57,26,27,3,64,19,22,13,ok,2,0,0.002,8,0.21,0.17,7.50,50,0.178,8.24
8.5201,-0.00349,0.04363,0.60214,0.00000,0.00000,0.00000,57,26,28,2,64,20,25,12,ok,2,0,0.002,8,0.21,0.17,7.50,50,0.191,8.24
8.5253,-0.08552,0.08378,0.60388,0.00000,0.00000,0.00000,58,25,29,2,64,21,25,12,ok,2,0,0.002,8,0.40,-2.01,11.56,51,0.000,8.24
8.5376,-0.08552,0.08378,0.60388,0.00000,0.00000,0.00000,58,21,30,2,64,22,26,10,ok,2,0,0.002,8,0.40,-2.01,11.56,51,0.013,8.24
8.5601,-0.08552,0.08378,0.60388,0.00000,0.00000,0.00000,60,18,31,2,64,23,27,9,ok,2,0,0.002,8,0.40,-2.01,11.56,51,0.025,8.24
8.5632,-0.08552,0.08378,0.60388,0.00000,0.00000,0.00000,60,13,32,2,64,24,28,10,ok,2,0,0.002,8,0.40,-2.01,11.56,51,0.038,8.24
8.5762,-0.08552,0.08378,0.60388,0.00000,0.00000,0.00000,60,11,33,2,65,25,29,9,ok,2,0,0.002,8,0.40,-2.01,11.56,51,0.051,8.24
8.5961,-0.08552,0.08378,0.60388,0.00000,0.00000,0.00000,60,10,35,2,64,27,31,9,ok,2,0,0.002,8,0.40,-2.01,11.56,51,0.064,8.24
8.6010,-0.08552,0.08378,0.60388,0.00000,0.00000,0.00000,60,7,36,2,64,29,33,9,ok,2,0,0.002,8,0.40,-2.01,11.56,51,0.076,8.24
8.6134,-0.08552,0.08378,0.60388,0.00000,0.00000,0.00000,60,4,38,4,64,30,33,9,ok,2,0,0.002,8,0.40,-2.01,11.56,51,0.089,8.24
8.6361,-0.08552,0.08378,0.60388,0.00000,0.00000,0.00000,60,1,39,4,64,32,35,9,ok,2,0,0.002,8,0.40,-2.01,11.56,51,0.101,8.24
8.6394,-0.08552,0.08378,0.60388,0.00000,0.00000,0.00000,59,-1,41,3,64,34,36,9,ok,2,0,0.002,9,0.40,-2.01,11.56,51,0.114,8.24
8.6520,-0.08552,0.08378,0.60388,0.00000,0.00000,0.00000,58,-3,42,3,64,35,37,9,ok,2,0,0.002,9,0.40,-2.01,11.56,51,0.127,8.24
8.6721,-0.08552,0.08378,0.60388,0.00000,0.00000,0.00000,58,-4,43,3,65,35,38,8,ok,2,0,0.002,9,0.40,-2.01,11.56,51,0.140,8.24
8.6770,-0.08552,0.08378,0.60388,0.00000,0.00000,0.00000,56,-5,44,3,66,35,39,8,ok,2,0,0.002,9,0.40,-2.01,11.56,51,0.152,8.24
8.6896,-0.08552,0.08378,0.60388,0.00000,0.00000,0.00000,56,-6,45,3,68,33,41,7,ok,2,0,0.002,9,0.40,-2.01,11.56,51,0.165,8.24
8.7121,-0.08552,0.08378,0.60388,0.00000,0.00000,0.00000,56,-8,46,3,70,28,42,7,ok,2,0,0.002,9,0.40,-2.01,11.56,51,0.177,8.24
8.7152,-0.08552,0.08378,0.60388,0.00000,0.00000,0.00000,54,-9,47,4,71,24,44,7,ok,2,0,0.002,9,0.40,-2.01,11.56,51,0.190,8.24
8.7281,-0.08552,0.08378,0.60388,0.00000,0.00000,0.00000,53,-10,49,4,73,21,44,7,ok,2,0,0.002,9,0.40,-2.01,11.56,51,0.203,8.24
8.7481,0.02094,0.03316,0.60737,0.00000,0.00000,0.00000,52,-10,49,3,74,20,45,7,ok,2,0,0.002,9,1.41,0.80,9.26,52,0.000,8.24
8.7529,0.02094,0.03316,0.60737,0.00000,0.00000,0.00000,51,-11,49,5,74,19,46,7,ok,2,0,0.002,9,1.41,0.80,9.26,52,0.012,8.24
8.7655,0.02094,0.03316,0.60737,0.00000,0.00000,0.00000,50,-11,50,6,74,15,47,8,ok,2,0,0.002,9,1.41,0.80,9.26,52,0.025,8.24
8.7881,0.02094,0.03316,0.60737,0.00000,0.00000,0.00000,48,-11,51,5,74,12,48,8,ok,2,0,0.002,9,1.41,0.80,9.26,52,0.038,8.24
8.7914,0.02094,0.03316,0.60737,0.00000,0.00000,0.00000,47,-10,53,6,73,10,49,8,ok,2,0,0.002,9,1.41,0.80,9.26,52,0.051,8.24
8.8039,0.02094,0.03316,0.60737,0.00000,0.00000,0.00000,46,-10,53,6,72,7,49,9,ok,2,0,0.002,9,1.41,0.80,9.26,52,0.063,8.24
8.8241,0.02094,0.03316,0.60737,0.00000,0.00000,0.00000,44,-10,55,6,72,5,50,8,ok,2,0,0.002,9,1.41,0.80,9.26,52,0.076,8.24
8.8290,0.02094,0.03316,0.60737,0.00000,0.00000,0.00000,43,-9,56,6,71,4,51,9,ok,2,0,0.002,9,1.41,0.80,9.26,52,0.088,8.24
8.8416,0.02094,0.03316,0.60737,0.00000,0.00000,0.00000,42,-8,57,6,69,1,52,7,ok,2,0,0.002,9,1.41,0.80,9.26,52,0.101,8.24
8.8641,0.02094,0.03316,0.60737,0.00000,0.00000,0.00000,40,-7,57,7,66,1,52,8,ok,2,0,0.002,9,1.41,0.80,9.26,52,0.113,8.24
8.8672,0.02094,0.03316,0.60737,0.00000,0.00000,0.00000,38,-5,57,7,65,-1,53,8,ok,2,0,0.002,9,1.41,0.80,9.26,52,0.127,8.24
8.8800,0.02094,0.03316,0.60737,0.00000,0.00000,0.00000,37,-4,58,8,64,-2,54,9,ok,2,0,0.002,9,1.41,0.80,9.26,52,0.139,8.24
8.9001,0.02094,0.03316,0.60737,0.00000,0.00000,0.00000,35,-2,59,9,61,-4,55,8,ok,2,0,0.002,9,1.41,0.80,9.26,52,0.152,8.24
8.9049,0.02094,0.03316,0.60737,0.00000,0.00000,0.00000,34,-2,60,11,60,-5,55,8,ok,2,0,0.002,9,1.41,0.80,9.26,52,0.164,8.24
8.9176,0.02094,0.03316,0.60737,0.00000,0.00000,0.00000,34,-1,60,10,59,-6,57,6,ok,2,0,0.002,9,1.41,0.80,9.26,52,0.177,8.24
8.9401,0.02094,0.03316,0.60737,0.00000,0.00000,0.00000,33,2,61,11,56,-6,57,7,ok,2,0,0.002,9,1.41,0.80,9.26,52,0.189,8.24
8.9436,0.00873,-0.02618,0.60737,0.00000,0.00000,0.00000,32,5,61,11,54,-7,58,8,ok,2,0,0.002,9,-0.45,-0.25,10.76,53,0.000,8.24
8.9562,0.00873,-0.02618,0.60737,0.00000,0.00000,0.00000,32,8,61,12,51,-6,59,9,ok,2,0,0.002,9,-0.45,-0.25,10.76,53,0.013,8.24
8.9761,0.00873,-0.02618,0.60737,0.00000,0.00000,0.00000,31,10,61,12,48,-6,59,9,ok,2,0,0.002,9,-0.45,-0.25,10.76,53,0.025,8.24
8.9810,0.00873,-0.02618,0.60737,0.00000,0.00000,0.00000,32,11,62,13,46,-6,60,10,ok,2,0,0.002,9,-0.45,-0.25,10.76,53,0.038,8.24
8.9934,0.00873,-0.02618,0.60737,0.00000,0.00000,0.00000,32,11,61,13,43,-5,60,10,ok,2,0,0.002,9,-0.45,-0.25,10.76,53,0.050,8.24
9.0161,0.00873,-0.02618,0.60737,0.00000,0.00000,0.00000,33,9,62,14,40,-5,61,11,ok,2,0,0.002,9,-0.45,-0.25,10.76,53,0.063,8.24
9.0194,0.00873,-0.02618,0.60737,0.00000,0.00000,0.00000,34,9,62,14,37,-4,61,12,ok,2,0,0.002,9,-0.45,-0.25,10.76,53,0.076,8.24
9.0319,0.00873,-0.02618,0.60737,0.00000,0.00000,0.00000,34,8,63,15,34,-3,61,13,ok,2,0,0.002,9,-0.45,-0.25,10.76,53,0.089,8.24
9.0521,0.00873,-0.02618,0.60737,0.00000,0.00000,0.00000,35,7,63,16,31,-2,61,13,ok,2,0,0.002,9,-0.45,-0.25,10.76,53,0.101,8.24
9.0570,0.00873,-0.02618,0.60737,0.00000,0.00000,0.00000,36,7,63,17,29,0,62,14,ok,2,0,0.002,9,-0.45,-0.25,10.76,53,0.114,8.24
9.0697,0.00873,-0.02618,0.60737,0.00000,0.00000,0.00000,36,6,64,18,28,1,62,15,ok,2,0,0.002,9,-0.45,-0.25,10.76,53,0.126,8.24
9.0921,0.00873,-0.02618,0.60737,0.00000,0.00000,0.00000,37,5,64,19,25,5,63,15,ok,2,0,0.002,9,-0.45,-0.25,10.76,53,0.139,8.24
9.0952,0.00873,-0.02618,0.60737,0.00000,0.00000,0.00000,38,5,64,20,24,8,63,16,ok,2,0,0.002,9,-0.45,-0.25,10.76,53,0.152,8.24
9.1080,0.00873,-0.02618,0.60737,0.00000,0.00000,0.00000,38,4,64,21,23,11,63,18,ok,2,0,0.002,9,-0.45,-0.25,10.76,53,0.165,8.24
9.1281,0.00873,-0.02618,0.60737,0.00000,0.00000,0.00000,38,4,64,23,22,14,63,18,ok,2,0,0.002,9,-0.45,-0.25,10.76,53,0.177,8.24
9.1329,0.00873,-0.02618,0.60737,0.00000,0.00000,0.00000,39,4,63,25,24,13,64,19,ok,2,0,0.002,9,-0.45,-0.25,10.76,53,0.190,8.24
9.1457,-0.15708,0.02793,0.61785,0.00000,0.00000,0.00000,40,3,63,27,24,13,64,19,ok,2,0,0.002,9,0.22,-1.09,9.69,54,0.000,8.24
9.1681,-0.15708,0.02793,0.61785,0.00000,0.00000,0.00000,40,2,65,26,25,11,64,21,ok,2,0,0.002,9,0.22,-1.09,9.69,54,0.013,8.24
9.1713,-0.15708,0.02793,0.61785,0.00000,0.00000,0.00000,41,2,67,23,26,10,65,21,ok,2,0,0.002,9,0.22,-1.09,9.69,54,0.026,8.24
9.1839,-0.15708,0.02793,0.61785,0.00000,0.00000,0.00000,42,1,69,19,27,10,65,23,ok,2,0,0.002,9,0.22,-1.09,9.69,54,0.039,8.24
9.2041,-0.15708,0.02793,0.61785,0.00000,0.00000,0.00000,42,1,70,16,28,9,65,24,ok,2,0,0.002,9,0.22,-1.09,9.69,54,0.051,8.24
9.2089,-0.15708,0.02793,0.61785,0.00000,0.00000,0.00000,42,0,71,14,29,8,65,26,ok,2,0,0.002,9,0.22,-1.09,9.69,54,0.064,8.24
9.2214,-0.15708,0.02793,0.61785,0.00000,0.00000,0.00000,44,0,70,13,32,8,66,27,ok,2,0,0.002,9,0.22,-1.09,9.69,54,0.076,8.24
9.2441,-0.15708,0.02793,0.61785,0.00000,0.00000,0.00000,44,0,70,10,33,8,64,29,ok,2,0,0.002,9,0.22,-1.09,9.69,54,0.089,8.24
9.2474,-0.15708,0.02793,0.61785,0.00000,0.00000,0.00000,45,1,69,7,35,9,64,31,ok,2,0,0.002,9,0.22,-1.09,9.69,54,0.102,8.24
9.2599,-0.15708,0.02793,0.61785,0.00000,0.00000,0.00000,46,1,69,4,36,8,64,32,ok,2,0,0.002,9,0.22,-1.09,9.69,54,0.115,8.24
9.2801,-0.15708,0.02793,0.61785,0.00000,0.00000,0.00000,46,1,67,1,37,8,64,34,ok,2,0,0.002,9,0.22,-1.09,9.69,54,0.127,8.24
9.2850,-0.15708,0.02793,0.61785,0.00000,0.00000,0.00000,47,1,66,-1,38,7,64,35,ok,2,0,0.002,9,0.22,-1.09,9.69,54,0.140,8.24
9.2974,-0.15708,0.02793,0.61785,0.00000,0.00000,0.00000,48,3,64,-3,39,7,63,36,ok,2,0,0.002,9,0.22,-1.09,9.69,54,0.152,8.24
9.3201,-0.15708,0.02793,0.61785,0.00000,0.00000,0.00000,48,3,62,-4,41,6,65,36,ok,2,0,0.002,9,0.22,-1.09,9.69,54,0.165,8.24
9.3232,-0.15708,0.02793,0.61785,0.00000,0.00000,0.00000,48,3,61,-6,42,6,66,35,ok,2,0,0.002,9,0.22,-1.09,9.69,54,0.178,8.24
9.3360,-0.15708,0.02793,0.61785,0.00000,0.00000,0.00000,49,3,60,-8,43,6,68,33,ok,2,0,0.002,9,0.22,-1.09,9.69,54,0.191,8.24
9.3561,-0.15708,0.02793,0.61785,0.00000,0.00000,0.00000,50,4,58,-8,44,6,70,28,ok,2,0,0.002,9,0.22,-1.09,9.69,54,0.203,8.24
9.3613,-0.09076,0.09425,0.61610,0.00000,0.00000,0.00000,50,3,55,-9,45,6,71,24,ok,2,0,0.002,9,1.33,-0.48,11.50,55,0.000,8.24
9.3734,-0.09076,0.09425,0.61610,0.00000,0.00000,0.00000,50,3,53,-9,46,7,72,21,ok,2,0,0.002,9,1.33,-0.48,11.50,55,0.013,8.24
9.3961,-0.09076,0.09425,0.61610,0.00000,0.00000,0.00000,50,5,51,-10,47,7,72,21,ok,2,0,0.002,9,1.33,-0.48,11.50,55,0.025,8.24
9.3992,-0.09076,0.09425,0.61610,0.00000,0.00000,0.00000,51,6,48,-10,48,7,72,19,ok,2,0,0.002,9,1.33,-0.48,11.50,55,0.038,8.24
9.4119,-0.09076,0.09425,0.61610,0.00000,0.00000,0.00000,52,6,46,-10,49,7,72,15,ok,2,0,0.002,9,1.33,-0.48,11.50,55,0.051,8.24
9.4321,-0.09076,0.09425,0.61610,0.00000,0.00000,0.00000,52,6,44,-10,49,7,72,12,ok,2,0,0.002,9,1.33,-0.48,11.50,55,0.064,8.24
9.4370,-0.09076,0.09425,0.61610,0.00000,0.00000,0.00000,52,7,41,-10,50,7,71,11,ok,2,0,0.002,9,1.33,-0.48,11.50,55,0.076,8.24
9.4494,-0.09076,0.09425,0.61610,0.00000,0.00000,0.00000,53,7,38,-11,51,7,71,7,ok,2,0,0.002,9,1.33,-0.48,11.50,55,0.088,8.24
9.4721,-0.09076,0.09425,0.61610,0.00000,0.00000,0.00000,53,7,36,-10,52,6,71,6,ok,2,0,0.002,9,1.33,-0.48,11.50,55,0.101,8.24
9.4753,-0.09076,0.09425,0.61610,0.00000,0.00000,0.00000,54,7,32,-9,52,7,70,4,ok,2,0,0.003,9,1.33,-0.48,11.50,55,0.114,8.24
9.4880,-0.09076,0.09425,0.61610,0.00000,0.00000,0.00000,54,8,30,-8,53,7,68,2,ok,2,0,0.003,9,1.33,-0.48,11.50,55,0.127,8.24
9.5081,-0.09076,0.09425,0.61610,0.00000,0.00000,0.00000,54,8,26,-6,54,8,66,2,ok,2,0,0.003,9,1.33,-0.48,11.50,55,0.140,8.24
9.5129,-0.09076,0.09425,0.61610,0.00000,0.00000,0.00000,54,8,24,-5,55,8,65,0,ok,2,0,0.003,9,1.33,-0.48,11.50,55,0.152,8.24
9.5254,-0.09076,0.09425,0.61610,0.00000,0.00000,0.00000,55,9,20,-2,56,8,64,-2,ok,2,0,0.003,9,1.33,-0.48,11.50,55,0.165,8.24
9.5481,-0.09076,0.09425,0.61610,0.00000,0.00000,0.00000,55,9,18,-1,58,6,62,-3,ok,2,0,0.003,9,1.33,-0.48,11.50,55,0.177,8.24
9.5513,-0.09076,0.09425,0.61610,0.00000,0.00000,0.00000,56,9,17,0,58,7,60,-4,ok,2,0,0.003,9,1.33,-0.48,11.50,55,0.190,8.24
9.5643,-0.00175,0.03491,0.58818,0.00000,0.00000,0.00000,56,10,15,3,59,8,58,-5,ok,2,0,0.003,9,0.43,-0.08,9.25,56,0.000,8.24
9.5841,-0.00175,0.03491,0.58818,0.00000,0.00000,0.00000,56,10,14,5,60,8,55,-6,ok,2,0,0.003,9,0.43,-0.08,9.25,56,0.013,8.24
9.5892,-0.00175,0.03491,0.58818,0.00000,0.00000,0.00000,56,11,12,9,60,9,53,-6,ok,2,0,0.003,9,0.43,-0.08,9.25,56,0.025,8.24
9.6015,-0.00175,0.03491,0.58818,0.00000,0.00000,0.00000,56,12,12,11,61,10,50,-5,ok,2,0,0.003,9,0.43,-0.08,9.25,56,0.037,8.24
9.6241,-0.00175,0.03491,0.58818,0.00000,0.00000,0.00000,56,13,14,11,61,10,48,-5,ok,2,0,0.003,9,0.43,-0.08,9.25,56,0.050,8.24
9.6272,-0.00175,0.03491,0.58818,0.00000,0.00000,0.00000,56,14,15,11,61,11,46,-5,ok,2,0,0.003,9,0.43,-0.08,9.25,56,0.063,8.24
9.6400,-0.00175,0.03491,0.58818,0.00000,0.00000,0.00000,56,14,16,10,62,11,42,-4,ok,2,0,0.003,9,0.43,-0.08,9.25,56,0.076,8.24
9.6601,-0.00175,0.03491,0.58818,0.00000,0.00000,0.00000,56,15,18,9,62,12,41,-4,ok,2,0,0.003,9,0.43,-0.08,9.25,56,0.089,8.24
9.6650,-0.00175,0.03491,0.58818,0.00000,0.00000,0.00000,56,16,19,8,61,12,37,-3,ok,2,0,0.003,10,0.43,-0.08,9.25,56,0.101,8.24
9.6774,-0.00175,0.03491,0.58818,0.00000,0.00000,0.00000,56,17,21,7,62,13,35,-3,ok,2,0,0.003,10,0.43,-0.08,9.25,56,0.114,8.24
9.7001,-0.00175,0.03491,0.58818,0.00000,0.00000,0.00000,56,18,21,7,62,14,31,-1,ok,2,0,0.003,10,0.43,-0.08,9.25,56,0.126,8.24
9.7033,-0.00175,0.03491,0.58818,0.00000,0.00000,0.00000,57,19,23,6,63,14,30,0,ok,2,0,0.003,10,0.43,-0.08,9.25,56,0.139,8.24
9.7162,-0.00175,0.03491,0.58818,0.00000,0.00000,0.00000,57,20,24,5,63,15,27,2,ok,2,0,0.003,10,0.43,-0.08,9.25,56,0.152,8.24
9.7361,-0.00175,0.03491,0.58818,0.00000,0.00000,0.00000,58,21,24,5,63,16,25,5,ok,2,0,0.003,10,0.43,-0.08,9.25,56,0.165,8.24
9.7410,-0.00175,0.03491,0.58818,0.00000,0.00000,0.00000,58,22,25,4,63,17,24,7,ok,2,0,0.003,10,0.43,-0.08,9.25,56,0.177,8.24
9.7534,-0.00175,0.03491,0.58818,0.00000,0.00000,0.00000,58,23,26,3,64,17,23,11,ok,2,0,0.003,10,0.43,-0.08,9.25,56,0.190,8.24
9.7761,-0.06807,0.03840,0.58992,0.00000,0.00000,0.00000,57,25,27,3,64,19,22,13,ok,2,0,0.003,10,1.50,-2.59,10.90,57,0.000,8.24
9.7794,-0.06807,0.03840,0.58992,0.00000,0.00000,0.00000,57,26,28,2,64,19,25,12,ok,2,0,0.003,10,1.50,-2.59,10.90,57,0.013,8.24
9.7919,-0.06807,0.03840,0.58992,0.00000,0.00000,0.00000,58,25,29,2,64,21,25,12,ok,2,0,0.003,10,1.50,-2.59,10.90,57,0.026,8.24
9.8121,-0.06807,0.03840,0.58992,0.00000,0.00000,0.00000,58,21,30,2,65,22,26,10,ok,2,0,0.003,10,1.50,-2.59,10.90,57,0.039,8.24
9.8169,-0.06807,0.03840,0.58992,0.00000,0.00000,0.00000,60,17,31,2,64,23,27,10,ok,2,0,0.003,10,1.50,-2.59,10.90,57,0.051,8.24
9.8294,-0.06807,0.03840,0.58992,0.00000,0.00000,0.00000,60,13,32,2,64,25,28,10,ok,2,0,0.003,10,1.50,-2.59,10.90,57,0.064,8.24
9.8521,-0.06807,0.03840,0.58992,0.00000,0.00000,0.00000,60,10,34,2,65,25,29,10,ok,2,0,0.003,10,1.50,-2.59,10.90,57,0.076,8.24
9.8552,-0.06807,0.03840,0.58992,0.00000,0.00000,0.00000,60,10,36,2,64,27,30,9,ok,2,0,0.003,10,1.50,-2.59,10.90,57,0.089,8.24
9.8682,-0.06807,0.03840,0.58992,0.00000,0.00000,0.00000,60,7,37,2,64,29,32,9,ok,2,0,0.003,10,1.50,-2.59,10.90,57,0.102,8.24
9.8881,-0.06807,0.03840,0.58992,0.00000,0.00000,0.00000,60,4,39,3,64,30,33,9,ok,2,0,0.003,10,1.50,-2.59,10.90,57,0.115,8.24
9.8929,-0.06807,0.03840,0.58992,0.00000,0.00000,0.00000,60,2,40,3,64,32,35,9,ok,2,0,0.003,10,1.50,-2.59,10.90,57,0.127,8.24
9.9056,-0.06807,0.03840,0.58992,0.00000,0.00000,0.00000,59,-1,41,3,64,33,36,9,ok,2,0,0.003,10,1.50,-2.59,10.90,57,0.139,8.24
9.9281,-0.06807,0.03840,0.58992,0.00000,0.00000,0.00000,58,-2,43,2,64,35,37,9,ok,2,0,0.003,10,1.50,-2.59,10.90,57,0.152,8.24
9.9312,-0.06807,0.03840,0.58992,0.00000,0.00000,0.00000,58,-4,44,3,65,35,38,8,ok,2,0,0.003,10,1.50,-2.59,10.90,57,0.165,8.24
9.9440,-0.06807,0.03840,0.58992,0.00000,0.00000,0.00000,56,-5,44,3,66,35,39,8,ok,2,0,0.003,10,1.50,-2.59,10.90,57,0.178,8.24
9.9641,-0.06807,0.03840,0.58992,0.00000,0.00000,0.00000,56,-6,45,3,68,33,41,7,ok,2,0,0.003,10,1.50,-2.59,10.90,57,0.191,8.24
9.9693,-0.04014,0.02269,0.62657,0.00000,0.00000,0.00000,56,-8,46,3,70,28,42,7,ok,2,0,0.003,10,0.98,0.96,11.13,58,0.000,8.24
9.9814,-0.04014,0.02269,0.62657,0.00000,0.00000,0.00000,54,-9,48,4,71,24,43,7,ok,2,0,0.003,10,0.98,0.96,11.13,58,0.013,8.24
10.0041,-0.04014,0.02269,0.62657,0.00000,0.00000,0.00000,54,-10,49,4,73,21,44,7,ok,2,0,0.003,10,0.98,0.96,11.13,58,0.025,8.24
10.0072,-0.04014,0.02269,0.62657,0.00000,0.00000,0.00000,52,-10,49,4,74,20,45,7,ok,2,0,0.003,10,0.98,0.96,11.13,58,0.038,8.24
10.0199,-0.04014,0.02269,0.62657,0.00000,0.00000,0.00000,51,-11,49,6,74,18,46,7,ok,2,0,0.003,10,0.98,0.96,11.13,58,0.051,8.24
10.0481,-0.04014,0.02269,0.62657,0.00000,0.00000,0.00000,50,-11,51,6,74,15,47,8,ok,2,0,0.003,10,0.98,0.96,11.13,58,0.063,8.24
10.0513,-0.04014,0.02269,0.62657,0.00000,0.00000,0.00000,48,-11,52,6,73,11,48,8,ok,2,0,0.003,10,0.98,0.96,11.13,58,0.082,8.24
10.0639,-0.04014,0.02269,0.62657,0.00000,0.00000,0.00000,47,-10,53,6,73,10,49,8,ok,2,0,0.003,10,0.98,0.96,11.13,58,0.095,8.24
10.0841,-0.04014,0.02269,0.62657,0.00000,0.00000,0.00000,46,-10,53,7,72,6,49,9,ok,2,0,0.003,10,0.98,0.96,11.13,58,0.108,8.24
10.0889,-0.04014,0.02269,0.62657,0.00000,0.00000,0.00000,44,-11,55,7,72,5,50,8,ok,2,0,0.003,10,0.98,0.96,11.13,58,0.120,8.24
10.1016,-0.04014,0.02269,0.62657,0.00000,0.00000,0.00000,43,-10,56,7,71,3,51,9,ok,2,0,0.003,10,0.98,0.96,11.13,58,0.132,8.24
10.1241,-0.04014,0.02269,0.62657,0.00000,0.00000,0.00000,42,-8,57,7,69,1,52,8,ok,2,0,0.003,10,0.98,0.96,11.13,58,0.145,8.24
10.1275,-0.04014,0.02269,0.62657,0.00000,0.00000,0.00000,40,-7,57,8,66,1,52,9,ok,2,0,0.003,10,0.98,0.96,11.13,58,0.158,8.24
10.1403,-0.04014,0.02269,0.62657,0.00000,0.00000,0.00000,38,-6,57,8,65,-1,53,9,ok,2,0,0.003,10,0.98,0.96,11.13,58,0.171,8.15
10.1601,-0.04014,0.02269,0.62657,0.00000,0.00000,0.00000,37,-4,58,8,64,-3,54,9,ok,2,0,0.003,10,0.98,0.96,11.13,58,0.183,8.15
10.1650,-0.04014,0.02269,0.62657,0.00000,0.00000,0.00000,35,-2,59,9,61,-4,55,9,ok,2,0,0.003,10,0.98,0.96,11.13,58,0.196,8.15
10.1778,0.06981,0.00873,0.63355,0.00000,0.00000,0.00000,34,-1,60,11,60,-5,55,8,ok,2,0,0.003,10,1.28,-0.07,10.22,59,0.000,8.15
10.2001,0.06981,0.00873,0.63355,0.00000,0.00000,0.00000,34,0,60,10,59,-5,56,6,ok,2,0,0.003,10,1.28,-0.07,10.22,59,0.013,8.15
10.2032,0.06981,0.00873,0.63355,0.00000,0.00000,0.00000,33,2,61,11,56,-6,57,7,ok,2,0,0.003,10,1.28,-0.07,10.22,59,0.026,8.15
10.2159,0.06981,0.00873,0.63355,0.00000,0.00000,0.00000,32,5,61,10,54,-7,57,8,ok,2,0,0.003,10,1.28,-0.07,10.22,59,0.039,8.15
10.2361,0.06981,0.00873,0.63355,0.00000,0.00000,0.00000,32,9,61,11,51,-6,58,9,ok,2,0,0.003,10,1.28,-0.07,10.22,59,0.051,8.15
10.2409,0.06981,0.00873,0.63355,0.00000,0.00000,0.00000,31,11,61,11,49,-6,58,9,ok,2,0,0.003,10,1.28,-0.07,10.22,59,0.063,8.15
10.2534,0.06981,0.00873,0.63355,0.00000,0.00000,0.00000,32,12,62,12,46,-6,59,10,ok,2,0,0.003,10,1.28,-0.07,10.22,59,0.076,8.15
10.2761,0.06981,0.00873,0.63355,0.00000,0.00000,0.00000,32,12,61,13,43,-5,59,10,ok,2,0,0.003,10,1.28,-0.07,10.22,59,0.088,8.15
10.2793,0.06981,0.00873,0.63355,0.00000,0.00000,0.00000,33,10,62,13,41,-5,60,11,ok,2,0,0.003,10,1.28,-0.07,10.22,59,0.102,8.15
10.2919,0.06981,0.00873,0.63355,0.00000,0.00000,0.00000,34,10,62,14,38,-4,60,11,ok,2,0,0.003,10,1.28,-0.07,10.22,59,0.115,8.15
10.3121,0.06981,0.00873,0.63355,0.00000,0.00000,0.00000,34,9,62,14,35,-3,61,13,ok,2,0,0.003,10,1.28,-0.07,10.22,59,0.127,8.15
10.3168,0.06981,0.00873,0.63355,0.00000,0.00000,0.00000,35,8,63,15,32,-2,61,13,ok,2,0,0.003,10,1.28,-0.07,10.22,59,0.139,8.15
10.3296,0.06981,0.00873,0.63355,0.00000,0.00000,0.00000,36,7,63,17,30,0,62,14,ok,2,0,0.003,10,1.28,-0.07,10.22,59,0.152,8.15
10.3521,0.06981,0.00873,0.63355,0.00000,0.00000,0.00000,36,6,64,18,28,1,62,15,ok,2,0,0.003,10,1.28,-0.07,10.22,59,0.165,8.15
10.3553,0.06981,0.00873,0.63355,0.00000,0.00000,0.00000,37,5,64,19,25,5,63,15,ok,2,0,0.003,10,1.28,-0.07,10.22,59,0.178,8.15
10.3680,0.06981,0.00873,0.63355,0.00000,0.00000,0.00000,38,4,64,20,24,8,63,16,ok,2,0,0.003,10,1.28,-0.07,10.22,59,0.191,8.15
10.3881,-0.05236,0.04538,0.62483,0.00000,0.00000,0.00000,38,4,64,22,23,11,63,17,ok,2,0,0.003,10,0.54,0.04,8.98,60,0.000,8.15
10.3929,-0.05236,0.04538,0.62483,0.00000,0.00000,0.00000,38,3,64,23,22,14,64,18,ok,2,0,0.003,10,0.54,0.04,8.98,60,0.012,8.15
10.4055,-0.05236,0.04538,0.62483,0.00000,0.00000,0.00000,39,3,63,26,24,13,64,19,ok,2,0,0.003,10,0.54,0.04,8.98,60,0.025,8.15
10.4281,-0.05236,0.04538,0.62483,0.00000,0.00000,0.00000,40,2,63,27,24,13,64,19,ok,2,0,0.003,10,0.54,0.04,8.98,60,0.038,8.15
10.4313,-0.05236,0.04538,0.62483,0.00000,0.00000,0.00000,40,1,64,26,25,11,65,21,ok,2,0,0.003,10,0.54,0.04,8.98,60,0.051,8.15
10.4439,-0.05236,0.04538,0.62483,0.00000,0.00000,0.00000,40,0,67,23,26,10,65,21,ok,2,0,0.003,10,0.54,0.04,8.98,60,0.063,8.15
10.4641,-0.05236,0.04538,0.62483,0.00000,0.00000,0.00000,41,0,69,20,27,10,65,23,ok,2,0,0.003,10,0.54,0.04,8.98,60,0.076,8.15
10.4690,-0.05236,0.04538,0.62483,0.00000,0.00000,0.00000,42,0,70,16,29,10,65,24,ok,2,0,0.003,10,0.54,0.04,8.98,60,0.088,8.15
10.4815,-0.05236,0.04538,0.62483,0.00000,0.00000,0.00000,42,0,71,13,30,9,64,26,ok,2,0,0.003,10,0.54,0.04,8.98,60,0.101,8.15
10.5041,-0.05236,0.04538,0.62483,0.00000,0.00000,0.00000,44,0,70,13,33,9,65,27,ok,2,0,0.003,10,0.54,0.04,8.98,60,0.113,8.15
10.5073,-0.05236,0.04538,0.62483,0.00000,0.00000,0.00000,44,1,70,9,33,9,64,29,ok,2,0,0.003,10,0.54,0.04,8.98,60,0.127,8.15
10.5200,-0.05236,0.04538,0.62483,0.00000,0.00000,0.00000,45,2,69,6,35,9,64,30,ok,2,0,0.003,10,0.54,0.04,8.98,60,0.139,8.15
10.5401,-0.05236,0.04538,0.62483,0.00000,0.00000,0.00000,46,2,69,3,37,8,64,31,ok,2,0,0.003,10,0.54,0.04,8.98,60,0.152,8.15
10.5448,-0.05236,0.04538,0.62483,0.00000,0.00000,0.00000,46,2,67,0,38,8,64,33,ok,2,0,0.003,10,0.54,0.04,8.98,60,0.164,8.15
10.5576,-0.05236,0.04538,0.62483,0.00000,0.00000,0.00000,47,2,66,-2,39,8,64,35,ok,2,0,0.003,10,0.54,0.04,8.98,60,0.177,8.15
10.5801,-0.05236,0.04538,0.62483,0.00000,0.00000,0.00000,48,2,64,-3,40,8,63,36,ok,2,0,0.003,10,0.54,0.04,8.98,60,0.189,8.15
10.5836,-0.14486,0.02793,0.70860,0.00000,0.00000,0.00000,48,2,62,-4,41,7,64,36,ok,2,0,0.003,10,0.66,-1.52,8.31,61,0.000,8.15
10.5959,-0.14486,0.02793,0.70860,0.00000,0.00000,0.00000,48,3,61,-5,42,6,66,35,ok,2,0,0.003,10,0.66,-1.52,8.31,61,0.013,8.15
10.6161,-0.14486,0.02793,0.70860,0.00000,0.00000,0.00000,49,3,60,-8,43,6,68,33,ok,2,0,0.003,10,0.66,-1.52,8.31,61,0.025,8.15
10.6209,-0.14486,0.02793,0.70860,0.00000,0.00000,0.00000,50,3,58,-8,44,7,70,27,ok,2,0,0.003,10,0.66,-1.52,8.31,61,0.038,8.15
10.6334,-0.14486,0.02793,0.70860,0.00000,0.00000,0.00000,50,3,55,-9,44,7,71,24,ok,2,0,0.003,10,0.66,-1.52,8.31,61,0.050,8.15
10.6561,-0.14486,0.02793,0.70860,0.00000,0.00000,0.00000,50,2,53,-9,46,7,73,21,ok,2,0,0.003,10,0.66,-1.52,8.31,61,0.063,8.15
10.6593,-0.14486,0.02793,0.70860,0.00000,0.00000,0.00000,50,4,51,-10,47,7,73,21,ok,2,0,0.003,10,0.66,-1.52,8.31,61,0.076,8.15
10.6719,-0.14486,0.02793,0.70860,0.00000,0.00000,0.00000,51,5,49,-10,48,7,73,19,ok,2,0,0.003,10,0.66,-1.52,8.31,61,0.089,8.15
10.6921,-0.14486,0.02793,0.70860,0.00000,0.00000,0.00000,52,5,46,-10,49,7,73,15,ok,2,0,0.003,11,0.66,-1.52,8.31,61,0.101,8.15
10.6968,-0.14486,0.02793,0.70860,0.00000,0.00000,0.00000,52,5,44,-9,49,7,72,13,ok,2,0,0.003,11,0.66,-1.52,8.31,61,0.114,8.15
10.7095,-0.14486,0.02793,0.70860,0.00000,0.00000,0.00000,52,6,41,-10,50,7,71,11,ok,2,0,0.003,11,0.66,-1.52,8.31,61,0.126,8.15
10.7321,-0.14486,0.02793,0.70860,0.00000,0.00000,0.00000,53,7,39,-10,51,7,71,7,ok,2,0,0.003,11,0.66,-1.52,8.31,61,0.139,8.15
10.7353,-0.14486,0.02793,0.70860,0.00000,0.00000,0.00000,54,7,36,-9,52,6,71,6,ok,2,0,0.003,11,0.66,-1.52,8.31,61,0.152,8.15
10.7479,-0.14486,0.02793,0.70860,0.00000,0.00000,0.00000,54,7,33,-9,52,7,70,4,ok,2,0,0.003,11,0.66,-1.52,8.31,61,0.165,8.15
10.7681,-0.14486,0.02793,0.70860,0.00000,0.00000,0.00000,54,8,30,-7,53,7,68,2,ok,2,0,0.003,11,0.66,-1.52,8.31,61,0.177,8.15
10.7729,-0.14486,0.02793,0.70860,0.00000,0.00000,0.00000,54,8,27,-6,54,8,66,2,ok,2,0,0.003,11,0.66,-1.52,8.31,61,0.190,8.15
10.7858,-0.14486,0.02793,0.70860,0.00000,0.00000,0.00000,54,9,24,-4,55,8,65,0,ok,2,0,0.003,11,0.66,-1.52,8.31,61,0.202,8.15
10.8081,-0.05585,0.02094,0.69464,0.00000,0.00000,0.00000,55,10,20,-2,56,8,64,-2,ok,2,0,0.003,11,0.63,-0.32,10.23,62,0.000,8.15
10.8114,-0.05585,0.02094,0.69464,0.00000,0.00000,0.00000,55,10,19,-1,58,6,62,-3,ok,2,0,0.003,11,0.63,-0.32,10.23,62,0.013,8.15
10.8239,-0.05585,0.02094,0.69464,0.00000,0.00000,0.00000,56,10,18,0,58,7,59,-4,ok,2,0,0.003,11,0.63,-0.32,10.23,62,0.026,8.15
10.8441,-0.05585,0.02094,0.69464,0.00000,0.00000,0.00000,56,11,16,3,59,8,57,-4,ok,2,0,0.003,11,0.63,-0.32,10.23,62,0.038,8.15
10.8489,-0.05585,0.02094,0.69464,0.00000,0.00000,0.00000,56,11,15,5,60,8,55,-5,ok,2,0,0.003,11,0.63,-0.32,10.23,62,0.051,8.15
10.8614,-0.05585,0.02094,0.69464,0.00000,0.00000,0.00000,56,12,13,9,60,9,53,-6,ok,2,0,0.003,11,0.63,-0.32,10.23,62,0.063,8.15
10.8841,-0.05585,0.02094,0.69464,0.00000,0.00000,0.00000,56,13,12,11,60,9,50,-5,ok,2,0,0.003,11,0.63,-0.32,10.23,62,0.076,8.15
10.8873,-0.05585,0.02094,0.69464,0.00000,0.00000,0.00000,56,14,14,11,60,9,48,-5,ok,2,0,0.003,11,0.63,-0.32,10.23,62,0.089,8.15
10.9001,-0.05585,0.02094,0.69464,0.00000,0.00000,0.00000,56,14,15,11,61,10,46,-5,ok,2,0,0.003,11,0.63,-0.32,10.23,62,0.102,8.15
10.9201,-0.05585,0.02094,0.69464,0.00000,0.00000,0.00000,56,14,16,10,61,10,42,-4,ok,2,0,0.003,11,0.63,-0.32,10.23,62,0.115,8.15
10.9249,-0.05585,0.02094,0.69464,0.00000,0.00000,0.00000,56,15,18,9,61,12,40,-4,ok,2,0,0.003,11,0.63,-0.32,10.23,62,0.127,8.15
10.9375,-0.05585,0.02094,0.69464,0.00000,0.00000,0.00000,56,16,19,8,61,12,37,-3,ok,2,0,0.003,11,0.63,-0.32,10.23,62,0.140,8.15
10.9601,-0.05585,0.02094,0.69464,0.00000,0.00000,0.00000,56,16,21,8,62,13,35,-3,ok,2,0,0.003,11,0.63,-0.32,10.23,62,0.152,8.15
10.9634,-0.05585,0.02094,0.69464,0.00000,0.00000,0.00000,56,17,21,7,62,14,31,-1,ok,2,0,0.003,11,0.63,-0.32,10.23,62,0.165,8.15
10.9760,-0.05585,0.02094,0.69464,0.00000,0.00000,0.00000,58,19,23,6,63,14,30,0,ok,2,0,0.003,11,0.63,-0.32,10.23,62,0.178,8.15
10.9961,-0.08029,0.14486,0.69464,0.00000,0.00000,0.00000,58,20,24,5,63,15,27,2,ok,2,0,0.003,11,0.10,-1.14,10.18,63,0.000,8.15
11.0009,-0.08029,0.14486,0.69464,0.00000,0.00000,0.00000,58,21,24,5,62,16,25,5,ok,2,0,0.003,11,0.10,-1.14,10.18,63,0.012,8.15
11.0134,-0.08029,0.14486,0.69464,0.00000,0.00000,0.00000,58,22,25,4,63,16,24,7,ok,2,0,0.003,11,0.10,-1.14,10.18,63,0.025,8.15
11.0361,-0.08029,0.14486,0.69464,0.00000,0.00000,0.00000,58,23,25,4,63,17,23,11,ok,2,0,0.003,11,0.10,-1.14,10.18,63,0.038,8.15
11.0393,-0.08029,0.14486,0.69464,0.00000,0.00000,0.00000,57,25,26,3,64,18,22,13,ok,2,0,0.003,11,0.10,-1.14,10.18,63,0.051,8.15
11.0521,-0.08029,0.14486,0.69464,0.00000,0.00000,0.00000,57,26,27,3,64,19,24,12,ok,2,0,0.003,11,0.10,-1.14,10.18,63,0.064,8.15
11.0721,-0.08029,0.14486,0.69464,0.00000,0.00000,0.00000,58,24,28,2,64,20,25,12,ok,2,0,0.003,11,0.10,-1.14,10.18,63,0.076,8.15
11.0769,-0.08029,0.14486,0.69464,0.00000,0.00000,0.00000,58,21,29,2,65,22,26,10,ok,2,0,0.003,11,0.10,-1.14,10.18,63,0.088,8.15
11.0895,-0.08029,0.14486,0.69464,0.00000,0.00000,0.00000,60,17,30,2,64,23,27,10,ok,2,0,0.003,11,0.10,-1.14,10.18,63,0.101,8.15
11.1121,-0.08029,0.14486,0.69464,0.00000,0.00000,0.00000,60,12,32,2,64,25,28,11,ok,2,0,0.003,11,0.10,-1.14,10.18,63,0.114,8.15
11.1152,-0.08029,0.14486,0.69464,0.00000,0.00000,0.00000,60,10,33,2,65,25,29,10,ok,2,0,0.003,11,0.10,-1.14,10.18,63,0.127,8.15
11.1280,-0.08029,0.14486,0.69464,0.00000,0.00000,0.00000,60,10,35,2,64,27,31,9,ok,2,0,0.003,11,0.10,-1.14,10.18,63,0.139,8.15
11.1481,-0.08029,0.14486,0.69464,0.00000,0.00000,0.00000,60,7,36,2,64,28,33,9,ok,2,0,0.003,11,0.10,-1.14,10.18,63,0.152,8.15
11.1529,-0.08029,0.14486,0.69464,0.00000,0.00000,0.00000,60,4,38,3,65,30,33,9,ok,2,0,0.003,11,0.10,-1.14,10.18,63,0.164,8.15
11.1654,-0.08029,0.14486,0.69464,0.00000,0.00000,0.00000,59,1,39,3,65,32,35,9,ok,2,0,0.003,11,0.10,-1.14,10.18,63,0.177,8.15
11.1881,-0.08029,0.14486,0.69464,0.00000,0.00000,0.00000,58,-1,40,3,64,33,36,9,ok,2,0,0.003,11,0.10,-1.14,10.18,63,0.189,8.15
11.1917,-0.06807,-0.02443,0.73653,0.00000,0.00000,0.00000,58,-3,42,2,64,34,37,9,ok,2,0,0.003,11,-0.30,-0.06,13.68,64,0.000,8.15
11.2039,-0.06807,-0.02443,0.73653,0.00000,0.00000,0.00000,58,-4,43,2,66,35,39,8,ok,2,0,0.003,11,-0.30,-0.06,13.68,64,0.013,8.15
11.2241,-0.06807,-0.02443,0.73653,0.00000,0.00000,0.00000,56,-5,43,2,67,35,40,8,ok,2,0,0.003,11,-0.30,-0.06,13.68,64,0.025,8.15
11.2289,-0.06807,-0.02443,0.73653,0.00000,0.00000,0.00000,56,-7,45,2,68,33,41,7,ok,2,0,0.003,11,-0.30,-0.06,13.68,64,0.038,8.15
11.2414,-0.06807,-0.02443,0.73653,0.00000,0.00000,0.00000,56,-8,46,2,70,29,43,7,ok,2,0,0.003,11,-0.30,-0.06,13.68,64,0.050,8.15
11.2641,-0.06807,-0.02443,0.73653,0.00000,0.00000,0.00000,54,-9,48,3,72,24,44,7,ok,2,0,0.003,11,-0.30,-0.06,13.68,64,0.063,8.15
11.2674,-0.06807,-0.02443,0.73653,0.00000,0.00000,0.00000,54,-10,49,3,73,22,44,7,ok,2,0,0.003,11,-0.30,-0.06,13.68,64,0.076,8.15
11.2799,-0.06807,-0.02443,0.73653,0.00000,0.00000,0.00000,52,-10,50,3,74,21,45,7,ok,2,0,0.003,11,-0.30,-0.06,13.68,64,0.089,8.15
11.3001,-0.06807,-0.02443,0.73653,0.00000,0.00000,0.00000,52,-11,50,5,74,18,46,7,ok,2,0,0.003,11,-0.30,-0.06,13.68,64,0.101,8.15
11.3049,-0.06807,-0.02443,0.73653,0.00000,0.00000,0.00000,50,-10,51,6,74,14,47,8,ok,2,0,0.003,11,-0.30,-0.06,13.68,64,0.114,8.15
11.3176,-0.06807,-0.02443,0.73653,0.00000,0.00000,0.00000,48,-10,52,5,73,11,48,8,ok,2,0,0.003,11,-0.30,-0.06,13.68,64,0.126,8.15
11.3401,-0.06807,-0.02443,0.73653,0.00000,0.00000,0.00000,48,-10,53,6,73,10,49,8,ok,2,0,0.003,11,-0.30,-0.06,13.68,64,0.139,8.15
11.3433,-0.06807,-0.02443,0.73653,0.00000,0.00000,0.00000,46,-10,53,7,72,6,49,9,ok,2,0,0.003,11,-0.30,-0.06,13.68,64,0.152,8.15
11.3559,-0.06807,-0.02443,0.73653,0.00000,0.00000,0.00000,44,-11,56,7,72,5,50,8,ok,2,0,0.003,11,-0.30,-0.06,13.68,64,0.165,8.15
11.3761,-0.06807,-0.02443,0.73653,0.00000,0.00000,0.00000,44,-10,56,7,71,3,51,9,ok,2,0,0.003,11,-0.30,-0.06,13.68,64,0.177,8.15
11.3809,-0.06807,-0.02443,0.73653,0.00000,0.00000,0.00000,42,-8,57,7,69,1,52,8,ok,2,0,0.003,11,-0.30,-0.06,13.68,64,0.190,8.15
11.3938,-0.06807,-0.02443,0.73653,0.00000,0.00000,0.00000,40,-7,57,8,66,1,52,9,ok,2,0,0.003,11,-0.30,-0.06,13.68,64,0.202,8.15
11.4161,-0.01745,-0.01222,0.75573,0.00000,0.00000,0.00000,38,-6,58,8,65,-1,52,9,ok,2,0,0.003,11,-0.39,0.47,9.21,65,0.000,8.15
11.4192,-0.01745,-0.01222,0.75573,0.00000,0.00000,0.00000,37,-4,58,8,64,-3,54,9,ok,2,0,0.003,11,-0.39,0.47,9.21,65,0.013,8.15
11.4320,-0.01745,-0.01222,0.75573,0.00000,0.00000,0.00000,35,-1,59,9,61,-4,54,9,ok,2,0,0.003,11,-0.39,0.47,9.21,65,0.026,8.15
11.4521,-0.01745,-0.01222,0.75573,0.00000,0.00000,0.00000,35,-1,60,11,61,-5,54,9,ok,2,0,0.003,11,-0.39,0.47,9.21,65,0.038,8.15
11.4569,-0.01745,-0.01222,0.75573,0.00000,0.00000,0.00000,34,0,61,10,59,-6,56,6,ok,2,0,0.003,11,-0.39,0.47,9.21,65,0.051,8.15
11.4695,-0.01745,-0.01222,0.75573,0.00000,0.00000,0.00000,34,3,61,11,56,-7,57,8,ok,2,0,0.003,11,-0.39,0.47,9.21,65,0.063,8.15
11.4921,-0.01745,-0.01222,0.75573,0.00000,0.00000,0.00000,32,6,61,10,54,-8,57,8,ok,2,0,0.003,11,-0.39,0.47,9.21,65,0.076,8.15
11.4953,-0.01745,-0.01222,0.75573,0.00000,0.00000,0.00000,32,9,61,12,51,-7,58,9,ok,2,0,0.003,11,-0.39,0.47,9.21,65,0.089,8.15
11.5081,-0.01745,-0.01222,0.75573,0.00000,0.00000,0.00000,32,11,61,11,48,-6,59,9,ok,2,0,0.003,11,-0.39,0.47,9.21,65,0.102,8.15
11.5281,-0.01745,-0.01222,0.75573,0.00000,0.00000,0.00000,32,12,62,12,46,-6,60,10,ok,2,0,0.003,11,-0.39,0.47,9.21,65,0.114,8.15
11.5329,-0.01745,-0.01222,0.75573,0.00000,0.00000,0.00000,32,11,61,13,43,-5,59,10,ok,2,0,0.003,11,-0.39,0.47,9.21,65,0.127,8.15
11.5456,-0.01745,-0.01222,0.75573,0.00000,0.00000,0.00000,33,10,62,13,40,-5,60,11,ok,2,0,0.003,11,-0.39,0.47,9.21,65,0.139,8.15
11.5681,-0.01745,-0.01222,0.75573,0.00000,0.00000,0.00000,34,9,62,14,37,-4,61,12,ok,2,0,0.003,11,-0.39,0.47,9.21,65,0.152,8.15
11.5713,-0.01745,-0.01222,0.75573,0.00000,0.00000,0.00000,34,8,62,15,35,-3,61,13,ok,2,0,0.003,11,-0.39,0.47,9.21,65,0.165,8.15
11.5839,-0.01745,-0.01222,0.75573,0.00000,0.00000,0.00000,36,7,63,16,32,-2,61,13,ok,2,0,0.003,11,-0.39,0.47,9.21,65,0.178,8.15
11.6041,-0.01745,-0.01222,0.75573,0.00000,0.00000,0.00000,36,7,63,17,30,-1,62,14,ok,2,0,0.003,11,-0.39,0.47,9.21,65,0.190,8.15
11.6093,-0.16406,0.00524,0.75398,0.00000,0.00000,0.00000,36,6,64,18,28,1,62,15,ok,2,0,0.003,11,0.18,-1.44,9.61,66,0.000,8.15
11.6216,-0.16406,0.00524,0.75398,0.00000,0.00000,0.00000,37,5,64,20,25,4,63,16,ok,2,0,0.003,11,0.18,-1.44,9.61,66,0.013,8.15
11.6441,-0.16406,0.00524,0.75398,0.00000,0.00000,0.00000,38,4,64,21,24,7,63,17,ok,2,0,0.003,11,0.18,-1.44,9.61,66,0.025,8.15
11.6473,-0.16406,0.00524,0.75398,0.00000,0.00000,0.00000,38,3,64,22,23,10,64,18,ok,2,0,0.003,11,0.18,-1.44,9.61,66,0.038,8.15
11.6599,-0.16406,0.00524,0.75398,0.00000,0.00000,0.00000,38,3,64,23,22,13,64,18,ok,2,0,0.003,11,0.18,-1.44,9.61,66,0.051,8.15
11.6801,-0.16406,0.00524,0.75398,0.00000,0.00000,0.00000,39,2,63,27,24,12,65,19,ok,2,0,0.003,11,0.18,-1.44,9.61,66,0.064,8.15
11.6851,-0.16406,0.00524,0.75398,0.00000,0.00000,0.00000,40,1,63,28,24,13,65,20,ok,2,0,0.003,11,0.18,-1.44,9.61,66,0.076,8.15
11.6975,-0.16406,0.00524,0.75398,0.00000,0.00000,0.00000,40,1,64,27,25,11,64,21,ok,2,0,0.003,12,0.18,-1.44,9.61,66,0.089,8.15
11.7201,-0.16406,0.00524,0.75398,0.00000,0.00000,0.00000,40,1,67,24,27,10,65,22,ok,2,0,0.003,12,0.18,-1.44,9.61,66,0.101,8.15
11.7233,-0.16406,0.00524,0.75398,0.00000,0.00000,0.00000,41,0,69,20,28,10,65,24,ok,2,0,0.003,12,0.18,-1.44,9.61,66,0.114,8.15
11.7359,-0.16406,0.00524,0.75398,0.00000,0.00000,0.00000,42,1,70,15,29,9,64,25,ok,2,0,0.003,12,0.18,-1.44,9.61,66,0.127,8.15
11.7561,-0.16406,0.00524,0.75398,0.00000,0.00000,0.00000,42,1,71,13,30,8,64,27,ok,2,0,0.003,12,0.18,-1.44,9.61,66,0.140,8.15
11.7609,-0.16406,0.00524,0.75398,0.00000,0.00000,0.00000,44,2,70,12,33,8,65,27,ok,2,0,0.003,12,0.18,-1.44,9.61,66,0.152,8.15
11.7735,-0.16406,0.00524,0.75398,0.00000,0.00000,0.00000,44,2,70,9,33,8,64,29,ok,2,0,0.003,12,0.18,-1.44,9.61,66,0.165,8.15
11.7961,-0.16406,0.00524,0.75398,0.00000,0.00000,0.00000,45,3,69,6,35,8,64,31,ok,2,0,0.003,12,0.18,-1.44,9.61,66,0.177,8.15
11.7995,-0.16406,0.00524,0.75398,0.00000,0.00000,0.00000,46,3,69,3,36,7,64,32,ok,2,0,0.003,12,0.18,-1.44,9.61,66,0.190,8.15
11.8122,-0.13439,0.03491,0.77144,0.00000,0.00000,0.00000,46,3,67,0,37,8,64,34,ok,2,0,0.003,12,-0.25,-1.48,9.50,67,0.000,8.15
11.8321,-0.13439,0.03491,0.77144,0.00000,0.00000,0.00000,47,3,66,-2,39,7,63,35,ok,2,0,0.003,12,-0.25,-1.48,9.50,67,0.012,8.15
11.8369,-0.13439,0.03491,0.77144,0.00000,0.00000,0.00000,48,3,64,-3,40,7,63,36,ok,2,0,0.003,12,-0.25,-1.48,9.50,67,0.025,8.15
11.8495,-0.13439,0.03491,0.77144,0.00000,0.00000,0.00000,48,3,62,-4,41,6,64,36,ok,2,0,0.003,12,-0.25,-1.48,9.50,67,0.038,8.15
11.8721,-0.13439,0.03491,0.77144,0.00000,0.00000,0.00000,48,3,61,-6,42,6,65,36,ok,2,0,0.003,12,-0.25,-1.48,9.50,67,0.050,8.15
11.8753,-0.13439,0.03491,0.77144,0.00000,0.00000,0.00000,49,3,60,-8,43,6,67,33,ok,2,0,0.003,12,-0.25,-1.48,9.50,67,0.063,8.15
11.8879,-0.13439,0.03491,0.77144,0.00000,0.00000,0.00000,50,4,57,-8,44,6,69,28,ok,2,0,0.003,12,-0.25,-1.48,9.50,67,0.076,8.15
11.9081,-0.13439,0.03491,0.77144,0.00000,0.00000,0.00000,50,3,55,-9,45,6,70,24,ok,2,0,0.003,12,-0.25,-1.48,9.50,67,0.089,8.15
11.9130,-0.13439,0.03491,0.77144,0.00000,0.00000,0.00000,50,3,53,-9,46,6,72,21,ok,2,0,0.003,12,-0.25,-1.48,9.50,67,0.101,8.15
11.9254,-0.13439,0.03491,0.77144,0.00000,0.00000,0.00000,50,5,51,-10,47,6,72,21,ok,2,0,0.003,12,-0.25,-1.48,9.50,67,0.114,8.15
11.9481,-0.13439,0.03491,0.77144,0.00000,0.00000,0.00000,51,6,49,-10,48,7,72,19,ok,2,0,0.003,12,-0.25,-1.48,9.50,67,0.126,8.15
11.9513,-0.13439,0.03491,0.77144,0.00000,0.00000,0.00000,52,5,46,-10,49,7,72,15,ok,2,0,0.003,12,-0.25,-1.48,9.50,67,0.139,8.15
11.9640,-0.13439,0.03491,0.77144,0.00000,0.00000,0.00000,52,6,44,-10,49,7,72,13,ok,2,0,0.003,12,-0.25,-1.48,9.50,67,0.152,8.15
11.9841,-0.13439,0.03491,0.77144,0.00000,0.00000,0.00000,52,7,41,-10,50,7,71,11,ok,2,0,0.003,12,-0.25,-1.48,9.50,67,0.165,8.15
11.9889,-0.13439,0.03491,0.77144,0.00000,0.00000,0.00000,53,7,39,-10,51,7,71,8,ok,2,0,0.003,12,-0.25,-1.48,9.50,67,0.177,8.15
12.0014,-0.13439,0.03491,0.77144,0.00000,0.00000,0.00000,54,7,36,-9,52,6,71,6,ok,2,0,0.003,12,-0.25,-1.48,9.50,67,0.190,8.15
12.0241,-0.13439,0.03491,0.77144,0.00000,0.00000,0.00000,54,7,33,-8,52,7,70,4,ok,2,0,0.003,12,-0.25,-1.48,9.50,67,0.202,8.15
12.0276,-0.01571,-0.03665,0.76445,0.00000,0.00000,0.00000,54,8,30,-7,53,7,68,2,ok,2,0,0.003,12,-0.07,0.41,11.09,68,0.000,8.15
12.0399,-0.01571,-0.03665,0.76445,0.00000,0.00000,0.00000,54,8,27,-7,54,8,66,2,ok,2,0,0.003,12,-0.07,0.41,11.09,68,0.013,8.15
12.0601,-0.01571,-0.03665,0.76445,0.00000,0.00000,0.00000,54,9,24,-5,55,8,64,0,ok,2,0,0.003,12,-0.07,0.41,11.09,68,0.025,8.15
12.0650,-0.01571,-0.03665,0.76445,0.00000,0.00000,0.00000,55,10,20,-3,56,8,63,-2,ok,2,0,0.003,12,-0.07,0.41,11.09,68,0.038,8.15
12.0774,-0.01571,-0.03665,0.76445,0.00000,0.00000,0.00000,55,10,19,-1,59,6,61,-3,ok,2,0,0.003,12,-0.07,0.41,11.09,68,0.050,8.15
12.1001,-0.01571,-0.03665,0.76445,0.00000,0.00000,0.00000,56,10,18,0,59,7,59,-4,ok,2,0,0.003,12,-0.07,0.41,11.09,68,0.063,8.15
12.1033,-0.01571,-0.03665,0.76445,0.00000,0.00000,0.00000,56,11,16,2,59,8,58,-4,ok,2,0,0.003,12,-0.07,0.41,11.09,68,0.076,8.15
12.1161,-0.01571,-0.03665,0.76445,0.00000,0.00000,0.00000,56,12,15,5,59,8,55,-5,ok,2,0,0.003,12,-0.07,0.41,11.09,68,0.089,8.15
12.1361,-0.01571,-0.03665,0.76445,0.00000,0.00000,0.00000,56,13,14,8,60,8,53,-6,ok,2,0,0.003,12,-0.07,0.41,11.09,68,0.101,8.15
12.1409,-0.01571,-0.03665,0.76445,0.00000,0.00000,0.00000,56,13,13,11,60,9,50,-5,ok,2,0,0.003,12,-0.07,0.41,11.09,68,0.114,8.15
12.1535,-0.01571,-0.03665,0.76445,0.00000,0.00000,0.00000,56,14,15,11,60,9,47,-5,ok,2,0,0.003,12,-0.07,0.41,11.09,68,0.126,8.15
12.1762,-0.01571,-0.03665,0.76445,0.00000,0.00000,0.00000,56,14,15,11,61,10,45,-5,ok,2,0,0.003,12,-0.07,0.41,11.09,68,0.139,8.15
12.1794,-0.01571,-0.03665,0.76445,0.00000,0.00000,0.00000,56,14,17,10,61,11,42,-4,ok,2,0,0.003,12,-0.07,0.41,11.09,68,0.152,8.15
12.1920,-0.01571,-0.03665,0.76445,0.00000,0.00000,0.00000,56,15,19,9,61,12,40,-4,ok,2,0,0.003,12,-0.07,0.41,11.09,68,0.165,8.15
12.2121,-0.01571,-0.03665,0.76445,0.00000,0.00000,0.00000,56,15,20,9,61,12,36,-3,ok,2,0,0.003,12,-0.07,0.41,11.09,68,0.177,8.15
12.2174,-0.00873,0.06807,0.73827,0.00000,0.00000,0.00000,57,16,21,8,62,13,34,-3,ok,2,0,0.003,12,0.51,-0.55,9.34,69,0.000,8.15
12.2298,-0.00873,0.06807,0.73827,0.00000,0.00000,0.00000,57,17,22,8,61,14,30,-1,ok,2,0,0.003,12,0.51,-0.55,9.34,69,0.012,8.15
