# run_gait log  cmd_fwd=0.100 hz=80.0 fw_balance=off policy_yaw_sign=-1
t,roll,pitch,yaw,gx,gy,gz,j0,j1,j2,j3,j4,j5,j6,j7,guard_state,hottest_j,hottest_tier,hottest_frac,duty_s,ax,ay,az,imu_n,imu_age_s,volt
0.0405,-0.01745,0.01047,0.00000,0.00000,0.00000,0.00000,36,0,57,10,60,-3,54,8,ok,3,0,0.000,0,0.11,-0.15,10.00,8,0.028,nan
0.0459,-0.01745,0.01047,0.00000,0.00000,0.00000,0.00000,34,1,59,10,59,-4,56,6,ok,2,0,0.000,0,0.11,-0.15,10.00,8,0.054,nan
0.0591,-0.01745,0.01047,0.00000,0.00000,0.00000,0.00000,34,4,59,11,56,-5,56,8,ok,4,0,0.000,0,0.11,-0.15,10.00,8,0.067,8.22
0.0803,-0.01396,0.01222,0.00000,0.00000,0.00000,0.00000,33,6,60,12,55,-6,57,8,ok,4,0,0.000,0,0.12,-0.13,10.01,9,0.000,8.22
0.0843,-0.01396,0.01222,0.00000,0.00000,0.00000,0.00000,32,10,59,13,52,-5,57,9,ok,4,0,0.000,0,0.12,-0.13,10.01,9,0.014,8.22
0.0969,-0.01396,0.01222,0.00000,0.00000,0.00000,0.00000,31,12,60,13,50,-5,58,10,ok,4,0,0.000,0,0.12,-0.13,10.01,9,0.027,8.22
0.1243,-0.01396,0.01222,0.00000,0.00000,0.00000,0.00000,32,13,60,14,47,-5,59,11,ok,4,0,0.000,0,0.12,-0.13,10.01,9,0.040,8.22
0.1283,-0.01396,0.01222,0.00000,0.00000,0.00000,0.00000,32,13,60,15,44,-4,59,11,ok,4,0,0.000,0,0.12,-0.13,10.01,9,0.058,8.22
0.1409,-0.01396,0.01222,0.00000,0.00000,0.00000,0.00000,33,12,61,15,42,-4,60,12,ok,4,0,0.000,0,0.12,-0.13,10.01,9,0.071,8.22
0.1643,-0.01396,0.01222,0.00000,0.00000,0.00000,0.00000,34,11,61,16,39,-3,60,12,ok,4,0,0.000,0,0.12,-0.13,10.01,9,0.083,8.22
0.1682,-0.01396,0.01222,0.00000,0.00000,0.00000,0.00000,34,11,61,17,36,-2,61,13,ok,4,0,0.000,0,0.12,-0.13,10.01,9,0.098,8.22
0.1802,-0.01396,0.01222,0.00000,0.00000,0.00000,0.00000,34,9,61,18,32,-1,61,14,ok,4,0,0.000,0,0.12,-0.13,10.01,9,0.111,8.22
0.2002,-0.01396,0.01222,0.00000,0.00000,0.00000,0.00000,34,9,61,19,30,0,62,15,ok,4,0,0.000,0,0.12,-0.13,10.01,9,0.124,8.22
0.2053,-0.01396,0.01222,0.00000,0.00000,0.00000,0.00000,36,8,62,20,27,2,62,16,ok,4,0,0.000,0,0.12,-0.13,10.01,9,0.136,8.22
0.2177,-0.01396,0.01222,0.00000,0.00000,0.00000,0.00000,36,7,62,21,25,5,63,16,ok,4,0,0.000,0,0.12,-0.13,10.01,9,0.148,8.22
0.2402,-0.01396,0.01222,0.00000,0.00000,0.00000,0.00000,37,7,62,21,23,8,64,17,ok,4,0,0.000,0,0.12,-0.13,10.01,9,0.161,8.22
0.2436,-0.01396,0.01222,0.00000,0.00000,0.00000,0.00000,38,6,62,23,22,11,64,18,ok,4,0,0.000,0,0.12,-0.13,10.01,9,0.174,8.22
0.2560,-0.01396,0.01222,0.00000,0.00000,0.00000,0.00000,38,6,62,23,21,14,64,18,ok,4,0,0.000,0,0.12,-0.13,10.01,9,0.187,8.22
0.2762,-0.01396,0.01222,0.00000,0.00000,0.00000,0.00000,38,5,61,26,23,13,65,19,ok,4,0,0.000,0,0.12,-0.13,10.01,9,0.199,8.22
0.2813,-0.04363,-0.06632,0.01920,0.00000,0.00000,0.00000,39,4,61,28,23,14,65,20,ok,4,0,0.000,0,-0.18,-0.59,9.96,10,0.000,8.22
0.2936,-0.04363,-0.06632,0.01920,0.00000,0.00000,0.00000,40,4,63,26,24,12,65,21,ok,4,0,0.000,0,-0.18,-0.59,9.96,10,0.013,8.22
0.3162,-0.04363,-0.06632,0.01920,0.00000,0.00000,0.00000,40,4,66,23,25,11,66,23,ok,4,0,0.000,0,-0.18,-0.59,9.96,10,0.025,8.22
0.3196,-0.04363,-0.06632,0.01920,0.00000,0.00000,0.00000,41,3,68,19,26,11,66,24,ok,4,0,0.000,0,-0.18,-0.59,9.96,10,0.038,8.22
0.3320,-0.04363,-0.06632,0.01920,0.00000,0.00000,0.00000,42,3,70,16,27,11,65,25,ok,4,0,0.000,0,-0.18,-0.59,9.96,10,0.051,8.22
0.3522,-0.04363,-0.06632,0.01920,0.00000,0.00000,0.00000,42,3,70,14,28,10,65,27,ok,4,0,0.000,0,-0.18,-0.59,9.96,10,0.064,8.22
0.3570,-0.04363,-0.06632,0.01920,0.00000,0.00000,0.00000,44,2,71,13,31,10,66,27,ok,4,0,0.000,0,-0.18,-0.59,9.96,10,0.076,8.22
0.3696,-0.04363,-0.06632,0.01920,0.00000,0.00000,0.00000,44,3,71,10,31,10,65,30,ok,4,0,0.000,0,-0.18,-0.59,9.96,10,0.089,8.22
0.3922,-0.04363,-0.06632,0.01920,0.00000,0.00000,0.00000,45,3,71,7,33,10,65,31,ok,4,0,0.000,0,-0.18,-0.59,9.96,10,0.101,8.22
0.3954,-0.04363,-0.06632,0.01920,0.00000,0.00000,0.00000,46,3,70,4,34,9,65,32,ok,4,0,0.000,0,-0.18,-0.59,9.96,10,0.114,8.22
0.4081,-0.04363,-0.06632,0.01920,0.00000,0.00000,0.00000,46,3,69,1,35,9,65,33,ok,4,0,0.000,0,-0.18,-0.59,9.96,10,0.127,8.22
0.4282,-0.04363,-0.06632,0.01920,0.00000,0.00000,0.00000,47,3,68,0,36,8,64,35,ok,4,0,0.000,0,-0.18,-0.59,9.96,10,0.140,8.22
0.4330,-0.04363,-0.06632,0.01920,0.00000,0.00000,0.00000,48,3,67,-2,38,8,64,36,ok,4,0,0.000,0,-0.18,-0.59,9.96,10,0.152,8.22
0.4456,-0.04363,-0.06632,0.01920,0.00000,0.00000,0.00000,48,3,65,-3,39,7,65,36,ok,4,0,0.000,0,-0.18,-0.59,9.96,10,0.165,8.22
0.4682,-0.04363,-0.06632,0.01920,0.00000,0.00000,0.00000,48,4,63,-5,41,7,66,34,ok,4,0,0.000,0,-0.18,-0.59,9.96,10,0.177,8.22
0.4721,-0.09948,0.05236,0.07505,0.00000,0.00000,0.00000,49,4,62,-7,42,7,67,32,ok,4,0,0.000,0,-0.27,0.37,11.25,11,0.000,8.22
0.4841,-0.09948,0.05236,0.07505,0.00000,0.00000,0.00000,50,5,59,-7,43,6,69,27,ok,4,0,0.000,0,-0.27,0.37,11.25,11,0.013,8.22
0.5042,-0.09948,0.05236,0.07505,0.00000,0.00000,0.00000,51,4,57,-8,44,6,71,23,ok,4,0,0.000,0,-0.27,0.37,11.25,11,0.025,8.22
0.5090,-0.09948,0.05236,0.07505,0.00000,0.00000,0.00000,52,4,54,-9,45,6,73,20,ok,4,0,0.000,0,-0.27,0.37,11.25,11,0.038,8.22
0.5217,-0.09948,0.05236,0.07505,0.00000,0.00000,0.00000,52,6,52,-10,47,6,73,20,ok,4,0,0.000,0,-0.27,0.37,11.25,11,0.050,8.22
0.5442,-0.09948,0.05236,0.07505,0.00000,0.00000,0.00000,52,6,49,-10,48,6,73,17,ok,4,0,0.000,1,-0.27,0.37,11.25,11,0.063,8.22
0.5476,-0.09948,0.05236,0.07505,0.00000,0.00000,0.00000,52,5,47,-10,49,7,73,14,ok,4,0,0.000,1,-0.27,0.37,11.25,11,0.076,8.22
0.5600,-0.09948,0.05236,0.07505,0.00000,0.00000,0.00000,52,5,45,-9,50,7,72,11,ok,4,0,0.000,1,-0.27,0.37,11.25,11,0.089,8.22
0.5842,-0.09948,0.05236,0.07505,0.00000,0.00000,0.00000,52,6,42,-10,51,7,72,10,ok,4,0,0.000,1,-0.27,0.37,11.25,11,0.101,8.22
0.5874,-0.09948,0.05236,0.07505,0.00000,0.00000,0.00000,54,6,39,-10,52,7,72,6,ok,4,0,0.000,1,-0.27,0.37,11.25,11,0.116,8.22
0.6002,-0.09948,0.05236,0.07505,0.00000,0.00000,0.00000,54,6,37,-9,53,6,72,4,ok,4,0,0.000,1,-0.27,0.37,11.25,11,0.129,8.22
0.6202,-0.09948,0.05236,0.07505,0.00000,0.00000,0.00000,54,7,33,-8,53,7,70,3,ok,4,0,0.000,1,-0.27,0.37,11.25,11,0.141,8.22
0.6250,-0.09948,0.05236,0.07505,0.00000,0.00000,0.00000,54,8,30,-8,54,7,69,0,ok,4,0,0.000,1,-0.27,0.37,11.25,11,0.154,8.22
0.6375,-0.09948,0.05236,0.07505,0.00000,0.00000,0.00000,54,8,27,-7,54,8,66,0,ok,4,0,0.000,1,-0.27,0.37,11.25,11,0.166,8.22
0.6602,-0.09948,0.05236,0.07505,0.00000,0.00000,0.00000,54,9,24,-5,55,8,65,-2,ok,2,0,0.000,1,-0.27,0.37,11.25,11,0.179,8.22
0.6634,-0.09948,0.05236,0.07505,0.00000,0.00000,0.00000,55,10,20,-2,56,8,65,-4,ok,2,0,0.000,1,-0.27,0.37,11.25,11,0.192,8.22
0.6764,-0.03840,0.01745,0.05760,0.00000,0.00000,0.00000,55,10,18,-1,58,6,62,-5,ok,2,0,0.000,1,-0.28,-0.34,9.37,12,0.000,8.22
0.6962,-0.03840,0.01745,0.05760,0.00000,0.00000,0.00000,56,10,17,0,58,8,60,-5,ok,2,0,0.000,1,-0.28,-0.34,9.37,12,0.013,8.22
0.7011,-0.03840,0.01745,0.05760,0.00000,0.00000,0.00000,56,10,15,3,59,9,58,-6,ok,2,0,0.000,1,-0.28,-0.34,9.37,12,0.025,8.22
0.7135,-0.03840,0.01745,0.05760,0.00000,0.00000,0.00000,56,11,14,6,59,9,55,-6,ok,2,0,0.000,1,-0.28,-0.34,9.37,12,0.038,8.22
0.7362,-0.03840,0.01745,0.05760,0.00000,0.00000,0.00000,56,12,12,9,60,10,54,-7,ok,2,0,0.000,1,-0.28,-0.34,9.37,12,0.050,8.22
0.7396,-0.03840,0.01745,0.05760,0.00000,0.00000,0.00000,56,12,12,11,60,10,50,-6,ok,2,0,0.000,1,-0.28,-0.34,9.37,12,0.063,8.22
0.7521,-0.03840,0.01745,0.05760,0.00000,0.00000,0.00000,56,13,13,12,60,10,48,-6,ok,2,0,0.000,1,-0.28,-0.34,9.37,12,0.076,8.22
0.7722,-0.03840,0.01745,0.05760,0.00000,0.00000,0.00000,56,14,15,11,61,11,46,-6,ok,2,0,0.000,1,-0.28,-0.34,9.37,12,0.089,8.22
0.7770,-0.03840,0.01745,0.05760,0.00000,0.00000,0.00000,56,14,16,10,61,11,43,-5,ok,2,0,0.000,1,-0.28,-0.34,9.37,12,0.101,8.22
0.7897,-0.03840,0.01745,0.05760,0.00000,0.00000,0.00000,56,15,18,9,61,12,41,-5,ok,2,0,0.000,1,-0.28,-0.34,9.37,12,0.113,8.22
0.8122,-0.03840,0.01745,0.05760,0.00000,0.00000,0.00000,56,16,19,8,61,12,37,-4,ok,2,0,0.000,1,-0.28,-0.34,9.37,12,0.126,8.22
0.8154,-0.03840,0.01745,0.05760,0.00000,0.00000,0.00000,57,16,21,7,62,13,35,-3,ok,2,0,0.000,1,-0.28,-0.34,9.37,12,0.139,8.22
0.8281,-0.03840,0.01745,0.05760,0.00000,0.00000,0.00000,57,17,21,7,62,14,31,-1,ok,2,0,0.000,1,-0.28,-0.34,9.37,12,0.152,8.22
0.8482,-0.03840,0.01745,0.05760,0.00000,0.00000,0.00000,58,19,23,6,63,14,30,0,ok,2,0,0.000,1,-0.28,-0.34,9.37,12,0.165,8.22
0.8531,-0.03840,0.01745,0.05760,0.00000,0.00000,0.00000,58,20,24,5,63,15,27,1,ok,2,0,0.000,1,-0.28,-0.34,9.37,12,0.177,8.22
0.8657,-0.03840,0.01745,0.05760,0.00000,0.00000,0.00000,58,21,24,4,63,16,25,4,ok,2,0,0.000,1,-0.28,-0.34,9.37,12,0.190,8.22
0.8882,-0.09948,0.12392,0.02443,0.00000,0.00000,0.00000,58,22,25,4,63,17,24,7,ok,2,0,0.000,1,0.96,-2.22,9.88,13,0.000,8.22
0.8914,-0.09948,0.12392,0.02443,0.00000,0.00000,0.00000,58,23,26,3,63,17,23,11,ok,2,0,0.000,1,0.96,-2.22,9.88,13,0.013,8.22
0.9041,-0.09948,0.12392,0.02443,0.00000,0.00000,0.00000,57,26,27,3,63,18,23,13,ok,2,0,0.000,1,0.96,-2.22,9.88,13,0.026,8.22
0.9242,-0.09948,0.12392,0.02443,0.00000,0.00000,0.00000,57,26,28,2,64,19,25,12,ok,2,0,0.000,1,0.96,-2.22,9.88,13,0.039,8.22
0.9292,-0.09948,0.12392,0.02443,0.00000,0.00000,0.00000,58,25,29,2,64,20,25,11,ok,2,0,0.000,1,0.96,-2.22,9.88,13,0.051,8.22
0.9416,-0.09948,0.12392,0.02443,0.00000,0.00000,0.00000,58,21,30,2,64,22,26,10,ok,2,0,0.000,1,0.96,-2.22,9.88,13,0.064,8.22
0.9642,-0.09948,0.12392,0.02443,0.00000,0.00000,0.00000,60,17,31,2,64,23,27,9,ok,2,0,0.000,1,0.96,-2.22,9.88,13,0.076,8.22
0.9674,-0.09948,0.12392,0.02443,0.00000,0.00000,0.00000,60,12,32,2,64,25,28,10,ok,2,0,0.000,1,0.96,-2.22,9.88,13,0.089,8.22
0.9803,-0.09948,0.12392,0.02443,0.00000,0.00000,0.00000,60,10,33,2,65,25,29,9,ok,2,0,0.000,1,0.96,-2.22,9.88,13,0.102,8.22
1.0002,-0.09948,0.12392,0.02443,0.00000,0.00000,0.00000,60,10,35,2,64,28,31,9,ok,2,0,0.000,1,0.96,-2.22,9.88,13,0.115,8.22
1.0051,-0.09948,0.12392,0.02443,0.00000,0.00000,0.00000,60,7,36,2,64,29,33,9,ok,2,0,0.000,1,0.96,-2.22,9.88,13,0.127,8.22
1.0177,-0.09948,0.12392,0.02443,0.00000,0.00000,0.00000,60,4,38,3,64,30,34,9,ok,2,0,0.000,1,0.96,-2.22,9.88,13,0.140,8.22
1.0402,-0.09948,0.12392,0.02443,0.00000,0.00000,0.00000,59,2,39,3,64,32,35,8,ok,2,0,0.000,1,0.96,-2.22,9.88,13,0.152,8.22
1.0433,-0.09948,0.12392,0.02443,0.00000,0.00000,0.00000,59,-1,41,2,64,33,36,8,ok,2,0,0.000,1,0.96,-2.22,9.88,13,0.165,8.22
1.0562,-0.09948,0.12392,0.02443,0.00000,0.00000,0.00000,58,-3,42,2,64,35,37,8,ok,2,0,0.000,1,0.96,-2.22,9.88,13,0.178,8.22
1.0762,-0.09948,0.12392,0.02443,0.00000,0.00000,0.00000,58,-4,43,2,65,35,39,8,ok,2,0,0.000,1,0.96,-2.22,9.88,13,0.191,8.22
1.0815,-0.09948,0.12392,0.02443,0.00000,0.00000,0.00000,56,-5,43,2,66,35,40,7,ok,2,0,0.000,1,0.96,-2.22,9.88,13,0.203,8.22
1.0939,-0.05934,-0.00524,0.04363,0.00000,0.00000,0.00000,56,-6,45,3,68,33,41,7,ok,2,0,0.000,1,0.12,0.13,9.41,14,0.000,8.22
1.1162,-0.05934,-0.00524,0.04363,0.00000,0.00000,0.00000,56,-9,46,2,70,29,43,7,ok,2,0,0.000,1,0.12,0.13,9.41,14,0.013,8.22
1.1194,-0.05934,-0.00524,0.04363,0.00000,0.00000,0.00000,54,-9,47,3,72,24,44,7,ok,2,0,0.000,1,0.12,0.13,9.41,14,0.026,8.22
1.1325,-0.05934,-0.00524,0.04363,0.00000,0.00000,0.00000,53,-10,49,3,73,22,44,7,ok,2,0,0.000,1,0.12,0.13,9.41,14,0.039,8.22
1.1522,-0.05934,-0.00524,0.04363,0.00000,0.00000,0.00000,52,-10,49,3,74,21,45,7,ok,2,0,0.000,1,0.12,0.13,9.41,14,0.051,8.22
1.1571,-0.05934,-0.00524,0.04363,0.00000,0.00000,0.00000,51,-11,50,5,74,19,47,7,ok,2,0,0.000,1,0.12,0.13,9.41,14,0.064,8.22
1.1695,-0.05934,-0.00524,0.04363,0.00000,0.00000,0.00000,50,-10,51,6,74,15,47,8,ok,2,0,0.000,1,0.12,0.13,9.41,14,0.076,8.22
1.1922,-0.05934,-0.00524,0.04363,0.00000,0.00000,0.00000,48,-10,52,5,73,12,48,8,ok,2,0,0.000,1,0.12,0.13,9.41,14,0.089,8.22
1.1954,-0.05934,-0.00524,0.04363,0.00000,0.00000,0.00000,47,-10,53,6,72,10,49,8,ok,2,0,0.000,1,0.12,0.13,9.41,14,0.102,8.22
1.2081,-0.05934,-0.00524,0.04363,0.00000,0.00000,0.00000,46,-10,54,6,72,6,50,8,ok,2,0,0.000,1,0.12,0.13,9.41,14,0.115,8.22
1.2282,-0.05934,-0.00524,0.04363,0.00000,0.00000,0.00000,44,-10,56,6,72,5,50,8,ok,2,0,0.000,1,0.12,0.13,9.41,14,0.127,8.22
1.2333,-0.05934,-0.00524,0.04363,0.00000,0.00000,0.00000,43,-9,56,7,71,4,51,9,ok,2,0,0.000,1,0.12,0.13,9.41,14,0.139,8.22
1.2455,-0.05934,-0.00524,0.04363,0.00000,0.00000,0.00000,42,-8,57,7,69,1,52,7,ok,2,0,0.000,1,0.12,0.13,9.41,14,0.152,8.22
1.2682,-0.05934,-0.00524,0.04363,0.00000,0.00000,0.00000,40,-7,57,8,66,2,52,8,ok,2,0,0.000,1,0.12,0.13,9.41,14,0.165,8.22
1.2714,-0.05934,-0.00524,0.04363,0.00000,0.00000,0.00000,38,-6,58,8,65,-1,53,8,ok,2,0,0.000,1,0.12,0.13,9.41,14,0.178,8.22
1.2847,0.06807,-0.01571,0.04887,0.00000,0.00000,0.00000,37,-4,58,8,63,-3,54,9,ok,2,0,0.000,1,0.09,0.75,9.10,15,0.000,8.22
1.3042,0.06807,-0.01571,0.04887,0.00000,0.00000,0.00000,35,-1,59,9,61,-3,55,8,ok,2,0,0.000,1,0.09,0.75,9.10,15,0.013,8.22
1.3092,0.06807,-0.01571,0.04887,0.00000,0.00000,0.00000,34,-1,60,10,60,-5,54,8,ok,2,0,0.000,1,0.09,0.75,9.10,15,0.025,8.22
1.3218,0.06807,-0.01571,0.04887,0.00000,0.00000,0.00000,34,0,61,10,59,-5,56,6,ok,2,0,0.000,1,0.09,0.75,9.10,15,0.038,8.22
1.3442,0.06807,-0.01571,0.04887,0.00000,0.00000,0.00000,33,3,61,10,56,-6,56,7,ok,2,0,0.000,1,0.09,0.75,9.10,15,0.050,8.22
1.3474,0.06807,-0.01571,0.04887,0.00000,0.00000,0.00000,32,6,61,10,54,-7,57,8,ok,2,0,0.000,1,0.09,0.75,9.10,15,0.063,8.22
1.3603,0.06807,-0.01571,0.04887,0.00000,0.00000,0.00000,32,10,61,11,51,-6,58,8,ok,2,0,0.000,1,0.09,0.75,9.10,15,0.076,8.22
1.3802,0.06807,-0.01571,0.04887,0.00000,0.00000,0.00000,32,12,61,11,48,-5,58,8,ok,2,0,0.000,1,0.09,0.75,9.10,15,0.088,8.22
1.3854,0.06807,-0.01571,0.04887,0.00000,0.00000,0.00000,32,12,62,12,46,-6,60,9,ok,2,0,0.000,1,0.09,0.75,9.10,15,0.101,8.22
1.3975,0.06807,-0.01571,0.04887,0.00000,0.00000,0.00000,32,12,61,13,43,-5,59,9,ok,2,0,0.000,1,0.09,0.75,9.10,15,0.113,8.22
1.4202,0.06807,-0.01571,0.04887,0.00000,0.00000,0.00000,33,11,62,13,40,-5,60,10,ok,4,0,0.000,1,0.09,0.75,9.10,15,0.126,8.22
1.4236,0.06807,-0.01571,0.04887,0.00000,0.00000,0.00000,34,10,62,14,37,-4,61,11,ok,4,0,0.000,1,0.09,0.75,9.10,15,0.139,8.22
1.4364,0.06807,-0.01571,0.04887,0.00000,0.00000,0.00000,34,9,62,15,34,-3,61,12,ok,4,0,0.000,1,0.09,0.75,9.10,15,0.152,8.22
1.4562,0.06807,-0.01571,0.04887,0.00000,0.00000,0.00000,35,7,63,16,31,-1,61,13,ok,4,0,0.000,1,0.09,0.75,9.10,15,0.165,8.22
1.4611,0.06807,-0.01571,0.04887,0.00000,0.00000,0.00000,36,7,63,17,29,0,62,13,ok,4,0,0.000,1,0.09,0.75,9.10,15,0.177,8.22
1.4737,0.06807,-0.01571,0.04887,0.00000,0.00000,0.00000,36,6,64,18,28,2,62,14,ok,4,0,0.000,1,0.09,0.75,9.10,15,0.190,8.22
1.4962,-0.06109,0.03665,0.01047,0.00000,0.00000,0.00000,37,5,64,19,25,5,63,15,ok,4,0,0.000,1,1.46,0.89,10.12,16,0.000,8.22
1.4994,-0.06109,0.03665,0.01047,0.00000,0.00000,0.00000,38,5,64,21,24,7,63,16,ok,4,0,0.000,1,1.46,0.89,10.12,16,0.013,8.22
1.5121,-0.06109,0.03665,0.01047,0.00000,0.00000,0.00000,38,4,64,22,22,11,63,17,ok,4,0,0.000,1,1.46,0.89,10.12,16,0.026,8.22
1.5322,-0.06109,0.03665,0.01047,0.00000,0.00000,0.00000,38,3,64,23,21,14,64,18,ok,4,0,0.000,1,1.46,0.89,10.12,16,0.039,8.22
1.5373,-0.06109,0.03665,0.01047,0.00000,0.00000,0.00000,39,3,63,26,23,13,64,19,ok,4,0,0.000,1,1.46,0.89,10.12,16,0.051,8.22
1.5495,-0.06109,0.03665,0.01047,0.00000,0.00000,0.00000,40,2,63,28,23,13,64,19,ok,4,0,0.000,1,1.46,0.89,10.12,16,0.064,8.22
1.5722,-0.06109,0.03665,0.01047,0.00000,0.00000,0.00000,40,1,64,26,25,11,64,20,ok,4,0,0.000,2,1.46,0.89,10.12,16,0.076,8.22
1.5754,-0.06109,0.03665,0.01047,0.00000,0.00000,0.00000,40,0,67,23,26,10,65,21,ok,4,0,0.000,2,1.46,0.89,10.12,16,0.089,8.22
1.5906,-0.06109,0.03665,0.01047,0.00000,0.00000,0.00000,41,0,69,20,27,11,65,23,ok,4,0,0.000,2,1.46,0.89,10.12,16,0.102,8.22
1.6083,-0.06109,0.03665,0.01047,0.00000,0.00000,0.00000,42,0,70,15,29,10,64,24,ok,4,0,0.000,2,1.46,0.89,10.12,16,0.115,8.22
1.6131,-0.06109,0.03665,0.01047,0.00000,0.00000,0.00000,42,1,71,13,30,9,65,26,ok,4,0,0.000,2,1.46,0.89,10.12,16,0.127,8.22
1.6255,-0.06109,0.03665,0.01047,0.00000,0.00000,0.00000,44,1,70,12,33,9,65,26,ok,4,0,0.000,2,1.46,0.89,10.12,16,0.140,8.22
1.6482,-0.06109,0.03665,0.01047,0.00000,0.00000,0.00000,44,2,70,9,33,9,64,28,ok,4,0,0.000,2,1.46,0.89,10.12,16,0.152,8.22
1.6514,-0.06109,0.03665,0.01047,0.00000,0.00000,0.00000,45,3,69,6,35,9,64,30,ok,4,0,0.000,2,1.46,0.89,10.12,16,0.165,8.22
1.6643,-0.06109,0.03665,0.01047,0.00000,0.00000,0.00000,46,3,69,3,36,8,64,31,ok,4,0,0.000,2,1.46,0.89,10.12,16,0.178,8.22
1.6842,-0.06109,0.03665,0.01047,0.00000,0.00000,0.00000,46,3,67,0,37,9,64,33,ok,4,0,0.000,2,1.46,0.89,10.12,16,0.191,8.22
1.6894,-0.17628,0.01920,0.04363,0.00000,0.00000,0.00000,47,2,66,-2,38,8,64,34,ok,4,0,0.000,2,0.06,-1.92,9.12,17,0.000,8.22
1.7016,-0.17628,0.01920,0.04363,0.00000,0.00000,0.00000,48,2,64,-3,39,7,64,36,ok,4,0,0.000,2,0.06,-1.92,9.12,17,0.013,8.22
1.7242,-0.17628,0.01920,0.04363,0.00000,0.00000,0.00000,48,2,62,-4,40,6,65,36,ok,4,0,0.000,2,0.06,-1.92,9.12,17,0.025,8.22
1.7273,-0.17628,0.01920,0.04363,0.00000,0.00000,0.00000,48,3,61,-5,42,6,66,35,ok,4,0,0.001,2,0.06,-1.92,9.12,17,0.038,8.22
1.7401,-0.17628,0.01920,0.04363,0.00000,0.00000,0.00000,49,2,60,-8,43,7,68,32,ok,4,0,0.001,2,0.06,-1.92,9.12,17,0.051,8.22
1.7602,-0.17628,0.01920,0.04363,0.00000,0.00000,0.00000,50,3,58,-8,44,7,70,27,ok,4,0,0.001,2,0.06,-1.92,9.12,17,0.064,8.22
1.7651,-0.17628,0.01920,0.04363,0.00000,0.00000,0.00000,50,3,55,-9,45,7,71,24,ok,4,0,0.001,2,0.06,-1.92,9.12,17,0.076,8.22
1.7775,-0.17628,0.01920,0.04363,0.00000,0.00000,0.00000,50,2,53,-9,46,7,73,21,ok,4,0,0.001,2,0.06,-1.92,9.12,17,0.089,8.22
1.8002,-0.17628,0.01920,0.04363,0.00000,0.00000,0.00000,50,5,51,-10,47,7,73,21,ok,4,0,0.001,2,0.06,-1.92,9.12,17,0.101,8.22
1.8034,-0.17628,0.01920,0.04363,0.00000,0.00000,0.00000,51,5,49,-10,47,7,73,19,ok,4,0,0.001,2,0.06,-1.92,9.12,17,0.114,8.22
1.8161,-0.17628,0.01920,0.04363,0.00000,0.00000,0.00000,52,5,46,-10,49,7,73,15,ok,4,0,0.001,2,0.06,-1.92,9.12,17,0.127,8.22
1.8362,-0.17628,0.01920,0.04363,0.00000,0.00000,0.00000,52,6,44,-9,49,7,72,12,ok,4,0,0.001,2,0.06,-1.92,9.12,17,0.140,8.22
1.8411,-0.17628,0.01920,0.04363,0.00000,0.00000,0.00000,52,7,41,-10,50,7,72,11,ok,4,0,0.001,2,0.06,-1.92,9.12,17,0.152,8.22
1.8535,-0.17628,0.01920,0.04363,0.00000,0.00000,0.00000,53,8,39,-10,50,7,71,7,ok,4,0,0.001,2,0.06,-1.92,9.12,17,0.165,8.22
1.8762,-0.17628,0.01920,0.04363,0.00000,0.00000,0.00000,54,8,36,-9,51,6,71,6,ok,2,0,0.001,2,0.06,-1.92,9.12,17,0.177,8.22
1.8796,-0.17628,0.01920,0.04363,0.00000,0.00000,0.00000,54,8,33,-9,52,7,70,4,ok,2,0,0.001,2,0.06,-1.92,9.12,17,0.190,8.22
1.8924,-0.07679,0.02967,0.01571,0.00000,0.00000,0.00000,54,8,30,-7,53,7,68,2,ok,2,0,0.001,2,0.87,0.32,11.31,18,0.000,8.22
1.9122,-0.07679,0.02967,0.01571,0.00000,0.00000,0.00000,54,8,27,-7,54,8,66,2,ok,2,0,0.001,2,0.87,0.32,11.31,18,0.012,8.22
1.9171,-0.07679,0.02967,0.01571,0.00000,0.00000,0.00000,54,9,24,-5,55,8,65,0,ok,2,0,0.001,2,0.87,0.32,11.31,18,0.025,8.22
1.9295,-0.07679,0.02967,0.01571,0.00000,0.00000,0.00000,55,10,20,-3,56,8,63,-2,ok,2,0,0.001,2,0.87,0.32,11.31,18,0.038,8.22
1.9522,-0.07679,0.02967,0.01571,0.00000,0.00000,0.00000,55,11,19,-1,58,6,61,-3,ok,2,0,0.001,2,0.87,0.32,11.31,18,0.050,8.22
1.9554,-0.07679,0.02967,0.01571,0.00000,0.00000,0.00000,56,11,18,0,58,7,59,-4,ok,2,0,0.001,2,0.87,0.32,11.31,18,0.063,8.22
1.9683,-0.07679,0.02967,0.01571,0.00000,0.00000,0.00000,56,11,16,2,59,8,58,-5,ok,2,0,0.001,2,0.87,0.32,11.31,18,0.076,8.22
1.9882,-0.07679,0.02967,0.01571,0.00000,0.00000,0.00000,56,12,15,5,59,8,55,-6,ok,2,0,0.001,2,0.87,0.32,11.31,18,0.088,8.22
1.9930,-0.07679,0.02967,0.01571,0.00000,0.00000,0.00000,56,13,13,8,60,9,53,-6,ok,2,0,0.001,2,0.87,0.32,11.31,18,0.101,8.22
2.0055,-0.07679,0.02967,0.01571,0.00000,0.00000,0.00000,56,13,12,11,60,9,50,-5,ok,2,0,0.001,2,0.87,0.32,11.31,18,0.113,8.22
2.0282,-0.07679,0.02967,0.01571,0.00000,0.00000,0.00000,56,14,14,11,60,9,48,-5,ok,2,0,0.001,2,0.87,0.32,11.31,18,0.126,8.22
2.0314,-0.07679,0.02967,0.01571,0.00000,0.00000,0.00000,56,14,15,11,61,10,46,-5,ok,2,0,0.001,2,0.87,0.32,11.31,18,0.139,8.22
2.0442,-0.07679,0.02967,0.01571,0.00000,0.00000,0.00000,56,14,16,10,61,11,43,-4,ok,2,0,0.001,2,0.87,0.32,11.31,18,0.152,8.22
2.0642,-0.07679,0.02967,0.01571,0.00000,0.00000,0.00000,56,15,18,9,61,12,41,-4,ok,2,0,0.001,2,0.87,0.32,11.31,18,0.165,8.22
2.0691,-0.07679,0.02967,0.01571,0.00000,0.00000,0.00000,56,15,19,8,61,12,37,-3,ok,2,0,0.001,2,0.87,0.32,11.31,18,0.177,8.22
2.0817,-0.07679,0.02967,0.01571,0.00000,0.00000,0.00000,56,16,21,8,62,13,35,-3,ok,2,0,0.001,2,0.87,0.32,11.31,18,0.189,8.22
2.1042,-0.00175,0.03840,-0.00698,0.00000,0.00000,0.00000,56,17,21,7,62,14,31,-1,ok,2,0,0.001,2,0.24,0.26,10.52,19,0.000,8.22
2.1074,-0.00175,0.03840,-0.00698,0.00000,0.00000,0.00000,57,19,23,6,63,14,30,0,ok,2,0,0.001,2,0.24,0.26,10.52,19,0.013,8.22
2.1202,-0.00175,0.03840,-0.00698,0.00000,0.00000,0.00000,57,20,24,5,63,16,27,2,ok,2,0,0.001,2,0.24,0.26,10.52,19,0.026,8.22
2.1402,-0.00175,0.03840,-0.00698,0.00000,0.00000,0.00000,58,21,24,4,63,16,25,5,ok,2,0,0.001,2,0.24,0.26,10.52,19,0.038,8.22
2.1451,-0.00175,0.03840,-0.00698,0.00000,0.00000,0.00000,58,22,25,4,64,17,24,7,ok,2,0,0.001,2,0.24,0.26,10.52,19,0.051,8.22
2.1575,-0.00175,0.03840,-0.00698,0.00000,0.00000,0.00000,58,23,26,3,64,18,23,11,ok,2,0,0.001,2,0.24,0.26,10.52,19,0.063,8.22
2.1803,-0.00175,0.03840,-0.00698,0.00000,0.00000,0.00000,57,26,27,2,64,19,22,13,ok,2,0,0.001,2,0.24,0.26,10.52,19,0.076,8.22
2.1836,-0.00175,0.03840,-0.00698,0.00000,0.00000,0.00000,57,27,27,1,64,20,24,12,ok,2,0,0.001,2,0.24,0.26,10.52,19,0.089,8.22
2.1964,-0.00175,0.03840,-0.00698,0.00000,0.00000,0.00000,58,26,29,1,64,21,25,11,ok,2,0,0.001,2,0.24,0.26,10.52,19,0.102,8.22
2.2162,-0.00175,0.03840,-0.00698,0.00000,0.00000,0.00000,58,22,30,1,65,22,25,10,ok,2,0,0.001,2,0.24,0.26,10.52,19,0.115,8.22
2.2211,-0.00175,0.03840,-0.00698,0.00000,0.00000,0.00000,60,18,31,1,64,23,27,9,ok,2,0,0.001,2,0.24,0.26,10.52,19,0.127,8.22
2.2336,-0.00175,0.03840,-0.00698,0.00000,0.00000,0.00000,60,14,32,2,64,25,28,10,ok,2,0,0.001,2,0.24,0.26,10.52,19,0.140,8.22
2.2562,-0.00175,0.03840,-0.00698,0.00000,0.00000,0.00000,60,11,34,2,65,26,29,9,ok,2,0,0.001,2,0.24,0.26,10.52,19,0.152,8.22
2.2594,-0.00175,0.03840,-0.00698,0.00000,0.00000,0.00000,60,11,35,2,64,28,30,9,ok,2,0,0.001,2,0.24,0.26,10.52,19,0.165,8.22
2.2723,-0.00175,0.03840,-0.00698,0.00000,0.00000,0.00000,60,7,37,2,64,29,32,9,ok,2,0,0.001,2,0.24,0.26,10.52,19,0.178,8.22
2.2922,-0.09774,0.04887,0.03840,0.00000,0.00000,0.00000,60,5,39,3,64,30,33,9,ok,2,0,0.001,2,-0.50,-0.27,8.70,20,0.000,8.22
2.2973,-0.09774,0.04887,0.03840,0.00000,0.00000,0.00000,60,2,40,3,64,32,35,9,ok,2,0,0.001,2,-0.50,-0.27,8.70,20,0.012,8.22
2.3098,-0.09774,0.04887,0.03840,0.00000,0.00000,0.00000,59,-1,41,3,63,33,36,8,ok,2,0,0.001,2,-0.50,-0.27,8.70,20,0.025,8.22
2.3322,-0.09774,0.04887,0.03840,0.00000,0.00000,0.00000,58,-3,43,3,63,35,37,8,ok,2,0,0.001,2,-0.50,-0.27,8.70,20,0.038,8.22
2.3354,-0.09774,0.04887,0.03840,0.00000,0.00000,0.00000,58,-4,44,3,64,35,38,8,ok,2,0,0.001,2,-0.50,-0.27,8.70,20,0.051,8.22
2.3482,-0.09774,0.04887,0.03840,0.00000,0.00000,0.00000,56,-5,44,3,65,35,40,8,ok,2,0,0.001,2,-0.50,-0.27,8.70,20,0.064,8.22
2.3682,-0.09774,0.04887,0.03840,0.00000,0.00000,0.00000,56,-7,45,3,67,33,41,7,ok,2,0,0.001,2,-0.50,-0.27,8.70,20,0.076,8.22
2.3731,-0.09774,0.04887,0.03840,0.00000,0.00000,0.00000,56,-9,46,3,69,28,42,7,ok,2,0,0.001,2,-0.50,-0.27,8.70,20,0.089,8.22
2.3856,-0.09774,0.04887,0.03840,0.00000,0.00000,0.00000,54,-10,48,5,71,24,43,7,ok,2,0,0.001,2,-0.50,-0.27,8.70,20,0.101,8.22
2.4082,-0.09774,0.04887,0.03840,0.00000,0.00000,0.00000,54,-11,49,4,73,21,44,7,ok,2,0,0.001,2,-0.50,-0.27,8.70,20,0.114,8.22
2.4116,-0.09774,0.04887,0.03840,0.00000,0.00000,0.00000,52,-11,49,4,74,21,45,7,ok,2,0,0.001,2,-0.50,-0.27,8.70,20,0.127,8.22
2.4241,-0.09774,0.04887,0.03840,0.00000,0.00000,0.00000,51,-11,49,6,74,18,46,7,ok,2,0,0.001,2,-0.50,-0.27,8.70,20,0.139,8.22
2.4442,-0.09774,0.04887,0.03840,0.00000,0.00000,0.00000,50,-11,51,6,74,14,47,8,ok,2,0,0.001,2,-0.50,-0.27,8.70,20,0.152,8.22
2.4493,-0.09774,0.04887,0.03840,0.00000,0.00000,0.00000,48,-11,51,6,73,11,48,8,ok,2,0,0.001,2,-0.50,-0.27,8.70,20,0.164,8.22
2.4615,-0.09774,0.04887,0.03840,0.00000,0.00000,0.00000,47,-10,53,6,73,10,49,8,ok,2,0,0.001,2,-0.50,-0.27,8.70,20,0.177,8.22
2.4842,-0.09774,0.04887,0.03840,0.00000,0.00000,0.00000,46,-11,53,7,72,6,50,9,ok,2,0,0.001,2,-0.50,-0.27,8.70,20,0.190,8.22
2.4876,-0.09774,0.04887,0.03840,0.00000,0.00000,0.00000,44,-11,55,7,72,5,50,8,ok,2,0,0.001,2,-0.50,-0.27,8.70,20,0.203,8.22
2.5007,0.02618,-0.02094,0.04712,0.00000,0.00000,0.00000,43,-10,55,7,71,3,51,9,ok,2,0,0.001,2,0.73,0.21,10.36,21,0.000,8.22
2.5202,0.02618,-0.02094,0.04712,0.00000,0.00000,0.00000,42,-8,56,7,69,1,52,8,ok,2,0,0.001,2,0.73,0.21,10.36,21,0.012,8.22
2.5251,0.02618,-0.02094,0.04712,0.00000,0.00000,0.00000,40,-7,57,7,67,2,52,8,ok,2,0,0.001,2,0.73,0.21,10.36,21,0.025,8.22
2.5376,0.02618,-0.02094,0.04712,0.00000,0.00000,0.00000,38,-5,57,7,65,0,52,8,ok,2,0,0.001,2,0.73,0.21,10.36,21,0.038,8.22
2.5603,0.02618,-0.02094,0.04712,0.00000,0.00000,0.00000,37,-3,58,7,64,-2,54,9,ok,2,0,0.001,2,0.73,0.21,10.36,21,0.050,8.22
2.5636,0.02618,-0.02094,0.04712,0.00000,0.00000,0.00000,35,0,59,8,62,-4,54,8,ok,2,0,0.001,3,0.73,0.21,10.36,21,0.063,8.22
2.5761,0.02618,-0.02094,0.04712,0.00000,0.00000,0.00000,35,0,60,10,61,-5,54,8,ok,2,0,0.001,3,0.73,0.21,10.36,21,0.076,8.22
2.5962,0.02618,-0.02094,0.04712,0.00000,0.00000,0.00000,34,1,61,9,59,-5,56,6,ok,2,0,0.001,3,0.73,0.21,10.36,21,0.088,8.22
2.6035,0.02618,-0.02094,0.04712,0.00000,0.00000,0.00000,34,3,61,10,56,-7,57,7,ok,2,0,0.001,3,0.73,0.21,10.36,21,0.101,8.22
2.6136,0.02618,-0.02094,0.04712,0.00000,0.00000,0.00000,32,6,61,10,54,-7,58,7,ok,2,0,0.001,3,0.73,0.21,10.36,21,0.113,8.22
2.6362,0.02618,-0.02094,0.04712,0.00000,0.00000,0.00000,32,9,61,11,51,-6,58,8,ok,2,0,0.001,3,0.73,0.21,10.36,21,0.126,8.22
2.6396,0.02618,-0.02094,0.04712,0.00000,0.00000,0.00000,32,11,62,11,48,-6,59,8,ok,2,0,0.001,3,0.73,0.21,10.36,21,0.139,8.22
2.6521,0.02618,-0.02094,0.04712,0.00000,0.00000,0.00000,32,11,62,13,46,-6,60,10,ok,2,0,0.001,3,0.73,0.21,10.36,21,0.152,8.22
2.6722,0.02618,-0.02094,0.04712,0.00000,0.00000,0.00000,32,11,62,13,42,-5,59,10,ok,2,0,0.001,3,0.73,0.21,10.36,21,0.164,8.22
2.6771,0.02618,-0.02094,0.04712,0.00000,0.00000,0.00000,33,10,62,14,40,-5,60,11,ok,2,0,0.001,3,0.73,0.21,10.36,21,0.177,8.22
2.6899,-0.05760,0.04712,0.06807,0.00000,0.00000,0.00000,34,9,62,14,37,-4,60,11,ok,2,0,0.001,3,-0.12,-0.95,8.33,22,0.000,8.22
2.7122,-0.05760,0.04712,0.06807,0.00000,0.00000,0.00000,34,8,63,15,34,-4,61,13,ok,4,0,0.001,3,-0.12,-0.95,8.33,22,0.013,8.22
2.7154,-0.05760,0.04712,0.06807,0.00000,0.00000,0.00000,36,7,63,16,31,-2,61,13,ok,4,0,0.001,3,-0.12,-0.95,8.33,22,0.026,8.22
2.7280,-0.05760,0.04712,0.06807,0.00000,0.00000,0.00000,36,7,63,17,29,-1,62,14,ok,4,0,0.001,3,-0.12,-0.95,8.33,22,0.039,8.22
2.7482,-0.05760,0.04712,0.06807,0.00000,0.00000,0.00000,36,5,64,19,27,1,62,15,ok,4,0,0.001,3,-0.12,-0.95,8.33,22,0.051,8.22
2.7531,-0.05760,0.04712,0.06807,0.00000,0.00000,0.00000,37,4,64,20,25,4,63,15,ok,4,0,0.001,3,-0.12,-0.95,8.33,22,0.063,8.22
2.7655,-0.05760,0.04712,0.06807,0.00000,0.00000,0.00000,37,4,64,21,24,7,63,17,ok,4,0,0.001,3,-0.12,-0.95,8.33,22,0.076,8.22
2.7882,-0.05760,0.04712,0.06807,0.00000,0.00000,0.00000,38,3,64,22,23,11,63,18,ok,4,0,0.001,3,-0.12,-0.95,8.33,22,0.089,8.22
2.7914,-0.05760,0.04712,0.06807,0.00000,0.00000,0.00000,38,3,64,23,22,14,64,18,ok,4,0,0.001,3,-0.12,-0.95,8.33,22,0.102,8.22
2.8041,-0.05760,0.04712,0.06807,0.00000,0.00000,0.00000,38,2,63,26,24,13,64,19,ok,4,0,0.001,3,-0.12,-0.95,8.33,22,0.114,8.22
2.8242,-0.05760,0.04712,0.06807,0.00000,0.00000,0.00000,39,2,63,27,24,13,64,20,ok,4,0,0.001,3,-0.12,-0.95,8.33,22,0.127,8.22
2.8293,-0.05760,0.04712,0.06807,0.00000,0.00000,0.00000,40,2,64,26,25,11,64,21,ok,4,0,0.001,3,-0.12,-0.95,8.33,22,0.139,8.22
2.8415,-0.05760,0.04712,0.06807,0.00000,0.00000,0.00000,40,1,67,22,27,10,65,21,ok,4,0,0.001,3,-0.12,-0.95,8.33,22,0.152,8.22
2.8682,-0.05760,0.04712,0.06807,0.00000,0.00000,0.00000,41,1,69,19,28,10,65,23,ok,4,0,0.001,3,-0.12,-0.95,8.33,22,0.165,8.22
2.8715,-0.05760,0.04712,0.06807,0.00000,0.00000,0.00000,42,1,70,15,29,10,65,24,ok,4,0,0.001,3,-0.12,-0.95,8.33,22,0.182,8.22
2.8841,-0.05760,0.04712,0.06807,0.00000,0.00000,0.00000,42,1,70,12,30,9,65,26,ok,4,0,0.001,3,-0.12,-0.95,8.33,22,0.195,8.22
2.9042,-0.12217,-0.05236,0.10996,0.00000,0.00000,0.00000,44,2,70,12,33,9,65,26,ok,4,0,0.001,3,-0.29,-1.80,9.22,23,0.000,8.22
2.9091,-0.12217,-0.05236,0.10996,0.00000,0.00000,0.00000,44,1,70,8,33,9,65,29,ok,4,0,0.001,3,-0.29,-1.80,9.22,23,0.012,8.22
2.9216,-0.12217,-0.05236,0.10996,0.00000,0.00000,0.00000,45,2,69,5,35,9,64,30,ok,4,0,0.001,3,-0.29,-1.80,9.22,23,0.025,8.22
2.9442,-0.12217,-0.05236,0.10996,0.00000,0.00000,0.00000,46,2,68,3,37,8,65,31,ok,4,0,0.001,3,-0.29,-1.80,9.22,23,0.038,8.22
2.9474,-0.12217,-0.05236,0.10996,0.00000,0.00000,0.00000,46,2,67,0,37,9,64,33,ok,4,0,0.001,3,-0.29,-1.80,9.22,23,0.051,8.22
2.9604,-0.12217,-0.05236,0.10996,0.00000,0.00000,0.00000,47,2,66,-2,38,8,64,35,ok,4,0,0.001,3,-0.29,-1.80,9.22,23,0.064,8.22
2.9802,-0.12217,-0.05236,0.10996,0.00000,0.00000,0.00000,48,2,65,-3,39,8,64,36,ok,4,0,0.001,3,-0.29,-1.80,9.22,23,0.076,8.22
2.9851,-0.12217,-0.05236,0.10996,0.00000,0.00000,0.00000,48,2,63,-4,41,7,65,36,ok,4,0,0.001,3,-0.29,-1.80,9.22,23,0.089,8.22
2.9975,-0.12217,-0.05236,0.10996,0.00000,0.00000,0.00000,48,3,61,-5,42,7,65,35,ok,4,0,0.001,3,-0.29,-1.80,9.22,23,0.101,8.22
3.0202,-0.12217,-0.05236,0.10996,0.00000,0.00000,0.00000,49,3,61,-8,43,7,67,33,ok,4,0,0.001,3,-0.29,-1.80,9.22,23,0.114,8.22
3.0234,-0.12217,-0.05236,0.10996,0.00000,0.00000,0.00000,50,4,58,-8,44,7,69,28,ok,4,0,0.001,3,-0.29,-1.80,9.22,23,0.127,8.22
3.0360,-0.12217,-0.05236,0.10996,0.00000,0.00000,0.00000,50,3,56,-9,45,7,70,24,ok,4,0,0.001,3,-0.29,-1.80,9.22,23,0.140,8.22
3.0562,-0.12217,-0.05236,0.10996,0.00000,0.00000,0.00000,50,4,54,-9,45,7,72,21,ok,4,0,0.001,3,-0.29,-1.80,9.22,23,0.152,8.22
3.0613,-0.12217,-0.05236,0.10996,0.00000,0.00000,0.00000,50,6,52,-10,47,7,72,21,ok,4,0,0.001,3,-0.29,-1.80,9.22,23,0.165,8.22
3.0737,-0.12217,-0.05236,0.10996,0.00000,0.00000,0.00000,52,6,49,-10,47,7,72,19,ok,4,0,0.001,3,-0.29,-1.80,9.22,23,0.177,8.22
3.0962,-0.12217,-0.05236,0.10996,0.00000,0.00000,0.00000,52,6,47,-10,48,7,72,15,ok,2,0,0.001,3,-0.29,-1.80,9.22,23,0.190,8.22
3.0996,-0.12217,-0.05236,0.10996,0.00000,0.00000,0.00000,52,7,45,-10,49,7,72,13,ok,2,0,0.001,3,-0.29,-1.80,9.22,23,0.203,8.22
3.1128,-0.09774,0.03491,0.13614,0.00000,0.00000,0.00000,52,7,42,-10,49,7,71,11,ok,2,0,0.001,3,-0.29,-0.78,10.12,24,0.000,8.22
3.1322,-0.09774,0.03491,0.13614,0.00000,0.00000,0.00000,54,8,39,-10,50,7,70,8,ok,2,0,0.001,3,-0.29,-0.78,10.12,24,0.012,8.22
3.1373,-0.09774,0.03491,0.13614,0.00000,0.00000,0.00000,54,8,37,-9,51,6,70,6,ok,2,0,0.001,3,-0.29,-0.78,10.12,24,0.025,8.22
3.1495,-0.09774,0.03491,0.13614,0.00000,0.00000,0.00000,54,8,33,-8,52,7,69,4,ok,2,0,0.001,3,-0.29,-0.78,10.12,24,0.037,8.22
3.1722,-0.09774,0.03491,0.13614,0.00000,0.00000,0.00000,54,8,31,-7,53,7,67,2,ok,2,0,0.001,3,-0.29,-0.78,10.12,24,0.050,8.22
3.1753,-0.09774,0.03491,0.13614,0.00000,0.00000,0.00000,54,8,27,-6,54,8,65,2,ok,2,0,0.001,3,-0.29,-0.78,10.12,24,0.063,8.22
3.1881,-0.09774,0.03491,0.13614,0.00000,0.00000,0.00000,54,9,24,-4,55,8,64,0,ok,2,0,0.001,3,-0.29,-0.78,10.12,24,0.076,8.22
3.2082,-0.09774,0.03491,0.13614,0.00000,0.00000,0.00000,55,10,20,-2,56,8,64,-2,ok,2,0,0.001,3,-0.29,-0.78,10.12,24,0.088,8.22
3.2132,-0.09774,0.03491,0.13614,0.00000,0.00000,0.00000,55,10,19,-1,58,6,62,-3,ok,2,0,0.001,3,-0.29,-0.78,10.12,24,0.101,8.22
3.2257,-0.09774,0.03491,0.13614,0.00000,0.00000,0.00000,56,10,18,1,58,7,59,-4,ok,2,0,0.001,3,-0.29,-0.78,10.12,24,0.113,8.22
3.2482,-0.09774,0.03491,0.13614,0.00000,0.00000,0.00000,56,11,16,3,59,8,58,-4,ok,2,0,0.001,3,-0.29,-0.78,10.12,24,0.126,8.22
3.2514,-0.09774,0.03491,0.13614,0.00000,0.00000,0.00000,56,11,14,6,59,8,55,-5,ok,2,0,0.001,3,-0.29,-0.78,10.12,24,0.139,8.22
3.2644,-0.09774,0.03491,0.13614,0.00000,0.00000,0.00000,56,12,13,9,60,9,54,-6,ok,2,0,0.001,3,-0.29,-0.78,10.12,24,0.152,8.22
3.2842,-0.09774,0.03491,0.13614,0.00000,0.00000,0.00000,56,12,12,12,60,9,50,-5,ok,2,0,0.001,3,-0.29,-0.78,10.12,24,0.164,8.22
3.2891,-0.09774,0.03491,0.13614,0.00000,0.00000,0.00000,56,13,14,12,60,9,48,-5,ok,2,0,0.001,3,-0.29,-0.78,10.12,24,0.177,8.22
3.3018,-0.09774,0.03491,0.13614,0.00000,0.00000,0.00000,56,13,15,11,61,10,46,-5,ok,2,0,0.001,3,-0.29,-0.78,10.12,24,0.189,8.22
3.3242,0.06981,-0.00349,0.12217,0.00000,0.00000,0.00000,56,14,16,10,61,10,43,-4,ok,2,0,0.001,3,0.58,0.41,10.06,25,0.000,8.22
3.3274,0.06981,-0.00349,0.12217,0.00000,0.00000,0.00000,56,15,18,9,62,12,40,-4,ok,2,0,0.001,3,0.58,0.41,10.06,25,0.013,8.22
3.3401,0.06981,-0.00349,0.12217,0.00000,0.00000,0.00000,56,16,19,8,62,13,36,-3,ok,2,0,0.001,3,0.58,0.41,10.06,25,0.026,8.22
3.3602,0.06981,-0.00349,0.12217,0.00000,0.00000,0.00000,56,17,21,7,62,13,34,-3,ok,2,0,0.001,3,0.58,0.41,10.06,25,0.039,8.22
3.3654,0.06981,-0.00349,0.12217,0.00000,0.00000,0.00000,56,18,21,7,63,15,30,-1,ok,2,0,0.001,3,0.58,0.41,10.06,25,0.051,8.22
3.3776,0.06981,-0.00349,0.12217,0.00000,0.00000,0.00000,58,20,23,5,63,15,29,0,ok,2,0,0.001,3,0.58,0.41,10.06,25,0.063,8.22
3.4002,0.06981,-0.00349,0.12217,0.00000,0.00000,0.00000,58,21,24,4,63,15,27,1,ok,2,0,0.001,3,0.58,0.41,10.06,25,0.076,8.22
3.4034,0.06981,-0.00349,0.12217,0.00000,0.00000,0.00000,58,22,24,3,63,16,25,5,ok,2,0,0.001,3,0.58,0.41,10.06,25,0.089,8.22
3.4162,0.06981,-0.00349,0.12217,0.00000,0.00000,0.00000,58,23,26,3,63,17,24,7,ok,2,0,0.001,3,0.58,0.41,10.06,25,0.102,8.22
3.4362,0.06981,-0.00349,0.12217,0.00000,0.00000,0.00000,58,24,26,2,64,17,23,10,ok,2,0,0.001,3,0.58,0.41,10.06,25,0.114,8.22
3.4411,0.06981,-0.00349,0.12217,0.00000,0.00000,0.00000,57,27,27,2,64,19,22,13,ok,2,0,0.001,3,0.58,0.41,10.06,25,0.127,8.22
3.4535,0.06981,-0.00349,0.12217,0.00000,0.00000,0.00000,57,27,28,2,64,20,24,12,ok,2,0,0.001,3,0.58,0.41,10.06,25,0.140,8.22
3.4762,0.06981,-0.00349,0.12217,0.00000,0.00000,0.00000,58,25,29,2,64,21,24,11,ok,2,0,0.001,3,0.58,0.41,10.06,25,0.152,8.22
3.4794,0.06981,-0.00349,0.12217,0.00000,0.00000,0.00000,59,21,30,2,65,22,25,10,ok,2,0,0.001,3,0.58,0.41,10.06,25,0.165,8.22
3.4922,0.06981,-0.00349,0.12217,0.00000,0.00000,0.00000,60,18,31,1,64,24,26,9,ok,2,0,0.001,3,0.58,0.41,10.06,25,0.178,8.22
3.5122,0.06981,-0.00349,0.12217,0.00000,0.00000,0.00000,60,13,33,2,64,25,27,10,ok,2,0,0.001,3,0.58,0.41,10.06,25,0.191,8.22
3.5177,0.01396,0.01745,0.13614,0.00000,0.00000,0.00000,60,11,34,2,65,26,29,9,ok,2,0,0.001,3,1.08,-0.73,10.06,26,0.000,8.22
3.5296,0.01396,0.01745,0.13614,0.00000,0.00000,0.00000,60,11,36,2,64,28,30,9,ok,2,0,0.001,3,1.08,-0.73,10.06,26,0.013,8.22
3.5522,0.01396,0.01745,0.13614,0.00000,0.00000,0.00000,60,7,37,2,63,29,32,9,ok,2,0,0.001,3,1.08,-0.73,10.06,26,0.025,8.22
3.5554,0.01396,0.01745,0.13614,0.00000,0.00000,0.00000,60,5,39,3,64,30,33,9,ok,2,0,0.001,3,1.08,-0.73,10.06,26,0.038,8.22
3.5684,0.01396,0.01745,0.13614,0.00000,0.00000,0.00000,60,2,40,3,64,32,34,8,ok,2,0,0.001,3,1.08,-0.73,10.06,26,0.051,8.22
3.5882,0.01396,0.01745,0.13614,0.00000,0.00000,0.00000,59,-1,42,3,63,34,36,8,ok,2,0,0.001,4,1.08,-0.73,10.06,26,0.063,8.22
3.5932,0.01396,0.01745,0.13614,0.00000,0.00000,0.00000,58,-3,43,3,63,35,37,8,ok,2,0,0.001,4,1.08,-0.73,10.06,26,0.076,8.22
3.6057,0.01396,0.01745,0.13614,0.00000,0.00000,0.00000,58,-4,44,3,64,35,38,8,ok,2,0,0.001,4,1.08,-0.73,10.06,26,0.088,8.22
3.6282,0.01396,0.01745,0.13614,0.00000,0.00000,0.00000,56,-5,44,3,65,35,39,8,ok,2,0,0.001,4,1.08,-0.73,10.06,26,0.101,8.22
3.6314,0.01396,0.01745,0.13614,0.00000,0.00000,0.00000,56,-6,46,3,67,33,41,7,ok,2,0,0.001,4,1.08,-0.73,10.06,26,0.114,8.22
3.6441,0.01396,0.01745,0.13614,0.00000,0.00000,0.00000,56,-9,47,3,69,29,42,7,ok,2,0,0.001,4,1.08,-0.73,10.06,26,0.127,8.22
3.6642,0.01396,0.01745,0.13614,0.00000,0.00000,0.00000,54,-9,48,4,71,24,43,7,ok,2,0,0.001,4,1.08,-0.73,10.06,26,0.139,8.22
3.6691,0.01396,0.01745,0.13614,0.00000,0.00000,0.00000,54,-10,49,4,72,21,44,7,ok,2,0,0.001,4,1.08,-0.73,10.06,26,0.152,8.22
3.6816,0.01396,0.01745,0.13614,0.00000,0.00000,0.00000,52,-10,50,4,74,21,45,7,ok,2,0,0.001,4,1.08,-0.73,10.06,26,0.164,8.22
3.7082,0.01396,0.01745,0.13614,0.00000,0.00000,0.00000,51,-11,50,6,74,18,46,7,ok,2,0,0.001,4,1.08,-0.73,10.06,26,0.177,8.22
3.7117,-0.03491,0.01745,0.11694,0.00000,0.00000,0.00000,50,-11,51,6,74,15,47,8,ok,2,0,0.001,4,-0.00,0.08,9.46,27,0.000,8.22
3.7242,-0.03491,0.01745,0.11694,0.00000,0.00000,0.00000,48,-11,52,6,73,11,48,8,ok,2,0,0.001,4,-0.00,0.08,9.46,27,0.013,8.22
3.7442,-0.03491,0.01745,0.11694,0.00000,0.00000,0.00000,47,-10,53,6,72,10,49,8,ok,2,0,0.001,4,-0.00,0.08,9.46,27,0.025,8.22
3.7493,-0.03491,0.01745,0.11694,0.00000,0.00000,0.00000,46,-11,53,7,72,6,50,9,ok,2,0,0.001,4,-0.00,0.08,9.46,27,0.038,8.22
3.7616,-0.03491,0.01745,0.11694,0.00000,0.00000,0.00000,44,-11,56,7,71,5,50,8,ok,2,0,0.001,4,-0.00,0.08,9.46,27,0.050,8.22
3.7842,-0.03491,0.01745,0.11694,0.00000,0.00000,0.00000,44,-10,56,7,70,3,51,9,ok,2,0,0.001,4,-0.00,0.08,9.46,27,0.063,8.22
3.7874,-0.03491,0.01745,0.11694,0.00000,0.00000,0.00000,42,-9,57,7,69,1,52,8,ok,2,0,0.001,4,-0.00,0.08,9.46,27,0.076,8.22
3.8001,-0.03491,0.01745,0.11694,0.00000,0.00000,0.00000,40,-8,57,8,66,1,52,8,ok,2,0,0.001,4,-0.00,0.08,9.46,27,0.089,8.22
3.8202,-0.03491,0.01745,0.11694,0.00000,0.00000,0.00000,38,-6,58,8,65,-1,53,8,ok,2,0,0.001,4,-0.00,0.08,9.46,27,0.101,8.22
3.8252,-0.03491,0.01745,0.11694,0.00000,0.00000,0.00000,37,-4,58,8,64,-2,54,9,ok,2,0,0.001,4,-0.00,0.08,9.46,27,0.114,8.22
3.8378,-0.03491,0.01745,0.11694,0.00000,0.00000,0.00000,35,-2,59,9,62,-4,55,9,ok,2,0,0.001,4,-0.00,0.08,9.46,27,0.126,8.22
3.8602,-0.03491,0.01745,0.11694,0.00000,0.00000,0.00000,35,-2,60,11,60,-5,55,8,ok,2,0,0.001,4,-0.00,0.08,9.46,27,0.139,8.22
3.8634,-0.03491,0.01745,0.11694,0.00000,0.00000,0.00000,34,0,61,10,58,-6,57,6,ok,2,0,0.001,4,-0.00,0.08,9.46,27,0.152,8.22
3.8764,-0.03491,0.01745,0.11694,0.00000,0.00000,0.00000,33,2,61,11,56,-6,57,7,ok,2,0,0.001,4,-0.00,0.08,9.46,27,0.165,8.22
3.8962,-0.03491,0.01745,0.11694,0.00000,0.00000,0.00000,32,5,61,11,54,-7,58,8,ok,2,0,0.001,4,-0.00,0.08,9.46,27,0.177,8.22
3.9011,-0.03491,0.01745,0.11694,0.00000,0.00000,0.00000,32,9,61,12,51,-6,58,8,ok,2,0,0.001,4,-0.00,0.08,9.46,27,0.190,8.22
3.9139,0.01920,0.01222,0.12217,0.00000,0.00000,0.00000,31,11,61,12,48,-6,59,9,ok,2,0,0.001,4,-0.16,-0.58,8.38,28,0.000,8.22
3.9362,0.01920,0.01222,0.12217,0.00000,0.00000,0.00000,32,11,61,12,46,-6,60,10,ok,2,0,0.001,4,-0.16,-0.58,8.38,28,0.013,8.22
3.9394,0.01920,0.01222,0.12217,0.00000,0.00000,0.00000,32,11,61,13,43,-5,59,10,ok,2,0,0.001,4,-0.16,-0.58,8.38,28,0.026,8.22
3.9522,0.01920,0.01222,0.12217,0.00000,0.00000,0.00000,33,10,62,13,41,-5,60,11,ok,2,0,0.001,4,-0.16,-0.58,8.38,28,0.039,8.22
3.9722,0.01920,0.01222,0.12217,0.00000,0.00000,0.00000,34,9,62,14,38,-4,60,12,ok,2,0,0.001,4,-0.16,-0.58,8.38,28,0.051,8.22
3.9776,0.01920,0.01222,0.12217,0.00000,0.00000,0.00000,34,9,62,15,35,-3,61,13,ok,2,0,0.001,4,-0.16,-0.58,8.38,28,0.064,8.22
3.9896,0.01920,0.01222,0.12217,0.00000,0.00000,0.00000,35,8,63,15,32,-2,61,13,ok,2,0,0.001,4,-0.16,-0.58,8.38,28,0.076,8.22
4.0122,0.01920,0.01222,0.12217,0.00000,0.00000,0.00000,36,8,63,16,30,0,62,14,ok,2,0,0.001,4,-0.16,-0.58,8.38,28,0.089,8.22
4.0154,0.01920,0.01222,0.12217,0.00000,0.00000,0.00000,36,6,64,17,28,1,62,15,ok,2,0,0.001,4,-0.16,-0.58,8.38,28,0.102,8.22
4.0285,0.01920,0.01222,0.12217,0.00000,0.00000,0.00000,37,6,64,19,26,5,63,15,ok,2,0,0.001,4,-0.16,-0.58,8.38,28,0.115,8.22
4.0482,0.01920,0.01222,0.12217,0.00000,0.00000,0.00000,38,5,64,20,24,8,63,16,ok,2,0,0.001,4,-0.16,-0.58,8.38,28,0.127,8.22
4.0532,0.01920,0.01222,0.12217,0.00000,0.00000,0.00000,38,4,64,21,23,11,63,17,ok,2,0,0.001,4,-0.16,-0.58,8.38,28,0.140,8.22
4.0655,0.01920,0.01222,0.12217,0.00000,0.00000,0.00000,38,4,64,22,22,14,64,18,ok,2,0,0.001,4,-0.16,-0.58,8.38,28,0.152,8.22
4.0882,0.01920,0.01222,0.12217,0.00000,0.00000,0.00000,39,3,63,25,24,13,64,19,ok,2,0,0.001,4,-0.16,-0.58,8.38,28,0.165,8.22
4.0916,0.01920,0.01222,0.12217,0.00000,0.00000,0.00000,40,3,63,27,24,14,64,19,ok,2,0,0.001,4,-0.16,-0.58,8.38,28,0.178,8.22
4.1041,0.01920,0.01222,0.12217,0.00000,0.00000,0.00000,40,2,65,25,25,11,64,20,ok,2,0,0.001,4,-0.16,-0.58,8.38,28,0.191,8.22
4.1242,0.01920,0.01222,0.12217,0.00000,0.00000,0.00000,40,2,67,22,26,11,65,21,ok,2,0,0.001,4,-0.16,-0.58,8.38,28,0.203,8.22
4.1297,-0.06458,0.00873,0.09250,0.00000,0.00000,0.00000,41,1,69,19,28,11,65,22,ok,2,0,0.001,4,-0.33,0.03,9.32,29,0.000,8.22
4.1416,-0.06458,0.00873,0.09250,0.00000,0.00000,0.00000,42,1,70,15,29,10,64,24,ok,2,0,0.001,4,-0.33,0.03,9.32,29,0.013,8.22
4.1642,-0.06458,0.00873,0.09250,0.00000,0.00000,0.00000,42,1,71,13,30,9,64,26,ok,2,0,0.001,4,-0.33,0.03,9.32,29,0.025,8.22
4.1675,-0.06458,0.00873,0.09250,0.00000,0.00000,0.00000,44,1,70,12,32,9,65,26,ok,2,0,0.001,4,-0.33,0.03,9.32,29,0.038,8.22
4.1804,-0.06458,0.00873,0.09250,0.00000,0.00000,0.00000,44,1,70,9,32,9,65,29,ok,2,0,0.001,4,-0.33,0.03,9.32,29,0.051,8.22
4.2002,-0.06458,0.00873,0.09250,0.00000,0.00000,0.00000,45,2,69,6,35,9,64,30,ok,2,0,0.001,4,-0.33,0.03,9.32,29,0.064,8.22
4.2053,-0.06458,0.00873,0.09250,0.00000,0.00000,0.00000,46,2,69,3,36,8,64,31,ok,2,0,0.001,4,-0.33,0.03,9.32,29,0.076,8.22
4.2176,-0.06458,0.00873,0.09250,0.00000,0.00000,0.00000,46,2,67,1,37,9,64,33,ok,2,0,0.001,4,-0.33,0.03,9.32,29,0.089,8.22
4.2402,-0.06458,0.00873,0.09250,0.00000,0.00000,0.00000,47,1,66,-1,38,8,64,34,ok,2,0,0.001,4,-0.33,0.03,9.32,29,0.101,8.22
4.2434,-0.06458,0.00873,0.09250,0.00000,0.00000,0.00000,48,2,65,-3,39,8,63,36,ok,2,0,0.001,4,-0.33,0.03,9.32,29,0.114,8.22
4.2561,-0.06458,0.00873,0.09250,0.00000,0.00000,0.00000,48,2,62,-4,41,7,64,36,ok,2,0,0.001,4,-0.33,0.03,9.32,29,0.127,8.22
4.2762,-0.06458,0.00873,0.09250,0.00000,0.00000,0.00000,48,3,61,-5,42,7,66,35,ok,2,0,0.001,4,-0.33,0.03,9.32,29,0.140,8.22
4.2815,-0.06458,0.00873,0.09250,0.00000,0.00000,0.00000,49,3,60,-8,43,7,67,33,ok,2,0,0.001,4,-0.33,0.03,9.32,29,0.152,8.22
4.2936,-0.06458,0.00873,0.09250,0.00000,0.00000,0.00000,50,3,58,-8,44,7,69,27,ok,2,0,0.001,4,-0.33,0.03,9.32,29,0.165,8.22
4.3162,-0.06458,0.00873,0.09250,0.00000,0.00000,0.00000,50,3,56,-9,45,7,71,24,ok,2,0,0.001,4,-0.33,0.03,9.32,29,0.177,8.22
4.3195,-0.06458,0.00873,0.09250,0.00000,0.00000,0.00000,50,3,54,-9,46,7,72,21,ok,2,0,0.001,4,-0.33,0.03,9.32,29,0.190,8.22
4.3328,-0.12217,-0.01571,0.13788,0.00000,0.00000,0.00000,50,5,51,-10,47,7,72,20,ok,2,0,0.001,4,-0.58,-1.39,10.34,30,0.000,8.22
4.3522,-0.12217,-0.01571,0.13788,0.00000,0.00000,0.00000,51,6,49,-10,47,7,73,18,ok,2,0,0.001,4,-0.58,-1.39,10.34,30,0.013,8.22
4.3571,-0.12217,-0.01571,0.13788,0.00000,0.00000,0.00000,52,5,46,-10,48,7,73,15,ok,2,0,0.001,4,-0.58,-1.39,10.34,30,0.025,8.22
4.3695,-0.12217,-0.01571,0.13788,0.00000,0.00000,0.00000,52,6,44,-9,49,7,72,12,ok,2,0,0.001,4,-0.58,-1.39,10.34,30,0.038,8.22
4.3922,-0.12217,-0.01571,0.13788,0.00000,0.00000,0.00000,52,7,41,-10,49,7,72,11,ok,2,0,0.001,4,-0.58,-1.39,10.34,30,0.050,8.22
4.3956,-0.12217,-0.01571,0.13788,0.00000,0.00000,0.00000,53,7,39,-10,50,7,71,7,ok,2,0,0.001,4,-0.58,-1.39,10.34,30,0.063,8.22
4.4082,-0.12217,-0.01571,0.13788,0.00000,0.00000,0.00000,54,7,37,-9,52,6,71,6,ok,2,0,0.001,4,-0.58,-1.39,10.34,30,0.076,8.22
4.4282,-0.12217,-0.01571,0.13788,0.00000,0.00000,0.00000,54,7,33,-8,52,7,70,4,ok,2,0,0.001,4,-0.58,-1.39,10.34,30,0.089,8.22
4.4336,-0.12217,-0.01571,0.13788,0.00000,0.00000,0.00000,54,8,31,-7,52,7,68,2,ok,2,0,0.001,4,-0.58,-1.39,10.34,30,0.101,8.22
4.4456,-0.12217,-0.01571,0.13788,0.00000,0.00000,0.00000,54,8,27,-6,54,8,66,2,ok,2,0,0.001,4,-0.58,-1.39,10.34,30,0.114,8.22
4.4682,-0.12217,-0.01571,0.13788,0.00000,0.00000,0.00000,54,9,24,-4,55,8,65,0,ok,2,0,0.001,4,-0.58,-1.39,10.34,30,0.126,8.22
4.4714,-0.12217,-0.01571,0.13788,0.00000,0.00000,0.00000,56,10,21,-2,55,8,64,-2,ok,2,0,0.001,4,-0.58,-1.39,10.34,30,0.139,8.22
4.4849,-0.12217,-0.01571,0.13788,0.00000,0.00000,0.00000,56,10,19,-1,58,6,61,-3,ok,2,0,0.001,4,-0.58,-1.39,10.34,30,0.152,8.22
4.5042,-0.12217,-0.01571,0.13788,0.00000,0.00000,0.00000,56,10,18,0,58,7,60,-4,ok,2,0,0.001,4,-0.58,-1.39,10.34,30,0.165,8.22
4.5091,-0.12217,-0.01571,0.13788,0.00000,0.00000,0.00000,56,11,16,3,59,8,58,-4,ok,2,0,0.001,4,-0.58,-1.39,10.34,30,0.177,8.22
4.5215,-0.12217,-0.01571,0.13788,0.00000,0.00000,0.00000,56,11,15,6,59,8,55,-5,ok,2,0,0.001,4,-0.58,-1.39,10.34,30,0.190,8.22
4.5442,0.00349,0.07854,0.07505,0.00000,0.00000,0.00000,56,12,13,9,59,9,53,-6,ok,2,0,0.001,4,0.91,0.76,9.05,31,0.000,8.22
4.5474,0.00349,0.07854,0.07505,0.00000,0.00000,0.00000,56,13,13,11,60,10,50,-5,ok,2,0,0.001,4,0.91,0.76,9.05,31,0.013,8.22
4.5601,0.00349,0.07854,0.07505,0.00000,0.00000,0.00000,56,13,14,12,60,10,47,-5,ok,2,0,0.001,4,0.91,0.76,9.05,31,0.026,8.22
4.5802,0.00349,0.07854,0.07505,0.00000,0.00000,0.00000,56,14,15,11,61,11,45,-5,ok,2,0,0.001,4,0.91,0.76,9.05,31,0.039,8.22
4.5852,0.00349,0.07854,0.07505,0.00000,0.00000,0.00000,56,15,17,10,61,11,42,-4,ok,2,0,0.001,4,0.91,0.76,9.05,31,0.051,8.22
4.5976,0.00349,0.07854,0.07505,0.00000,0.00000,0.00000,56,16,18,9,62,12,40,-4,ok,2,0,0.001,5,0.91,0.76,9.05,31,0.064,8.22
4.6202,0.00349,0.07854,0.07505,0.00000,0.00000,0.00000,56,16,19,8,61,12,36,-3,ok,2,0,0.001,5,0.91,0.76,9.05,31,0.076,8.22
4.6234,0.00349,0.07854,0.07505,0.00000,0.00000,0.00000,56,17,20,7,62,13,34,-3,ok,2,0,0.001,5,0.91,0.76,9.05,31,0.089,8.22
4.6387,0.00349,0.07854,0.07505,0.00000,0.00000,0.00000,56,18,21,7,62,14,31,-1,ok,2,0,0.001,5,0.91,0.76,9.05,31,0.102,8.22
4.6562,0.00349,0.07854,0.07505,0.00000,0.00000,0.00000,57,19,22,6,63,14,30,0,ok,2,0,0.001,5,0.91,0.76,9.05,31,0.115,8.22
4.6612,0.00349,0.07854,0.07505,0.00000,0.00000,0.00000,57,20,24,5,63,15,27,1,ok,2,0,0.001,5,0.91,0.76,9.05,31,0.127,8.22
4.6736,0.00349,0.07854,0.07505,0.00000,0.00000,0.00000,58,21,24,4,63,16,25,5,ok,2,0,0.001,5,0.91,0.76,9.05,31,0.140,8.22
4.6962,0.00349,0.07854,0.07505,0.00000,0.00000,0.00000,58,22,25,4,64,17,24,7,ok,2,0,0.001,5,0.91,0.76,9.05,31,0.152,8.22
4.6994,0.00349,0.07854,0.07505,0.00000,0.00000,0.00000,58,23,25,3,64,18,23,11,ok,2,0,0.001,5,0.91,0.76,9.05,31,0.165,8.22
4.7121,0.00349,0.07854,0.07505,0.00000,0.00000,0.00000,57,25,26,3,64,19,23,13,ok,2,0,0.001,5,0.91,0.76,9.05,31,0.178,8.22
4.7322,0.00349,0.07854,0.07505,0.00000,0.00000,0.00000,56,26,27,2,64,20,25,12,ok,2,0,0.001,5,0.91,0.76,9.05,31,0.191,8.22
4.7374,-0.12217,0.05934,0.11868,0.00000,0.00000,0.00000,58,25,28,2,64,21,25,11,ok,2,0,0.001,5,0.84,-2.62,9.05,32,0.000,8.22
4.7497,-0.12217,0.05934,0.11868,0.00000,0.00000,0.00000,58,21,29,2,65,22,26,10,ok,2,0,0.001,5,0.84,-2.62,9.05,32,0.013,8.22
4.7722,-0.12217,0.05934,0.11868,0.00000,0.00000,0.00000,60,17,31,2,64,23,27,9,ok,2,0,0.001,5,0.84,-2.62,9.05,32,0.025,8.22
4.7754,-0.12217,0.05934,0.11868,0.00000,0.00000,0.00000,60,12,32,2,64,24,29,10,ok,2,0,0.001,5,0.84,-2.62,9.05,32,0.038,8.22
4.7881,-0.12217,0.05934,0.11868,0.00000,0.00000,0.00000,60,10,33,2,64,25,30,9,ok,2,0,0.001,5,0.84,-2.62,9.05,32,0.051,8.22
4.8082,-0.12217,0.05934,0.11868,0.00000,0.00000,0.00000,60,10,35,2,63,27,31,9,ok,2,0,0.001,5,0.84,-2.62,9.05,32,0.064,8.22
4.8133,-0.12217,0.05934,0.11868,0.00000,0.00000,0.00000,60,6,36,3,64,29,33,9,ok,2,0,0.001,5,0.84,-2.62,9.05,32,0.076,8.22
4.8256,-0.12217,0.05934,0.11868,0.00000,0.00000,0.00000,60,4,38,4,64,30,33,9,ok,2,0,0.001,5,0.84,-2.62,9.05,32,0.089,8.22
4.8482,-0.12217,0.05934,0.11868,0.00000,0.00000,0.00000,60,1,40,4,64,32,35,9,ok,2,0,0.001,5,0.84,-2.62,9.05,32,0.101,8.22
4.8516,-0.12217,0.05934,0.11868,0.00000,0.00000,0.00000,59,-1,41,3,64,34,36,9,ok,2,0,0.001,5,0.84,-2.62,9.05,32,0.114,8.22
4.8641,-0.12217,0.05934,0.11868,0.00000,0.00000,0.00000,58,-3,42,3,64,35,37,9,ok,2,0,0.001,5,0.84,-2.62,9.05,32,0.127,8.22
4.8842,-0.12217,0.05934,0.11868,0.00000,0.00000,0.00000,58,-4,44,3,64,35,38,8,ok,2,0,0.001,5,0.84,-2.62,9.05,32,0.140,8.22
4.8891,-0.12217,0.05934,0.11868,0.00000,0.00000,0.00000,56,-5,44,3,66,35,39,8,ok,2,0,0.001,5,0.84,-2.62,9.05,32,0.152,8.22
4.9017,-0.12217,0.05934,0.11868,0.00000,0.00000,0.00000,56,-6,45,3,68,33,41,7,ok,2,0,0.001,5,0.84,-2.62,9.05,32,0.165,8.22
4.9242,-0.12217,0.05934,0.11868,0.00000,0.00000,0.00000,56,-8,46,3,70,28,42,7,ok,2,0,0.001,5,0.84,-2.62,9.05,32,0.177,8.22
4.9274,-0.12217,0.05934,0.11868,0.00000,0.00000,0.00000,54,-9,48,4,71,24,44,7,ok,2,0,0.001,5,0.84,-2.62,9.05,32,0.190,8.22
4.9405,0.04014,0.04189,0.12741,0.00000,0.00000,0.00000,53,-10,49,4,73,21,44,7,ok,2,0,0.001,5,0.74,0.62,9.23,33,0.000,8.22
4.9602,0.04014,0.04189,0.12741,0.00000,0.00000,0.00000,52,-10,49,3,74,21,44,7,ok,2,0,0.001,5,0.74,0.62,9.23,33,0.013,8.22
4.9653,0.04014,0.04189,0.12741,0.00000,0.00000,0.00000,51,-11,49,5,74,19,45,7,ok,2,0,0.001,5,0.74,0.62,9.23,33,0.025,8.22
4.9776,0.04014,0.04189,0.12741,0.00000,0.00000,0.00000,50,-10,51,6,74,15,46,8,ok,2,0,0.001,5,0.74,0.62,9.23,33,0.038,8.22
5.0002,0.04014,0.04189,0.12741,0.00000,0.00000,0.00000,48,-10,52,5,74,12,48,8,ok,2,0,0.001,5,0.74,0.62,9.23,33,0.050,8.22
5.0034,0.04014,0.04189,0.12741,0.00000,0.00000,0.00000,47,-9,53,5,73,10,48,8,ok,2,0,0.001,5,0.74,0.62,9.23,33,0.063,8.22
5.0163,0.04014,0.04189,0.12741,0.00000,0.00000,0.00000,46,-10,53,6,72,7,49,9,ok,2,0,0.001,5,0.74,0.62,9.23,33,0.076,8.22
5.0442,0.04014,0.04189,0.12741,0.00000,0.00000,0.00000,44,-10,55,6,72,5,49,8,ok,2,0,0.001,5,0.74,0.62,9.23,33,0.089,8.22
5.0474,0.04014,0.04189,0.12741,0.00000,0.00000,0.00000,43,-9,56,6,71,3,51,8,ok,2,0,0.001,5,0.74,0.62,9.23,33,0.107,8.22
5.0601,0.04014,0.04189,0.12741,0.00000,0.00000,0.00000,42,-7,57,6,69,1,52,7,ok,2,0,0.001,5,0.74,0.62,9.23,33,0.120,8.22
5.0802,0.04014,0.04189,0.12741,0.00000,0.00000,0.00000,40,-7,57,7,66,1,52,8,ok,2,0,0.001,5,0.74,0.62,9.23,33,0.133,8.22
5.0850,0.04014,0.04189,0.12741,0.00000,0.00000,0.00000,38,-6,57,7,65,-1,53,8,ok,2,0,0.001,5,0.74,0.62,9.23,33,0.145,8.22
5.0978,0.04014,0.04189,0.12741,0.00000,0.00000,0.00000,37,-4,58,8,64,-2,54,9,ok,2,0,0.001,5,0.74,0.62,9.23,33,0.157,8.22
5.1202,0.04014,0.04189,0.12741,0.00000,0.00000,0.00000,35,-2,59,9,62,-4,55,8,ok,2,0,0.001,5,0.74,0.62,9.23,33,0.170,8.22
5.1237,0.04014,0.04189,0.12741,0.00000,0.00000,0.00000,34,-2,60,11,60,-5,55,8,ok,2,0,0.001,5,0.74,0.62,9.23,33,0.183,8.22
5.1366,0.04014,0.04189,0.12741,0.00000,0.00000,0.00000,34,-1,60,10,59,-6,57,6,ok,2,0,0.001,5,0.74,0.62,9.23,33,0.196,8.16
5.1562,0.01047,0.02269,0.16057,0.00000,0.00000,0.00000,33,2,61,11,56,-6,57,7,ok,2,0,0.001,5,1.30,-0.12,10.57,34,0.000,8.16
5.1610,0.01047,0.02269,0.16057,0.00000,0.00000,0.00000,32,5,61,11,54,-7,58,8,ok,2,0,0.001,5,1.30,-0.12,10.57,34,0.012,8.16
5.1737,0.01047,0.02269,0.16057,0.00000,0.00000,0.00000,32,8,61,12,51,-6,59,8,ok,2,0,0.001,5,1.30,-0.12,10.57,34,0.025,8.16
5.1962,0.01047,0.02269,0.16057,0.00000,0.00000,0.00000,31,10,61,12,48,-6,59,9,ok,2,0,0.001,5,1.30,-0.12,10.57,34,0.038,8.16
5.1996,0.01047,0.02269,0.16057,0.00000,0.00000,0.00000,32,11,61,13,46,-6,60,10,ok,2,0,0.001,5,1.30,-0.12,10.57,34,0.051,8.16
5.2120,0.01047,0.02269,0.16057,0.00000,0.00000,0.00000,32,10,61,14,43,-5,60,10,ok,2,0,0.001,5,1.30,-0.12,10.57,34,0.064,8.16
5.2322,0.01047,0.02269,0.16057,0.00000,0.00000,0.00000,33,9,62,14,40,-5,61,11,ok,2,0,0.001,5,1.30,-0.12,10.57,34,0.076,8.16
5.2372,0.01047,0.02269,0.16057,0.00000,0.00000,0.00000,34,8,62,15,37,-4,61,12,ok,2,0,0.001,5,1.30,-0.12,10.57,34,0.089,8.16
5.2496,0.01047,0.02269,0.16057,0.00000,0.00000,0.00000,34,8,62,15,35,-3,61,13,ok,2,0,0.001,5,1.30,-0.12,10.57,34,0.101,8.16
5.2722,0.01047,0.02269,0.16057,0.00000,0.00000,0.00000,35,7,63,16,31,-2,61,13,ok,2,0,0.001,5,1.30,-0.12,10.57,34,0.114,8.16
5.2754,0.01047,0.02269,0.16057,0.00000,0.00000,0.00000,35,7,63,17,30,0,62,14,ok,2,0,0.001,5,1.30,-0.12,10.57,34,0.127,8.16
5.2881,0.01047,0.02269,0.16057,0.00000,0.00000,0.00000,36,6,64,18,28,1,62,15,ok,2,0,0.001,5,1.30,-0.12,10.57,34,0.140,8.16
5.3082,0.01047,0.02269,0.16057,0.00000,0.00000,0.00000,37,5,64,19,25,5,63,15,ok,2,0,0.001,5,1.30,-0.12,10.57,34,0.152,8.16
5.3131,0.01047,0.02269,0.16057,0.00000,0.00000,0.00000,37,4,64,20,24,8,63,16,ok,2,0,0.001,5,1.30,-0.12,10.57,34,0.164,8.16
5.3258,0.01047,0.02269,0.16057,0.00000,0.00000,0.00000,38,4,64,22,23,11,63,17,ok,2,0,0.001,5,1.30,-0.12,10.57,34,0.177,8.16
5.3482,0.01047,0.02269,0.16057,0.00000,0.00000,0.00000,38,3,64,23,22,14,64,18,ok,2,0,0.001,5,1.30,-0.12,10.57,34,0.189,8.16
5.3519,-0.00524,0.05061,0.14486,0.00000,0.00000,0.00000,39,3,63,26,24,13,64,19,ok,2,0,0.001,5,0.73,0.29,9.47,35,0.000,8.16
5.3641,-0.00524,0.05061,0.14486,0.00000,0.00000,0.00000,40,2,63,27,24,13,64,19,ok,2,0,0.001,5,0.73,0.29,9.47,35,0.013,8.16
5.3842,-0.00524,0.05061,0.14486,0.00000,0.00000,0.00000,40,2,64,26,25,11,64,20,ok,2,0,0.001,5,0.73,0.29,9.47,35,0.025,8.16
5.3891,-0.00524,0.05061,0.14486,0.00000,0.00000,0.00000,40,1,67,22,26,10,65,21,ok,2,0,0.001,5,0.73,0.29,9.47,35,0.038,8.16
5.4017,-0.00524,0.05061,0.14486,0.00000,0.00000,0.00000,41,1,69,19,28,10,65,22,ok,2,0,0.001,5,0.73,0.29,9.47,35,0.050,8.16
5.4242,-0.00524,0.05061,0.14486,0.00000,0.00000,0.00000,42,1,70,15,29,10,64,24,ok,2,0,0.001,5,0.73,0.29,9.47,35,0.063,8.16
5.4274,-0.00524,0.05061,0.14486,0.00000,0.00000,0.00000,42,1,70,13,30,9,64,26,ok,2,0,0.001,5,0.73,0.29,9.47,35,0.076,8.16
5.4401,-0.00524,0.05061,0.14486,0.00000,0.00000,0.00000,44,1,70,12,33,9,65,26,ok,2,0,0.001,5,0.73,0.29,9.47,35,0.089,8.16
5.4602,-0.00524,0.05061,0.14486,0.00000,0.00000,0.00000,44,1,70,9,33,9,64,28,ok,2,0,0.001,5,0.73,0.29,9.47,35,0.101,8.16
5.4651,-0.00524,0.05061,0.14486,0.00000,0.00000,0.00000,45,2,69,6,35,9,64,30,ok,2,0,0.001,5,0.73,0.29,9.47,35,0.114,8.16
5.4776,-0.00524,0.05061,0.14486,0.00000,0.00000,0.00000,46,2,68,3,36,8,64,31,ok,2,0,0.001,5,0.73,0.29,9.47,35,0.126,8.16
5.5002,-0.00524,0.05061,0.14486,0.00000,0.00000,0.00000,46,2,67,0,37,9,64,33,ok,2,0,0.001,5,0.73,0.29,9.47,35,0.139,8.16
5.5035,-0.00524,0.05061,0.14486,0.00000,0.00000,0.00000,46,2,66,-2,39,8,64,34,ok,2,0,0.001,5,0.73,0.29,9.47,35,0.152,8.16
5.5160,-0.00524,0.05061,0.14486,0.00000,0.00000,0.00000,48,2,64,-3,40,8,63,35,ok,2,0,0.001,5,0.73,0.29,9.47,35,0.165,8.16
5.5362,-0.00524,0.05061,0.14486,0.00000,0.00000,0.00000,48,2,62,-4,41,7,64,36,ok,2,0,0.001,5,0.73,0.29,9.47,35,0.177,8.16
5.5410,-0.00524,0.05061,0.14486,0.00000,0.00000,0.00000,48,3,61,-6,42,7,66,35,ok,2,0,0.001,5,0.73,0.29,9.47,35,0.190,8.16
5.5536,-0.00524,0.05061,0.14486,0.00000,0.00000,0.00000,48,3,60,-8,43,7,67,32,ok,2,0,0.001,5,0.73,0.29,9.47,35,0.202,8.16
5.5762,-0.14661,0.07854,0.19199,0.00000,0.00000,0.00000,50,3,58,-8,44,7,69,27,ok,2,0,0.001,5,0.70,-0.85,9.86,36,0.000,8.16
5.5797,-0.14661,0.07854,0.19199,0.00000,0.00000,0.00000,50,3,55,-9,44,6,71,24,ok,2,0,0.001,5,0.70,-0.85,9.86,36,0.013,8.16
5.5921,-0.14661,0.07854,0.19199,0.00000,0.00000,0.00000,50,2,53,-9,46,6,73,21,ok,2,0,0.001,5,0.70,-0.85,9.86,36,0.026,8.16
5.6122,-0.14661,0.07854,0.19199,0.00000,0.00000,0.00000,50,4,51,-10,47,6,73,20,ok,2,0,0.001,5,0.70,-0.85,9.86,36,0.039,8.16
5.6171,-0.14661,0.07854,0.19199,0.00000,0.00000,0.00000,51,5,48,-10,47,7,73,18,ok,2,0,0.001,6,0.70,-0.85,9.86,36,0.051,8.16
5.6298,-0.14661,0.07854,0.19199,0.00000,0.00000,0.00000,51,4,46,-9,48,7,73,15,ok,2,0,0.001,6,0.70,-0.85,9.86,36,0.064,8.16
5.6523,-0.14661,0.07854,0.19199,0.00000,0.00000,0.00000,52,5,44,-9,49,7,72,12,ok,2,0,0.001,6,0.70,-0.85,9.86,36,0.076,8.16
5.6555,-0.14661,0.07854,0.19199,0.00000,0.00000,0.00000,52,5,41,-9,50,7,72,11,ok,2,0,0.001,6,0.70,-0.85,9.86,36,0.089,8.16
5.6681,-0.14661,0.07854,0.19199,0.00000,0.00000,0.00000,53,6,38,-9,51,7,71,7,ok,2,0,0.002,6,0.70,-0.85,9.86,36,0.102,8.16
5.6882,-0.14661,0.07854,0.19199,0.00000,0.00000,0.00000,53,6,36,-9,52,6,71,6,ok,2,0,0.002,6,0.70,-0.85,9.86,36,0.115,8.16
5.6933,-0.14661,0.07854,0.19199,0.00000,0.00000,0.00000,54,6,33,-8,52,7,70,4,ok,2,0,0.002,6,0.70,-0.85,9.86,36,0.127,8.16
5.7057,-0.14661,0.07854,0.19199,0.00000,0.00000,0.00000,54,7,30,-7,53,7,68,2,ok,2,0,0.002,6,0.70,-0.85,9.86,36,0.140,8.16
5.7282,-0.14661,0.07854,0.19199,0.00000,0.00000,0.00000,54,8,26,-6,54,8,66,2,ok,2,0,0.002,6,0.70,-0.85,9.86,36,0.152,8.16
5.7315,-0.14661,0.07854,0.19199,0.00000,0.00000,0.00000,54,8,24,-4,55,8,65,0,ok,2,0,0.002,6,0.70,-0.85,9.86,36,0.165,8.16
5.7440,-0.14661,0.07854,0.19199,0.00000,0.00000,0.00000,55,10,20,-2,56,8,64,-2,ok,2,0,0.002,6,0.70,-0.85,9.86,36,0.178,8.16
5.7642,-0.14661,0.07854,0.19199,0.00000,0.00000,0.00000,55,10,18,-1,58,6,62,-3,ok,2,0,0.002,6,0.70,-0.85,9.86,36,0.190,8.16
5.7694,-0.02618,-0.00000,0.16930,0.00000,0.00000,0.00000,56,9,17,0,58,7,60,-4,ok,2,0,0.002,6,0.13,0.23,10.51,37,0.000,8.16
5.7816,-0.02618,-0.00000,0.16930,0.00000,0.00000,0.00000,56,10,15,2,59,8,58,-5,ok,2,0,0.002,6,0.13,0.23,10.51,37,0.013,8.16
5.8042,-0.02618,-0.00000,0.16930,0.00000,0.00000,0.00000,56,11,14,5,60,9,55,-5,ok,2,0,0.002,6,0.13,0.23,10.51,37,0.025,8.16
5.8075,-0.02618,-0.00000,0.16930,0.00000,0.00000,0.00000,56,12,13,9,60,9,53,-6,ok,2,0,0.002,6,0.13,0.23,10.51,37,0.038,8.16
5.8202,-0.02618,-0.00000,0.16930,0.00000,0.00000,0.00000,56,12,12,11,61,10,50,-5,ok,2,0,0.002,6,0.13,0.23,10.51,37,0.051,8.16
5.8403,-0.02618,-0.00000,0.16930,0.00000,0.00000,0.00000,56,14,14,11,61,10,48,-5,ok,2,0,0.002,6,0.13,0.23,10.51,37,0.064,8.16
5.8451,-0.02618,-0.00000,0.16930,0.00000,0.00000,0.00000,56,14,15,11,61,11,46,-5,ok,2,0,0.002,6,0.13,0.23,10.51,37,0.076,8.16
5.8576,-0.02618,-0.00000,0.16930,0.00000,0.00000,0.00000,56,15,17,9,61,11,42,-4,ok,2,0,0.002,6,0.13,0.23,10.51,37,0.089,8.16
5.8802,-0.02618,-0.00000,0.16930,0.00000,0.00000,0.00000,56,16,19,8,61,12,41,-5,ok,2,0,0.002,6,0.13,0.23,10.51,37,0.101,8.16
5.8834,-0.02618,-0.00000,0.16930,0.00000,0.00000,0.00000,56,16,19,8,61,12,37,-3,ok,2,0,0.002,6,0.13,0.23,10.51,37,0.114,8.16
5.8960,-0.02618,-0.00000,0.16930,0.00000,0.00000,0.00000,57,17,21,7,62,13,35,-3,ok,2,0,0.002,6,0.13,0.23,10.51,37,0.127,8.16
5.9162,-0.02618,-0.00000,0.16930,0.00000,0.00000,0.00000,56,18,21,7,62,14,31,-1,ok,2,0,0.002,6,0.13,0.23,10.51,37,0.140,8.16
5.9210,-0.02618,-0.00000,0.16930,0.00000,0.00000,0.00000,58,19,23,6,63,14,30,0,ok,2,0,0.002,6,0.13,0.23,10.51,37,0.152,8.16
5.9336,-0.02618,-0.00000,0.16930,0.00000,0.00000,0.00000,58,20,24,5,63,15,27,2,ok,2,0,0.002,6,0.13,0.23,10.51,37,0.165,8.16
5.9562,-0.02618,-0.00000,0.16930,0.00000,0.00000,0.00000,58,21,24,5,63,16,25,5,ok,2,0,0.002,6,0.13,0.23,10.51,37,0.177,8.16
5.9594,-0.02618,-0.00000,0.16930,0.00000,0.00000,0.00000,58,22,25,4,63,17,24,7,ok,2,0,0.002,6,0.13,0.23,10.51,37,0.190,8.16
5.9724,-0.02618,-0.00000,0.16930,0.00000,0.00000,0.00000,58,23,26,3,64,17,23,11,ok,2,0,0.002,6,0.13,0.23,10.51,37,0.203,8.16
5.9922,0.09076,-0.00000,0.15184,0.00000,0.00000,0.00000,57,26,27,3,64,19,22,13,ok,2,0,0.002,6,-1.02,1.13,11.11,38,0.000,8.16
5.9970,0.09076,-0.00000,0.15184,0.00000,0.00000,0.00000,57,27,28,2,64,20,24,12,ok,2,0,0.002,6,-1.02,1.13,11.11,38,0.012,8.16
6.0096,0.09076,-0.00000,0.15184,0.00000,0.00000,0.00000,58,25,29,1,64,21,24,12,ok,2,0,0.002,6,-1.02,1.13,11.11,38,0.025,8.16
6.0322,0.09076,-0.00000,0.15184,0.00000,0.00000,0.00000,58,22,30,1,65,23,25,10,ok,2,0,0.002,6,-1.02,1.13,11.11,38,0.038,8.16
6.0355,0.09076,-0.00000,0.15184,0.00000,0.00000,0.00000,60,19,31,1,64,24,26,9,ok,2,0,0.002,6,-1.02,1.13,11.11,38,0.051,8.16
6.0480,0.09076,-0.00000,0.15184,0.00000,0.00000,0.00000,60,14,33,1,64,25,27,10,ok,2,0,0.002,6,-1.02,1.13,11.11,38,0.064,8.16
6.0682,0.09076,-0.00000,0.15184,0.00000,0.00000,0.00000,60,12,34,1,65,26,28,9,ok,2,0,0.002,6,-1.02,1.13,11.11,38,0.076,8.16
6.0730,0.09076,-0.00000,0.15184,0.00000,0.00000,0.00000,60,12,36,1,64,28,30,9,ok,2,0,0.002,6,-1.02,1.13,11.11,38,0.088,8.16
6.0856,0.09076,-0.00000,0.15184,0.00000,0.00000,0.00000,60,9,37,1,64,29,32,8,ok,2,0,0.002,6,-1.02,1.13,11.11,38,0.101,8.16
6.1082,0.09076,-0.00000,0.15184,0.00000,0.00000,0.00000,60,6,39,2,64,30,33,9,ok,2,0,0.002,6,-1.02,1.13,11.11,38,0.114,8.16
6.1115,0.09076,-0.00000,0.15184,0.00000,0.00000,0.00000,60,3,40,2,64,32,34,8,ok,2,0,0.002,6,-1.02,1.13,11.11,38,0.127,8.16
6.1240,0.09076,-0.00000,0.15184,0.00000,0.00000,0.00000,59,0,42,2,64,34,35,8,ok,2,0,0.002,6,-1.02,1.13,11.11,38,0.140,8.16
6.1442,0.09076,-0.00000,0.15184,0.00000,0.00000,0.00000,58,-2,43,2,64,35,36,8,ok,2,0,0.002,6,-1.02,1.13,11.11,38,0.152,8.16
6.1491,0.09076,-0.00000,0.15184,0.00000,0.00000,0.00000,58,-4,44,3,64,36,38,8,ok,2,0,0.002,6,-1.02,1.13,11.11,38,0.164,8.16
6.1616,0.09076,-0.00000,0.15184,0.00000,0.00000,0.00000,57,-5,45,3,66,35,39,7,ok,2,0,0.002,6,-1.02,1.13,11.11,38,0.177,8.16
6.1842,0.09076,-0.00000,0.15184,0.00000,0.00000,0.00000,56,-6,46,3,67,33,40,7,ok,2,0,0.002,6,-1.02,1.13,11.11,38,0.190,8.16
6.1878,-0.05934,0.01222,0.18151,0.00000,0.00000,0.00000,56,-8,47,3,69,29,41,7,ok,2,0,0.002,6,1.95,-0.32,9.27,39,0.000,8.16
6.2001,-0.05934,0.01222,0.18151,0.00000,0.00000,0.00000,54,-9,48,5,71,24,43,7,ok,2,0,0.002,6,1.95,-0.32,9.27,39,0.013,8.16
6.2202,-0.05934,0.01222,0.18151,0.00000,0.00000,0.00000,54,-10,50,4,72,21,44,7,ok,2,0,0.002,6,1.95,-0.32,9.27,39,0.025,8.16
6.2251,-0.05934,0.01222,0.18151,0.00000,0.00000,0.00000,52,-11,50,4,73,20,45,7,ok,2,0,0.002,6,1.95,-0.32,9.27,39,0.038,8.16
6.2377,-0.05934,0.01222,0.18151,0.00000,0.00000,0.00000,51,-12,50,6,73,18,46,7,ok,2,0,0.002,6,1.95,-0.32,9.27,39,0.050,8.16
6.2602,-0.05934,0.01222,0.18151,0.00000,0.00000,0.00000,50,-12,51,7,73,14,47,8,ok,2,0,0.002,6,1.95,-0.32,9.27,39,0.063,8.16
6.2635,-0.05934,0.01222,0.18151,0.00000,0.00000,0.00000,48,-12,52,7,73,11,48,8,ok,2,0,0.002,6,1.95,-0.32,9.27,39,0.076,8.16
6.2762,-0.05934,0.01222,0.18151,0.00000,0.00000,0.00000,47,-12,53,7,72,10,49,8,ok,2,0,0.002,6,1.95,-0.32,9.27,39,0.089,8.16
6.2962,-0.05934,0.01222,0.18151,0.00000,0.00000,0.00000,46,-12,53,8,72,7,49,9,ok,2,0,0.002,6,1.95,-0.32,9.27,39,0.101,8.16
6.3011,-0.05934,0.01222,0.18151,0.00000,0.00000,0.00000,44,-12,56,8,71,5,50,8,ok,2,0,0.002,6,1.95,-0.32,9.27,39,0.114,8.16
6.3136,-0.05934,0.01222,0.18151,0.00000,0.00000,0.00000,43,-11,56,8,70,4,51,9,ok,2,0,0.002,6,1.95,-0.32,9.27,39,0.126,8.16
6.3362,-0.05934,0.01222,0.18151,0.00000,0.00000,0.00000,42,-9,57,7,69,1,52,8,ok,2,0,0.002,6,1.95,-0.32,9.27,39,0.139,8.16
6.3395,-0.05934,0.01222,0.18151,0.00000,0.00000,0.00000,40,-7,57,8,66,1,52,9,ok,2,0,0.002,6,1.95,-0.32,9.27,39,0.152,8.16
6.3526,-0.05934,0.01222,0.18151,0.00000,0.00000,0.00000,38,-6,58,8,65,-1,53,9,ok,2,0,0.002,6,1.95,-0.32,9.27,39,0.165,8.16
6.3722,-0.05934,0.01222,0.18151,0.00000,0.00000,0.00000,37,-4,58,8,63,-3,54,9,ok,2,0,0.002,6,1.95,-0.32,9.27,39,0.177,8.16
6.3771,-0.05934,0.01222,0.18151,0.00000,0.00000,0.00000,35,-1,59,9,61,-4,55,9,ok,2,0,0.002,6,1.95,-0.32,9.27,39,0.190,8.16
6.3900,0.02793,-0.03142,0.19373,0.00000,0.00000,0.00000,35,-1,60,11,60,-5,55,8,ok,2,0,0.002,6,-0.36,0.93,9.65,40,0.000,8.16
6.4122,0.02793,-0.03142,0.19373,0.00000,0.00000,0.00000,34,0,61,10,59,-5,56,6,ok,2,0,0.002,6,-0.36,0.93,9.65,40,0.013,8.16
6.4156,0.02793,-0.03142,0.19373,0.00000,0.00000,0.00000,33,2,61,11,56,-6,57,7,ok,2,0,0.002,6,-0.36,0.93,9.65,40,0.026,8.16
6.4282,0.02793,-0.03142,0.19373,0.00000,0.00000,0.00000,32,6,61,10,54,-7,58,8,ok,2,0,0.002,6,-0.36,0.93,9.65,40,0.038,8.16
6.4482,0.02793,-0.03142,0.19373,0.00000,0.00000,0.00000,32,9,61,11,51,-6,58,9,ok,2,0,0.002,6,-0.36,0.93,9.65,40,0.051,8.16
6.4533,0.02793,-0.03142,0.19373,0.00000,0.00000,0.00000,32,12,62,11,48,-5,59,9,ok,2,0,0.002,6,-0.36,0.93,9.65,40,0.063,8.16
6.4656,0.02793,-0.03142,0.19373,0.00000,0.00000,0.00000,32,12,62,12,46,-6,60,10,ok,2,0,0.002,6,-0.36,0.93,9.65,40,0.076,8.16
6.4882,0.02793,-0.03142,0.19373,0.00000,0.00000,0.00000,32,12,61,13,43,-5,59,10,ok,2,0,0.002,6,-0.36,0.93,9.65,40,0.088,8.16
6.4915,0.02793,-0.03142,0.19373,0.00000,0.00000,0.00000,33,11,62,13,40,-5,60,11,ok,2,0,0.002,6,-0.36,0.93,9.65,40,0.102,8.16
6.5044,0.02793,-0.03142,0.19373,0.00000,0.00000,0.00000,34,10,62,14,37,-4,60,11,ok,2,0,0.002,6,-0.36,0.93,9.65,40,0.114,8.16
6.5242,0.02793,-0.03142,0.19373,0.00000,0.00000,0.00000,34,9,62,14,34,-3,61,12,ok,2,0,0.002,6,-0.36,0.93,9.65,40,0.127,8.16
6.5291,0.02793,-0.03142,0.19373,0.00000,0.00000,0.00000,36,8,63,15,31,-2,61,13,ok,2,0,0.002,6,-0.36,0.93,9.65,40,0.139,8.16
6.5416,0.02793,-0.03142,0.19373,0.00000,0.00000,0.00000,36,8,63,17,29,0,62,14,ok,2,0,0.002,6,-0.36,0.93,9.65,40,0.152,8.16
6.5642,0.02793,-0.03142,0.19373,0.00000,0.00000,0.00000,36,6,64,18,27,2,62,15,ok,2,0,0.002,6,-0.36,0.93,9.65,40,0.164,8.16
6.5674,0.02793,-0.03142,0.19373,0.00000,0.00000,0.00000,37,5,64,19,25,5,63,15,ok,2,0,0.002,6,-0.36,0.93,9.65,40,0.178,8.16
6.5800,0.02793,-0.03142,0.19373,0.00000,0.00000,0.00000,38,5,64,20,24,8,63,16,ok,2,0,0.002,6,-0.36,0.93,9.65,40,0.190,8.16
6.6002,-0.02618,0.02793,0.17977,0.00000,0.00000,0.00000,38,4,64,21,23,11,63,17,ok,2,0,0.002,6,-0.11,-0.02,7.73,41,0.000,8.16
6.6054,-0.02618,0.02793,0.17977,0.00000,0.00000,0.00000,38,4,64,23,22,14,63,18,ok,2,0,0.002,6,-0.11,-0.02,7.73,41,0.013,8.16
6.6176,-0.02618,0.02793,0.17977,0.00000,0.00000,0.00000,39,4,64,26,23,13,64,19,ok,2,0,0.002,6,-0.11,-0.02,7.73,41,0.025,8.16
6.6402,-0.02618,0.02793,0.17977,0.00000,0.00000,0.00000,40,3,63,27,24,13,64,20,ok,2,0,0.002,7,-0.11,-0.02,7.73,41,0.038,8.16
6.6435,-0.02618,0.02793,0.17977,0.00000,0.00000,0.00000,40,2,65,26,25,11,64,21,ok,2,0,0.002,7,-0.11,-0.02,7.73,41,0.051,8.16
6.6562,-0.02618,0.02793,0.17977,0.00000,0.00000,0.00000,40,1,67,23,26,10,65,21,ok,2,0,0.002,7,-0.11,-0.02,7.73,41,0.064,8.16
6.6762,-0.02618,0.02793,0.17977,0.00000,0.00000,0.00000,41,1,69,19,27,10,65,22,ok,2,0,0.002,7,-0.11,-0.02,7.73,41,0.076,8.16
6.6812,-0.02618,0.02793,0.17977,0.00000,0.00000,0.00000,42,1,70,15,29,10,64,24,ok,2,0,0.002,7,-0.11,-0.02,7.73,41,0.089,8.16
6.6936,-0.02618,0.02793,0.17977,0.00000,0.00000,0.00000,42,1,71,13,30,9,64,26,ok,2,0,0.002,7,-0.11,-0.02,7.73,41,0.101,8.16
6.7162,-0.02618,0.02793,0.17977,0.00000,0.00000,0.00000,44,1,70,12,33,9,65,26,ok,2,0,0.002,7,-0.11,-0.02,7.73,41,0.114,8.16
6.7195,-0.02618,0.02793,0.17977,0.00000,0.00000,0.00000,44,1,70,9,33,9,64,29,ok,2,0,0.002,7,-0.11,-0.02,7.73,41,0.127,8.16
6.7322,-0.02618,0.02793,0.17977,0.00000,0.00000,0.00000,45,2,69,6,35,9,64,30,ok,2,0,0.002,7,-0.11,-0.02,7.73,41,0.140,8.16
6.7522,-0.02618,0.02793,0.17977,0.00000,0.00000,0.00000,46,2,69,3,36,8,64,31,ok,2,0,0.002,7,-0.11,-0.02,7.73,41,0.152,8.16
6.7571,-0.02618,0.02793,0.17977,0.00000,0.00000,0.00000,46,2,67,0,37,9,64,33,ok,2,0,0.002,7,-0.11,-0.02,7.73,41,0.165,8.16
6.7698,-0.02618,0.02793,0.17977,0.00000,0.00000,0.00000,47,2,66,-2,39,8,64,34,ok,2,0,0.002,7,-0.11,-0.02,7.73,41,0.177,8.16
6.7922,-0.02618,0.02793,0.17977,0.00000,0.00000,0.00000,48,2,64,-3,40,8,63,35,ok,2,0,0.002,7,-0.11,-0.02,7.73,41,0.190,8.16
6.7958,-0.16057,0.03316,0.23038,0.00000,0.00000,0.00000,48,2,62,-4,41,7,64,36,ok,2,0,0.002,7,0.30,-1.56,6.68,42,0.000,8.16
6.8081,-0.16057,0.03316,0.23038,0.00000,0.00000,0.00000,48,3,61,-5,42,7,66,35,ok,2,0,0.002,7,0.30,-1.56,6.68,42,0.013,8.16
6.8282,-0.16057,0.03316,0.23038,0.00000,0.00000,0.00000,49,3,60,-7,43,6,68,32,ok,2,0,0.002,7,0.30,-1.56,6.68,42,0.025,8.16
6.8331,-0.16057,0.03316,0.23038,0.00000,0.00000,0.00000,50,3,58,-8,43,6,70,27,ok,2,0,0.002,7,0.30,-1.56,6.68,42,0.038,8.16
6.8456,-0.16057,0.03316,0.23038,0.00000,0.00000,0.00000,50,2,55,-9,44,6,71,24,ok,2,0,0.002,7,0.30,-1.56,6.68,42,0.050,8.16
6.8682,-0.16057,0.03316,0.23038,0.00000,0.00000,0.00000,50,2,53,-9,45,7,73,21,ok,2,0,0.002,7,0.30,-1.56,6.68,42,0.063,8.16
6.8715,-0.16057,0.03316,0.23038,0.00000,0.00000,0.00000,50,4,51,-10,47,7,73,21,ok,2,0,0.002,7,0.30,-1.56,6.68,42,0.076,8.16
6.8842,-0.16057,0.03316,0.23038,0.00000,0.00000,0.00000,51,5,49,-9,47,7,73,19,ok,2,0,0.002,7,0.30,-1.56,6.68,42,0.089,8.16
6.9042,-0.16057,0.03316,0.23038,0.00000,0.00000,0.00000,52,4,46,-9,49,7,73,15,ok,2,0,0.002,7,0.30,-1.56,6.68,42,0.101,8.16
6.9091,-0.16057,0.03316,0.23038,0.00000,0.00000,0.00000,52,5,44,-9,49,7,72,13,ok,2,0,0.002,7,0.30,-1.56,6.68,42,0.114,8.16
6.9217,-0.16057,0.03316,0.23038,0.00000,0.00000,0.00000,52,6,41,-9,50,7,72,11,ok,2,0,0.002,7,0.30,-1.56,6.68,42,0.126,8.16
6.9442,-0.16057,0.03316,0.23038,0.00000,0.00000,0.00000,53,7,39,-10,51,7,71,7,ok,2,0,0.002,7,0.30,-1.56,6.68,42,0.139,8.16
6.9475,-0.16057,0.03316,0.23038,0.00000,0.00000,0.00000,54,7,36,-9,52,6,71,6,ok,2,0,0.002,7,0.30,-1.56,6.68,42,0.152,8.16
6.9602,-0.16057,0.03316,0.23038,0.00000,0.00000,0.00000,54,7,33,-9,52,7,70,4,ok,2,0,0.002,7,0.30,-1.56,6.68,42,0.165,8.16
6.9802,-0.16057,0.03316,0.23038,0.00000,0.00000,0.00000,54,8,30,-7,53,7,68,2,ok,2,0,0.002,7,0.30,-1.56,6.68,42,0.177,8.16
6.9850,-0.16057,0.03316,0.23038,0.00000,0.00000,0.00000,54,8,27,-6,54,8,66,2,ok,2,0,0.002,7,0.30,-1.56,6.68,42,0.190,8.16
6.9978,-0.16057,0.03316,0.23038,0.00000,0.00000,0.00000,54,9,24,-4,55,8,65,0,ok,2,0,0.002,7,0.30,-1.56,6.68,42,0.202,8.16
7.0202,-0.04538,0.01571,0.20071,0.00000,0.00000,0.00000,55,10,20,-2,56,8,64,-2,ok,2,0,0.002,7,1.16,-0.02,10.63,43,0.000,8.16
7.0234,-0.04538,0.01571,0.20071,0.00000,0.00000,0.00000,55,10,19,-1,58,6,62,-3,ok,2,0,0.002,7,1.16,-0.02,10.63,43,0.013,8.16
7.0360,-0.04538,0.01571,0.20071,0.00000,0.00000,0.00000,56,10,18,0,58,7,59,-4,ok,2,0,0.002,7,1.16,-0.02,10.63,43,0.026,8.16
7.0562,-0.04538,0.01571,0.20071,0.00000,0.00000,0.00000,56,11,16,2,59,8,58,-4,ok,2,0,0.002,7,1.16,-0.02,10.63,43,0.039,8.16
7.0610,-0.04538,0.01571,0.20071,0.00000,0.00000,0.00000,56,11,15,5,60,9,55,-5,ok,2,0,0.002,7,1.16,-0.02,10.63,43,0.051,8.16
7.0736,-0.04538,0.01571,0.20071,0.00000,0.00000,0.00000,56,13,13,9,60,9,53,-6,ok,2,0,0.002,7,1.16,-0.02,10.63,43,0.063,8.16
7.0963,-0.04538,0.01571,0.20071,0.00000,0.00000,0.00000,56,13,12,11,60,9,50,-5,ok,2,0,0.002,7,1.16,-0.02,10.63,43,0.076,8.16
7.0994,-0.04538,0.01571,0.20071,0.00000,0.00000,0.00000,56,14,14,11,61,9,48,-5,ok,2,0,0.002,7,1.16,-0.02,10.63,43,0.089,8.16
7.1121,-0.04538,0.01571,0.20071,0.00000,0.00000,0.00000,56,14,15,11,61,10,46,-5,ok,2,0,0.002,7,1.16,-0.02,10.63,43,0.102,8.16
7.1322,-0.04538,0.01571,0.20071,0.00000,0.00000,0.00000,56,15,16,10,61,11,42,-4,ok,2,0,0.002,7,1.16,-0.02,10.63,43,0.115,8.16
7.1371,-0.04538,0.01571,0.20071,0.00000,0.00000,0.00000,56,16,18,9,61,12,40,-4,ok,2,0,0.002,7,1.16,-0.02,10.63,43,0.127,8.16
7.1498,-0.04538,0.01571,0.20071,0.00000,0.00000,0.00000,56,16,19,8,61,12,37,-3,ok,2,0,0.002,7,1.16,-0.02,10.63,43,0.140,8.16
7.1722,-0.04538,0.01571,0.20071,0.00000,0.00000,0.00000,56,16,21,7,62,13,35,-3,ok,2,0,0.002,7,1.16,-0.02,10.63,43,0.152,8.16
7.1755,-0.04538,0.01571,0.20071,0.00000,0.00000,0.00000,56,17,21,7,62,14,31,-1,ok,2,0,0.002,7,1.16,-0.02,10.63,43,0.165,8.16
7.1881,-0.04538,0.01571,0.20071,0.00000,0.00000,0.00000,58,19,23,6,63,14,30,0,ok,2,0,0.002,7,1.16,-0.02,10.63,43,0.178,8.16
7.2082,-0.04538,0.01571,0.20071,0.00000,0.00000,0.00000,58,20,24,5,63,15,27,2,ok,2,0,0.002,7,1.16,-0.02,10.63,43,0.191,8.16
7.2134,-0.08203,0.15359,0.18675,0.00000,0.00000,0.00000,58,21,24,5,63,16,25,5,ok,2,0,0.002,7,1.47,-1.49,10.56,44,0.000,8.16
7.2257,-0.08203,0.15359,0.18675,0.00000,0.00000,0.00000,58,22,25,4,63,16,24,7,ok,2,0,0.002,7,1.47,-1.49,10.56,44,0.013,8.16
7.2482,-0.08203,0.15359,0.18675,0.00000,0.00000,0.00000,58,23,26,3,63,17,23,11,ok,2,0,0.002,7,1.47,-1.49,10.56,44,0.025,8.16
7.2516,-0.08203,0.15359,0.18675,0.00000,0.00000,0.00000,57,26,27,3,63,18,22,13,ok,2,0,0.002,7,1.47,-1.49,10.56,44,0.038,8.16
7.2640,-0.08203,0.15359,0.18675,0.00000,0.00000,0.00000,57,26,27,3,64,19,24,12,ok,2,0,0.002,7,1.47,-1.49,10.56,44,0.051,8.16
7.2842,-0.08203,0.15359,0.18675,0.00000,0.00000,0.00000,58,25,28,2,64,20,25,12,ok,2,0,0.002,7,1.47,-1.49,10.56,44,0.063,8.16
7.2891,-0.08203,0.15359,0.18675,0.00000,0.00000,0.00000,58,21,29,2,65,22,25,10,ok,2,0,0.002,7,1.47,-1.49,10.56,44,0.076,8.16
7.3018,-0.08203,0.15359,0.18675,0.00000,0.00000,0.00000,60,17,30,2,64,23,27,10,ok,2,0,0.002,7,1.47,-1.49,10.56,44,0.088,8.16
7.3244,-0.08203,0.15359,0.18675,0.00000,0.00000,0.00000,60,12,31,2,64,25,28,11,ok,2,0,0.002,7,1.47,-1.49,10.56,44,0.101,8.16
7.3277,-0.08203,0.15359,0.18675,0.00000,0.00000,0.00000,60,10,33,2,65,25,29,10,ok,2,0,0.002,7,1.47,-1.49,10.56,44,0.115,8.16
7.3404,-0.08203,0.15359,0.18675,0.00000,0.00000,0.00000,60,10,35,2,64,27,31,9,ok,2,0,0.002,7,1.47,-1.49,10.56,44,0.127,8.16
7.3602,-0.08203,0.15359,0.18675,0.00000,0.00000,0.00000,60,7,36,2,64,28,33,9,ok,2,0,0.002,7,1.47,-1.49,10.56,44,0.140,8.16
7.3654,-0.08203,0.15359,0.18675,0.00000,0.00000,0.00000,60,4,38,3,65,30,33,9,ok,2,0,0.002,7,1.47,-1.49,10.56,44,0.152,8.16
7.3778,-0.08203,0.15359,0.18675,0.00000,0.00000,0.00000,59,1,39,3,65,32,35,9,ok,2,0,0.002,7,1.47,-1.49,10.56,44,0.165,8.16
7.4002,-0.08203,0.15359,0.18675,0.00000,0.00000,0.00000,58,-1,40,3,64,33,36,9,ok,2,0,0.002,7,1.47,-1.49,10.56,44,0.177,8.16
7.4035,-0.08203,0.15359,0.18675,0.00000,0.00000,0.00000,58,-3,41,2,64,35,37,9,ok,2,0,0.002,7,1.47,-1.49,10.56,44,0.190,8.16
7.4164,-0.04712,-0.00524,0.23911,0.00000,0.00000,0.00000,58,-4,43,2,65,35,38,8,ok,2,0,0.002,7,1.10,0.22,10.60,45,0.000,8.16
7.4362,-0.04712,-0.00524,0.23911,0.00000,0.00000,0.00000,56,-5,43,2,67,35,40,8,ok,2,0,0.002,7,1.10,0.22,10.60,45,0.012,8.16
7.4412,-0.04712,-0.00524,0.23911,0.00000,0.00000,0.00000,56,-7,44,2,69,33,41,7,ok,2,0,0.002,7,1.10,0.22,10.60,45,0.025,8.16
7.4537,-0.04712,-0.00524,0.23911,0.00000,0.00000,0.00000,55,-9,46,2,71,29,42,7,ok,2,0,0.002,7,1.10,0.22,10.60,45,0.038,8.16
7.4762,-0.04712,-0.00524,0.23911,0.00000,0.00000,0.00000,54,-9,47,3,72,24,44,7,ok,2,0,0.002,7,1.10,0.22,10.60,45,0.050,8.16
7.4795,-0.04712,-0.00524,0.23911,0.00000,0.00000,0.00000,53,-10,49,3,73,22,44,7,ok,2,0,0.002,7,1.10,0.22,10.60,45,0.063,8.16
7.4921,-0.04712,-0.00524,0.23911,0.00000,0.00000,0.00000,52,-10,49,3,74,21,45,7,ok,2,0,0.002,7,1.10,0.22,10.60,45,0.076,8.16
7.5122,-0.04712,-0.00524,0.23911,0.00000,0.00000,0.00000,51,-11,50,5,74,18,46,7,ok,2,0,0.002,7,1.10,0.22,10.60,45,0.089,8.16
7.5171,-0.04712,-0.00524,0.23911,0.00000,0.00000,0.00000,50,-10,51,6,74,14,47,8,ok,2,0,0.002,7,1.10,0.22,10.60,45,0.101,8.16
7.5297,-0.04712,-0.00524,0.23911,0.00000,0.00000,0.00000,48,-10,52,5,73,11,48,8,ok,2,0,0.002,7,1.10,0.22,10.60,45,0.114,8.16
7.5522,-0.04712,-0.00524,0.23911,0.00000,0.00000,0.00000,48,-10,53,6,73,10,49,8,ok,2,0,0.002,7,1.10,0.22,10.60,45,0.126,8.16
7.5555,-0.04712,-0.00524,0.23911,0.00000,0.00000,0.00000,46,-10,53,7,72,6,49,9,ok,2,0,0.002,7,1.10,0.22,10.60,45,0.139,8.16
7.5681,-0.04712,-0.00524,0.23911,0.00000,0.00000,0.00000,44,-11,56,7,72,5,50,8,ok,2,0,0.002,7,1.10,0.22,10.60,45,0.152,8.16
7.5882,-0.04712,-0.00524,0.23911,0.00000,0.00000,0.00000,44,-10,56,7,71,3,51,9,ok,2,0,0.002,7,1.10,0.22,10.60,45,0.164,8.16
7.5931,-0.04712,-0.00524,0.23911,0.00000,0.00000,0.00000,42,-8,57,7,69,1,52,8,ok,2,0,0.002,7,1.10,0.22,10.60,45,0.177,8.16
7.6056,-0.04712,-0.00524,0.23911,0.00000,0.00000,0.00000,40,-7,57,8,66,1,52,9,ok,2,0,0.002,7,1.10,0.22,10.60,45,0.190,8.16
7.6282,0.03840,-0.03665,0.26704,0.00000,0.00000,0.00000,38,-6,58,8,65,-1,52,9,ok,2,0,0.002,7,-0.14,0.47,9.76,46,0.000,8.16
7.6316,0.03840,-0.03665,0.26704,0.00000,0.00000,0.00000,37,-4,58,8,64,-2,54,9,ok,2,0,0.002,7,-0.14,0.47,9.76,46,0.013,8.16
7.6440,0.03840,-0.03665,0.26704,0.00000,0.00000,0.00000,35,-1,59,9,62,-4,54,9,ok,2,0,0.002,8,-0.14,0.47,9.76,46,0.026,8.16
7.6642,0.03840,-0.03665,0.26704,0.00000,0.00000,0.00000,34,-1,60,10,61,-5,54,8,ok,2,0,0.002,8,-0.14,0.47,9.76,46,0.039,8.16
7.6693,0.03840,-0.03665,0.26704,0.00000,0.00000,0.00000,34,0,61,10,59,-5,56,6,ok,2,0,0.002,8,-0.14,0.47,9.76,46,0.051,8.16
7.6817,0.03840,-0.03665,0.26704,0.00000,0.00000,0.00000,34,3,61,11,56,-6,56,7,ok,2,0,0.002,8,-0.14,0.47,9.76,46,0.064,8.16
7.7042,0.03840,-0.03665,0.26704,0.00000,0.00000,0.00000,32,6,61,10,54,-7,57,8,ok,2,0,0.002,8,-0.14,0.47,9.76,46,0.076,8.16
7.7075,0.03840,-0.03665,0.26704,0.00000,0.00000,0.00000,32,9,61,11,51,-6,58,9,ok,2,0,0.002,8,-0.14,0.47,9.76,46,0.089,8.16
7.7200,0.03840,-0.03665,0.26704,0.00000,0.00000,0.00000,32,12,62,11,48,-6,59,9,ok,2,0,0.002,8,-0.14,0.47,9.76,46,0.102,8.16
7.7402,0.03840,-0.03665,0.26704,0.00000,0.00000,0.00000,32,12,62,12,46,-6,60,10,ok,2,0,0.002,8,-0.14,0.47,9.76,46,0.115,8.16
7.7451,0.03840,-0.03665,0.26704,0.00000,0.00000,0.00000,32,12,62,13,43,-5,59,10,ok,2,0,0.002,8,-0.14,0.47,9.76,46,0.127,8.16
7.7576,0.03840,-0.03665,0.26704,0.00000,0.00000,0.00000,33,10,62,13,40,-5,60,11,ok,2,0,0.002,8,-0.14,0.47,9.76,46,0.140,8.16
7.7802,0.03840,-0.03665,0.26704,0.00000,0.00000,0.00000,34,9,62,14,37,-4,60,12,ok,2,0,0.002,8,-0.14,0.47,9.76,46,0.152,8.16
7.7835,0.03840,-0.03665,0.26704,0.00000,0.00000,0.00000,34,9,63,15,34,-3,61,13,ok,2,0,0.002,8,-0.14,0.47,9.76,46,0.165,8.16
7.7963,0.03840,-0.03665,0.26704,0.00000,0.00000,0.00000,36,8,63,15,31,-2,61,13,ok,2,0,0.002,8,-0.14,0.47,9.76,46,0.178,8.16
7.8162,0.03840,-0.03665,0.26704,0.00000,0.00000,0.00000,36,7,63,17,29,0,62,14,ok,2,0,0.002,8,-0.14,0.47,9.76,46,0.191,8.16
7.8213,0.03840,-0.03665,0.26704,0.00000,0.00000,0.00000,36,6,64,18,28,1,62,15,ok,2,0,0.002,8,-0.14,0.47,9.76,46,0.203,8.16
7.8339,-0.09599,-0.00524,0.26529,0.00000,0.00000,0.00000,37,5,64,19,25,5,63,15,ok,2,0,0.002,8,-0.96,-0.94,9.98,47,0.000,8.16
7.8562,-0.09599,-0.00524,0.26529,0.00000,0.00000,0.00000,38,5,64,21,24,7,63,17,ok,2,0,0.002,8,-0.96,-0.94,9.98,47,0.013,8.16
7.8595,-0.09599,-0.00524,0.26529,0.00000,0.00000,0.00000,38,4,64,22,23,10,63,18,ok,2,0,0.002,8,-0.96,-0.94,9.98,47,0.026,8.16
7.8721,-0.09599,-0.00524,0.26529,0.00000,0.00000,0.00000,38,3,64,23,22,13,64,18,ok,2,0,0.002,8,-0.96,-0.94,9.98,47,0.039,8.16
7.8922,-0.09599,-0.00524,0.26529,0.00000,0.00000,0.00000,39,3,63,26,23,13,64,19,ok,2,0,0.002,8,-0.96,-0.94,9.98,47,0.051,8.16
7.8971,-0.09599,-0.00524,0.26529,0.00000,0.00000,0.00000,40,2,63,28,24,13,64,20,ok,2,0,0.002,8,-0.96,-0.94,9.98,47,0.064,8.16
7.9096,-0.09599,-0.00524,0.26529,0.00000,0.00000,0.00000,40,1,65,26,25,11,64,21,ok,2,0,0.002,8,-0.96,-0.94,9.98,47,0.076,8.16
7.9322,-0.09599,-0.00524,0.26529,0.00000,0.00000,0.00000,40,0,67,24,26,10,65,22,ok,2,0,0.002,8,-0.96,-0.94,9.98,47,0.089,8.16
7.9356,-0.09599,-0.00524,0.26529,0.00000,0.00000,0.00000,41,0,69,20,27,10,65,23,ok,2,0,0.002,8,-0.96,-0.94,9.98,47,0.102,8.16
7.9481,-0.09599,-0.00524,0.26529,0.00000,0.00000,0.00000,42,0,71,15,29,10,64,24,ok,2,0,0.002,8,-0.96,-0.94,9.98,47,0.115,8.16
7.9682,-0.09599,-0.00524,0.26529,0.00000,0.00000,0.00000,42,1,71,13,30,9,64,26,ok,2,0,0.002,8,-0.96,-0.94,9.98,47,0.127,8.16
7.9730,-0.09599,-0.00524,0.26529,0.00000,0.00000,0.00000,44,1,70,12,32,9,65,27,ok,2,0,0.002,8,-0.96,-0.94,9.98,47,0.139,8.16
7.9858,-0.09599,-0.00524,0.26529,0.00000,0.00000,0.00000,44,2,70,9,33,9,64,29,ok,2,0,0.002,8,-0.96,-0.94,9.98,47,0.152,8.16
8.0082,-0.09599,-0.00524,0.26529,0.00000,0.00000,0.00000,45,3,69,6,35,8,64,30,ok,2,0,0.002,8,-0.96,-0.94,9.98,47,0.165,8.16
8.0115,-0.09599,-0.00524,0.26529,0.00000,0.00000,0.00000,46,3,69,3,36,8,64,31,ok,2,0,0.002,8,-0.96,-0.94,9.98,47,0.178,8.16
8.0242,-0.09599,-0.00524,0.26529,0.00000,0.00000,0.00000,46,3,67,0,37,8,64,33,ok,2,0,0.002,8,-0.96,-0.94,9.98,47,0.191,8.16
8.0442,-0.15533,0.03491,0.32638,0.00000,0.00000,0.00000,47,2,66,-2,39,8,63,35,ok,2,0,0.002,8,0.28,-1.38,7.72,48,0.000,8.16
8.0491,-0.15533,0.03491,0.32638,0.00000,0.00000,0.00000,48,3,64,-3,39,7,63,36,ok,2,0,0.002,8,0.28,-1.38,7.72,48,0.012,8.16
8.0617,-0.15533,0.03491,0.32638,0.00000,0.00000,0.00000,48,3,62,-4,40,6,64,36,ok,2,0,0.002,8,0.28,-1.38,7.72,48,0.025,8.16
8.0842,-0.15533,0.03491,0.32638,0.00000,0.00000,0.00000,48,3,61,-6,42,6,66,35,ok,2,0,0.002,8,0.28,-1.38,7.72,48,0.038,8.16
8.0876,-0.15533,0.03491,0.32638,0.00000,0.00000,0.00000,49,3,60,-8,43,6,67,33,ok,2,0,0.002,8,0.28,-1.38,7.72,48,0.051,8.16
8.1000,-0.15533,0.03491,0.32638,0.00000,0.00000,0.00000,50,3,58,-8,44,7,69,28,ok,2,0,0.002,8,0.28,-1.38,7.72,48,0.063,8.16
8.1202,-0.15533,0.03491,0.32638,0.00000,0.00000,0.00000,50,3,55,-9,45,7,71,24,ok,2,0,0.002,8,0.28,-1.38,7.72,48,0.076,8.16
8.1251,-0.15533,0.03491,0.32638,0.00000,0.00000,0.00000,50,3,53,-9,46,7,72,21,ok,2,0,0.002,8,0.28,-1.38,7.72,48,0.088,8.16
8.1378,-0.15533,0.03491,0.32638,0.00000,0.00000,0.00000,50,5,51,-10,47,7,72,21,ok,2,0,0.002,8,0.28,-1.38,7.72,48,0.101,8.16
8.1602,-0.15533,0.03491,0.32638,0.00000,0.00000,0.00000,51,5,48,-10,47,7,72,19,ok,2,0,0.002,8,0.28,-1.38,7.72,48,0.113,8.16
8.1635,-0.15533,0.03491,0.32638,0.00000,0.00000,0.00000,52,5,46,-10,49,7,73,15,ok,2,0,0.002,8,0.28,-1.38,7.72,48,0.127,8.16
8.1763,-0.15533,0.03491,0.32638,0.00000,0.00000,0.00000,52,6,44,-10,49,7,72,12,ok,2,0,0.002,8,0.28,-1.38,7.72,48,0.139,8.16
8.1962,-0.15533,0.03491,0.32638,0.00000,0.00000,0.00000,52,7,41,-10,50,7,71,11,ok,2,0,0.002,8,0.28,-1.38,7.72,48,0.152,8.16
8.2011,-0.15533,0.03491,0.32638,0.00000,0.00000,0.00000,53,7,39,-10,51,7,71,7,ok,2,0,0.002,8,0.28,-1.38,7.72,48,0.164,8.16
8.2136,-0.15533,0.03491,0.32638,0.00000,0.00000,0.00000,54,7,36,-9,52,6,71,6,ok,2,0,0.002,8,0.28,-1.38,7.72,48,0.177,8.16
8.2362,-0.15533,0.03491,0.32638,0.00000,0.00000,0.00000,54,7,33,-9,52,7,70,4,ok,2,0,0.002,8,0.28,-1.38,7.72,48,0.189,8.16
8.2398,-0.08727,0.04014,0.29671,0.00000,0.00000,0.00000,54,8,30,-7,53,7,68,2,ok,2,0,0.002,8,0.85,-0.42,10.74,49,0.000,8.16
8.2522,-0.08727,0.04014,0.29671,0.00000,0.00000,0.00000,54,8,27,-6,54,8,66,2,ok,2,0,0.002,8,0.85,-0.42,10.74,49,0.013,8.16
8.2722,-0.08727,0.04014,0.29671,0.00000,0.00000,0.00000,54,9,24,-5,55,8,65,0,ok,2,0,0.002,8,0.85,-0.42,10.74,49,0.025,8.16
8.2771,-0.08727,0.04014,0.29671,0.00000,0.00000,0.00000,55,10,20,-2,56,8,64,-2,ok,2,0,0.002,8,0.85,-0.42,10.74,49,0.038,8.16
8.2896,-0.08727,0.04014,0.29671,0.00000,0.00000,0.00000,55,10,19,-1,58,6,61,-3,ok,2,0,0.002,8,0.85,-0.42,10.74,49,0.050,8.16
8.3122,-0.08727,0.04014,0.29671,0.00000,0.00000,0.00000,56,10,18,0,58,7,59,-4,ok,2,0,0.002,8,0.85,-0.42,10.74,49,0.063,8.16
8.3155,-0.08727,0.04014,0.29671,0.00000,0.00000,0.00000,56,11,16,2,59,8,58,-4,ok,2,0,0.002,8,0.85,-0.42,10.74,49,0.076,8.16
8.3281,-0.08727,0.04014,0.29671,0.00000,0.00000,0.00000,56,11,14,5,59,8,55,-5,ok,2,0,0.002,8,0.85,-0.42,10.74,49,0.089,8.16
8.3482,-0.08727,0.04014,0.29671,0.00000,0.00000,0.00000,56,12,13,9,60,8,53,-6,ok,2,0,0.002,8,0.85,-0.42,10.74,49,0.101,8.16
8.3531,-0.08727,0.04014,0.29671,0.00000,0.00000,0.00000,56,12,12,11,60,9,50,-5,ok,2,0,0.002,8,0.85,-0.42,10.74,49,0.114,8.16
8.3656,-0.08727,0.04014,0.29671,0.00000,0.00000,0.00000,56,13,14,12,60,9,48,-5,ok,2,0,0.002,8,0.85,-0.42,10.74,49,0.126,8.16
8.3882,-0.08727,0.04014,0.29671,0.00000,0.00000,0.00000,56,14,15,11,61,10,46,-5,ok,2,0,0.002,8,0.85,-0.42,10.74,49,0.139,8.16
8.3916,-0.08727,0.04014,0.29671,0.00000,0.00000,0.00000,56,14,16,10,61,10,42,-4,ok,2,0,0.002,8,0.85,-0.42,10.74,49,0.152,8.16
8.4041,-0.08727,0.04014,0.29671,0.00000,0.00000,0.00000,56,15,18,9,62,12,41,-4,ok,2,0,0.002,8,0.85,-0.42,10.74,49,0.165,8.16
8.4242,-0.08727,0.04014,0.29671,0.00000,0.00000,0.00000,56,15,19,9,62,12,37,-3,ok,2,0,0.002,8,0.85,-0.42,10.74,49,0.177,8.16
8.4292,-0.08727,0.04014,0.29671,0.00000,0.00000,0.00000,56,16,21,8,62,13,35,-3,ok,2,0,0.002,8,0.85,-0.42,10.74,49,0.190,8.16
8.4420,-0.09948,0.10297,0.29322,0.00000,0.00000,0.00000,56,17,21,7,62,14,31,-1,ok,2,0,0.002,8,0.92,-0.94,9.38,50,0.000,8.16
8.4642,-0.09948,0.10297,0.29322,0.00000,0.00000,0.00000,58,19,23,6,63,14,30,0,ok,2,0,0.002,8,0.92,-0.94,9.38,50,0.013,8.16
8.4674,-0.09948,0.10297,0.29322,0.00000,0.00000,0.00000,58,20,24,5,63,15,27,2,ok,2,0,0.002,8,0.92,-0.94,9.38,50,0.026,8.16
8.4801,-0.09948,0.10297,0.29322,0.00000,0.00000,0.00000,58,21,24,5,63,16,25,5,ok,2,0,0.002,8,0.92,-0.94,9.38,50,0.039,8.16
8.5002,-0.09948,0.10297,0.29322,0.00000,0.00000,0.00000,58,22,25,4,63,16,24,7,ok,2,0,0.002,8,0.92,-0.94,9.38,50,0.051,8.16
8.5051,-0.09948,0.10297,0.29322,0.00000,0.00000,0.00000,58,23,25,3,64,17,23,11,ok,2,0,0.002,8,0.92,-0.94,9.38,50,0.064,8.16
8.5176,-0.09948,0.10297,0.29322,0.00000,0.00000,0.00000,57,25,26,3,64,18,23,13,ok,2,0,0.002,8,0.92,-0.94,9.38,50,0.076,8.16
8.5402,-0.09948,0.10297,0.29322,0.00000,0.00000,0.00000,57,26,27,2,64,19,25,12,ok,2,0,0.002,8,0.92,-0.94,9.38,50,0.089,8.16
8.5434,-0.09948,0.10297,0.29322,0.00000,0.00000,0.00000,58,25,28,2,64,21,25,12,ok,2,0,0.002,8,0.92,-0.94,9.38,50,0.102,8.16
8.5562,-0.09948,0.10297,0.29322,0.00000,0.00000,0.00000,58,21,29,2,65,22,26,10,ok,2,0,0.002,8,0.92,-0.94,9.38,50,0.115,8.16
8.5762,-0.09948,0.10297,0.29322,0.00000,0.00000,0.00000,60,18,30,1,64,23,27,10,ok,2,0,0.002,8,0.92,-0.94,9.38,50,0.127,8.16
8.5811,-0.09948,0.10297,0.29322,0.00000,0.00000,0.00000,60,13,32,2,64,24,28,11,ok,2,0,0.002,8,0.92,-0.94,9.38,50,0.140,8.16
8.5937,-0.09948,0.10297,0.29322,0.00000,0.00000,0.00000,60,11,33,2,65,25,29,10,ok,2,0,0.002,8,0.92,-0.94,9.38,50,0.152,8.16
8.6162,-0.09948,0.10297,0.29322,0.00000,0.00000,0.00000,60,10,35,2,64,27,31,9,ok,2,0,0.002,8,0.92,-0.94,9.38,50,0.165,8.16
8.6195,-0.09948,0.10297,0.29322,0.00000,0.00000,0.00000,60,7,36,2,64,28,33,9,ok,2,0,0.002,8,0.92,-0.94,9.38,50,0.178,8.16
8.6323,-0.09948,0.10297,0.29322,0.00000,0.00000,0.00000,60,5,38,3,64,30,33,9,ok,2,0,0.002,8,0.92,-0.94,9.38,50,0.191,8.16
8.6522,-0.01920,-0.01047,0.33859,0.00000,0.00000,0.00000,60,2,39,3,65,31,35,9,ok,2,0,0.002,8,-1.79,0.47,9.58,51,0.000,8.16
8.6571,-0.01920,-0.01047,0.33859,0.00000,0.00000,0.00000,59,-1,41,2,65,34,36,9,ok,2,0,0.002,9,-1.79,0.47,9.58,51,0.012,8.16
8.6698,-0.01920,-0.01047,0.33859,0.00000,0.00000,0.00000,58,-3,42,2,65,35,37,9,ok,2,0,0.002,9,-1.79,0.47,9.58,51,0.025,8.16
8.6922,-0.01920,-0.01047,0.33859,0.00000,0.00000,0.00000,58,-3,44,2,65,36,38,8,ok,2,0,0.002,9,-1.79,0.47,9.58,51,0.038,8.16
8.6954,-0.01920,-0.01047,0.33859,0.00000,0.00000,0.00000,56,-4,44,2,66,35,39,8,ok,2,0,0.002,9,-1.79,0.47,9.58,51,0.051,8.16
8.7081,-0.01920,-0.01047,0.33859,0.00000,0.00000,0.00000,56,-5,45,2,68,33,41,7,ok,2,0,0.002,9,-1.79,0.47,9.58,51,0.064,8.16
8.7282,-0.01920,-0.01047,0.33859,0.00000,0.00000,0.00000,56,-7,47,2,70,28,42,7,ok,2,0,0.002,9,-1.79,0.47,9.58,51,0.076,8.16
8.7330,-0.01920,-0.01047,0.33859,0.00000,0.00000,0.00000,54,-8,48,3,71,24,43,7,ok,2,0,0.002,9,-1.79,0.47,9.58,51,0.089,8.16
8.7456,-0.01920,-0.01047,0.33859,0.00000,0.00000,0.00000,54,-9,49,3,73,21,44,7,ok,2,0,0.002,9,-1.79,0.47,9.58,51,0.101,8.16
8.7682,-0.01920,-0.01047,0.33859,0.00000,0.00000,0.00000,52,-9,50,3,74,20,45,7,ok,2,0,0.002,9,-1.79,0.47,9.58,51,0.114,8.16
8.7714,-0.01920,-0.01047,0.33859,0.00000,0.00000,0.00000,52,-10,50,5,74,18,46,7,ok,2,0,0.002,9,-1.79,0.47,9.58,51,0.127,8.16
8.7841,-0.01920,-0.01047,0.33859,0.00000,0.00000,0.00000,50,-10,51,6,74,14,47,8,ok,2,0,0.002,9,-1.79,0.47,9.58,51,0.140,8.16
8.8042,-0.01920,-0.01047,0.33859,0.00000,0.00000,0.00000,48,-11,52,6,73,11,48,8,ok,2,0,0.002,9,-1.79,0.47,9.58,51,0.152,8.16
8.8091,-0.01920,-0.01047,0.33859,0.00000,0.00000,0.00000,48,-10,53,6,73,10,49,8,ok,2,0,0.002,9,-1.79,0.47,9.58,51,0.165,8.16
8.8216,-0.01920,-0.01047,0.33859,0.00000,0.00000,0.00000,46,-11,53,7,72,6,49,9,ok,2,0,0.002,9,-1.79,0.47,9.58,51,0.177,8.16
8.8442,-0.01920,-0.01047,0.33859,0.00000,0.00000,0.00000,44,-11,56,7,72,5,50,8,ok,2,0,0.002,9,-1.79,0.47,9.58,51,0.190,8.16
8.8479,0.01396,-0.01920,0.33336,0.00000,0.00000,0.00000,44,-10,56,7,71,3,51,9,ok,2,0,0.002,9,0.38,0.29,9.93,52,0.000,8.16
8.8601,0.01396,-0.01920,0.33336,0.00000,0.00000,0.00000,42,-8,57,7,69,1,51,8,ok,2,0,0.002,9,0.38,0.29,9.93,52,0.013,8.16
8.8802,0.01396,-0.01920,0.33336,0.00000,0.00000,0.00000,40,-7,57,8,66,1,52,9,ok,2,0,0.002,9,0.38,0.29,9.93,52,0.025,8.16
8.8851,0.01396,-0.01920,0.33336,0.00000,0.00000,0.00000,38,-6,58,8,65,-1,52,9,ok,2,0,0.002,9,0.38,0.29,9.93,52,0.038,8.16
8.8977,0.01396,-0.01920,0.33336,0.00000,0.00000,0.00000,37,-4,59,8,64,-2,54,9,ok,2,0,0.002,9,0.38,0.29,9.93,52,0.050,8.16
8.9202,0.01396,-0.01920,0.33336,0.00000,0.00000,0.00000,35,-1,59,9,62,-4,54,9,ok,2,0,0.002,9,0.38,0.29,9.93,52,0.063,8.16
8.9236,0.01396,-0.01920,0.33336,0.00000,0.00000,0.00000,35,-1,60,10,60,-5,54,8,ok,2,0,0.002,9,0.38,0.29,9.93,52,0.076,8.16
8.9361,0.01396,-0.01920,0.33336,0.00000,0.00000,0.00000,34,0,61,10,58,-6,56,6,ok,2,0,0.002,9,0.38,0.29,9.93,52,0.089,8.16
8.9562,0.01396,-0.01920,0.33336,0.00000,0.00000,0.00000,34,2,61,11,56,-7,57,7,ok,2,0,0.002,9,0.38,0.29,9.93,52,0.101,8.16
8.9610,0.01396,-0.01920,0.33336,0.00000,0.00000,0.00000,32,5,61,11,54,-7,58,8,ok,2,0,0.002,9,0.38,0.29,9.93,52,0.114,8.16
8.9736,0.01396,-0.01920,0.33336,0.00000,0.00000,0.00000,32,9,61,12,51,-7,58,9,ok,2,0,0.002,9,0.38,0.29,9.93,52,0.126,8.16
8.9962,0.01396,-0.01920,0.33336,0.00000,0.00000,0.00000,32,11,62,12,48,-6,59,9,ok,2,0,0.002,9,0.38,0.29,9.93,52,0.139,8.16
8.9995,0.01396,-0.01920,0.33336,0.00000,0.00000,0.00000,32,11,62,13,46,-6,60,10,ok,2,0,0.002,9,0.38,0.29,9.93,52,0.152,8.16
9.0121,0.01396,-0.01920,0.33336,0.00000,0.00000,0.00000,32,11,61,13,43,-5,59,10,ok,2,0,0.002,9,0.38,0.29,9.93,52,0.165,8.16
9.0322,0.01396,-0.01920,0.33336,0.00000,0.00000,0.00000,33,10,62,14,40,-5,60,11,ok,2,0,0.002,9,0.38,0.29,9.93,52,0.177,8.16
9.0372,0.01396,-0.01920,0.33336,0.00000,0.00000,0.00000,34,9,62,14,37,-4,60,12,ok,2,0,0.002,9,0.38,0.29,9.93,52,0.190,8.16
9.0498,0.01396,-0.01920,0.33336,0.00000,0.00000,0.00000,34,8,62,15,35,-3,61,13,ok,2,0,0.002,9,0.38,0.29,9.93,52,0.202,8.16
9.0722,-0.09250,0.01047,0.35081,0.00000,0.00000,0.00000,36,7,63,16,31,-2,61,13,ok,2,0,0.002,9,-0.41,-0.90,8.99,53,0.000,8.16
9.0754,-0.09250,0.01047,0.35081,0.00000,0.00000,0.00000,36,7,63,17,29,-1,62,14,ok,2,0,0.002,9,-0.41,-0.90,8.99,53,0.013,8.16
9.0881,-0.09250,0.01047,0.35081,0.00000,0.00000,0.00000,36,6,64,18,27,1,62,15,ok,2,0,0.002,9,-0.41,-0.90,8.99,53,0.026,8.16
9.1082,-0.09250,0.01047,0.35081,0.00000,0.00000,0.00000,37,5,64,20,25,4,63,15,ok,2,0,0.002,9,-0.41,-0.90,8.99,53,0.038,8.16
9.1131,-0.09250,0.01047,0.35081,0.00000,0.00000,0.00000,38,4,64,21,24,7,63,17,ok,2,0,0.002,9,-0.41,-0.90,8.99,53,0.051,8.16
9.1256,-0.09250,0.01047,0.35081,0.00000,0.00000,0.00000,38,3,64,22,23,10,63,18,ok,2,0,0.002,9,-0.41,-0.90,8.99,53,0.064,8.16
9.1482,-0.09250,0.01047,0.35081,0.00000,0.00000,0.00000,38,3,64,23,22,13,64,18,ok,2,0,0.002,9,-0.41,-0.90,8.99,53,0.076,8.16
9.1514,-0.09250,0.01047,0.35081,0.00000,0.00000,0.00000,39,2,63,26,24,13,64,19,ok,2,0,0.002,9,-0.41,-0.90,8.99,53,0.089,8.16
9.1640,-0.09250,0.01047,0.35081,0.00000,0.00000,0.00000,40,2,63,28,24,13,64,20,ok,2,0,0.002,9,-0.41,-0.90,8.99,53,0.102,8.16
9.1842,-0.09250,0.01047,0.35081,0.00000,0.00000,0.00000,40,1,64,26,25,11,64,21,ok,2,0,0.002,9,-0.41,-0.90,8.99,53,0.114,8.16
9.1891,-0.09250,0.01047,0.35081,0.00000,0.00000,0.00000,40,1,67,23,26,10,65,22,ok,2,0,0.002,9,-0.41,-0.90,8.99,53,0.127,8.16
9.2016,-0.09250,0.01047,0.35081,0.00000,0.00000,0.00000,41,1,69,19,28,10,65,23,ok,2,0,0.002,9,-0.41,-0.90,8.99,53,0.139,8.16
9.2242,-0.09250,0.01047,0.35081,0.00000,0.00000,0.00000,42,1,70,15,29,10,64,24,ok,2,0,0.002,9,-0.41,-0.90,8.99,53,0.152,8.16
9.2276,-0.09250,0.01047,0.35081,0.00000,0.00000,0.00000,42,1,71,12,30,9,64,26,ok,2,0,0.002,9,-0.41,-0.90,8.99,53,0.165,8.16
9.2401,-0.09250,0.01047,0.35081,0.00000,0.00000,0.00000,44,2,70,12,33,9,65,27,ok,2,0,0.002,9,-0.41,-0.90,8.99,53,0.178,8.16
9.2603,-0.09250,0.01047,0.35081,0.00000,0.00000,0.00000,44,2,70,9,33,9,64,29,ok,2,0,0.002,9,-0.41,-0.90,8.99,53,0.190,8.16
9.2654,-0.14486,0.00349,0.39270,0.00000,0.00000,0.00000,45,3,69,6,35,8,64,30,ok,2,0,0.002,9,0.58,-1.46,10.21,54,0.000,8.16
9.2776,-0.14486,0.00349,0.39270,0.00000,0.00000,0.00000,46,3,69,3,36,8,64,32,ok,2,0,0.002,9,0.58,-1.46,10.21,54,0.013,8.16
9.3002,-0.14486,0.00349,0.39270,0.00000,0.00000,0.00000,46,3,67,0,37,8,64,33,ok,2,0,0.002,9,0.58,-1.46,10.21,54,0.025,8.16
9.3035,-0.14486,0.00349,0.39270,0.00000,0.00000,0.00000,47,2,66,-2,39,7,64,35,ok,2,0,0.002,9,0.58,-1.46,10.21,54,0.038,8.16
9.3160,-0.14486,0.00349,0.39270,0.00000,0.00000,0.00000,48,2,64,-3,39,7,63,36,ok,2,0,0.002,9,0.58,-1.46,10.21,54,0.051,8.16
9.3362,-0.14486,0.00349,0.39270,0.00000,0.00000,0.00000,48,2,62,-4,41,6,65,36,ok,2,0,0.002,9,0.58,-1.46,10.21,54,0.063,8.16
9.3410,-0.14486,0.00349,0.39270,0.00000,0.00000,0.00000,48,3,61,-5,42,6,66,35,ok,2,0,0.002,9,0.58,-1.46,10.21,54,0.076,8.16
9.3536,-0.14486,0.00349,0.39270,0.00000,0.00000,0.00000,49,3,60,-7,43,7,67,33,ok,2,0,0.002,9,0.58,-1.46,10.21,54,0.088,8.16
9.3762,-0.14486,0.00349,0.39270,0.00000,0.00000,0.00000,50,3,58,-8,44,7,69,28,ok,2,0,0.002,9,0.58,-1.46,10.21,54,0.101,8.16
9.3795,-0.14486,0.00349,0.39270,0.00000,0.00000,0.00000,50,3,55,-9,45,7,70,24,ok,2,0,0.002,9,0.58,-1.46,10.21,54,0.114,8.16
9.3921,-0.14486,0.00349,0.39270,0.00000,0.00000,0.00000,50,3,53,-9,46,7,72,21,ok,2,0,0.002,9,0.58,-1.46,10.21,54,0.127,8.16
9.4122,-0.14486,0.00349,0.39270,0.00000,0.00000,0.00000,50,5,51,-10,47,7,72,21,ok,2,0,0.002,9,0.58,-1.46,10.21,54,0.140,8.16
9.4172,-0.14486,0.00349,0.39270,0.00000,0.00000,0.00000,51,6,49,-10,47,7,72,19,ok,2,0,0.002,9,0.58,-1.46,10.21,54,0.152,8.16
9.4296,-0.14486,0.00349,0.39270,0.00000,0.00000,0.00000,52,6,46,-10,49,7,72,15,ok,2,0,0.002,9,0.58,-1.46,10.21,54,0.165,8.16
9.4522,-0.14486,0.00349,0.39270,0.00000,0.00000,0.00000,52,6,44,-10,49,7,72,13,ok,2,0,0.002,9,0.58,-1.46,10.21,54,0.177,8.16
9.4557,-0.14486,0.00349,0.39270,0.00000,0.00000,0.00000,52,7,41,-10,50,7,71,11,ok,2,0,0.002,9,0.58,-1.46,10.21,54,0.190,8.16
9.4684,-0.02618,-0.00698,0.40317,0.00000,0.00000,0.00000,54,7,39,-10,51,7,71,8,ok,2,0,0.002,9,-0.52,-0.45,9.10,55,0.000,8.16
9.4882,-0.02618,-0.00698,0.40317,0.00000,0.00000,0.00000,54,7,37,-10,52,7,70,6,ok,2,0,0.002,9,-0.52,-0.45,9.10,55,0.013,8.16
9.4932,-0.02618,-0.00698,0.40317,0.00000,0.00000,0.00000,54,7,33,-9,52,7,69,4,ok,2,0,0.003,9,-0.52,-0.45,9.10,55,0.025,8.16
9.5057,-0.02618,-0.00698,0.40317,0.00000,0.00000,0.00000,54,8,31,-8,53,8,67,2,ok,2,0,0.003,9,-0.52,-0.45,9.10,55,0.038,8.16
9.5283,-0.02618,-0.00698,0.40317,0.00000,0.00000,0.00000,54,9,27,-7,54,8,65,2,ok,2,0,0.003,9,-0.52,-0.45,9.10,55,0.050,8.16
9.5316,-0.02618,-0.00698,0.40317,0.00000,0.00000,0.00000,54,9,24,-5,55,8,64,0,ok,2,0,0.003,9,-0.52,-0.45,9.10,55,0.063,8.16
9.5441,-0.02618,-0.00698,0.40317,0.00000,0.00000,0.00000,55,10,21,-3,56,8,63,-2,ok,2,0,0.003,9,-0.52,-0.45,9.10,55,0.076,8.16
9.5642,-0.02618,-0.00698,0.40317,0.00000,0.00000,0.00000,55,11,19,-1,58,6,61,-3,ok,2,0,0.003,9,-0.52,-0.45,9.10,55,0.088,8.16
9.5691,-0.02618,-0.00698,0.40317,0.00000,0.00000,0.00000,56,10,18,0,58,7,59,-4,ok,2,0,0.003,9,-0.52,-0.45,9.10,55,0.101,8.16
9.5818,-0.02618,-0.00698,0.40317,0.00000,0.00000,0.00000,56,11,16,2,59,8,58,-5,ok,2,0,0.003,9,-0.52,-0.45,9.10,55,0.114,8.16
9.6042,-0.02618,-0.00698,0.40317,0.00000,0.00000,0.00000,56,11,15,6,59,8,55,-5,ok,2,0,0.003,9,-0.52,-0.45,9.10,55,0.126,8.16
9.6074,-0.02618,-0.00698,0.40317,0.00000,0.00000,0.00000,56,12,13,9,60,9,53,-6,ok,2,0,0.003,9,-0.52,-0.45,9.10,55,0.139,8.16
9.6200,-0.02618,-0.00698,0.40317,0.00000,0.00000,0.00000,56,12,13,12,60,9,50,-5,ok,2,0,0.003,9,-0.52,-0.45,9.10,55,0.152,8.16
9.6402,-0.02618,-0.00698,0.40317,0.00000,0.00000,0.00000,56,13,14,12,60,9,47,-5,ok,2,0,0.003,9,-0.52,-0.45,9.10,55,0.164,8.16
9.6451,-0.02618,-0.00698,0.40317,0.00000,0.00000,0.00000,56,13,15,12,61,10,45,-5,ok,2,0,0.003,9,-0.52,-0.45,9.10,55,0.177,8.16
9.6576,-0.02618,-0.00698,0.40317,0.00000,0.00000,0.00000,56,14,17,10,61,11,42,-4,ok,2,0,0.003,9,-0.52,-0.45,9.10,55,0.189,8.16
9.6802,0.03142,0.03142,0.37350,0.00000,0.00000,0.00000,56,15,19,9,61,12,40,-4,ok,2,0,0.003,9,-0.28,0.75,10.25,56,0.000,8.16
9.6835,0.03142,0.03142,0.37350,0.00000,0.00000,0.00000,56,15,19,9,61,13,37,-3,ok,2,0,0.003,10,-0.28,0.75,10.25,56,0.013,8.16
9.6963,0.03142,0.03142,0.37350,0.00000,0.00000,0.00000,56,16,21,8,62,13,34,-3,ok,2,0,0.003,10,-0.28,0.75,10.25,56,0.026,8.16
9.7162,0.03142,0.03142,0.37350,0.00000,0.00000,0.00000,56,17,21,7,62,14,30,-1,ok,2,0,0.003,10,-0.28,0.75,10.25,56,0.039,8.16
9.7211,0.03142,0.03142,0.37350,0.00000,0.00000,0.00000,58,19,23,6,63,14,29,0,ok,2,0,0.003,10,-0.28,0.75,10.25,56,0.051,8.16
9.7337,0.03142,0.03142,0.37350,0.00000,0.00000,0.00000,58,20,24,5,63,15,27,2,ok,2,0,0.003,10,-0.28,0.75,10.25,56,0.064,8.16
9.7562,0.03142,0.03142,0.37350,0.00000,0.00000,0.00000,58,21,24,4,63,16,25,5,ok,2,0,0.003,10,-0.28,0.75,10.25,56,0.076,8.16
9.7594,0.03142,0.03142,0.37350,0.00000,0.00000,0.00000,58,22,25,4,63,17,24,7,ok,2,0,0.003,10,-0.28,0.75,10.25,56,0.089,8.16
9.7721,0.03142,0.03142,0.37350,0.00000,0.00000,0.00000,58,23,26,3,64,17,23,11,ok,2,0,0.003,10,-0.28,0.75,10.25,56,0.102,8.16
9.7922,0.03142,0.03142,0.37350,0.00000,0.00000,0.00000,57,26,27,3,64,19,22,13,ok,2,0,0.003,10,-0.28,0.75,10.25,56,0.115,8.16
9.7970,0.03142,0.03142,0.37350,0.00000,0.00000,0.00000,57,27,28,2,64,20,24,12,ok,2,0,0.003,10,-0.28,0.75,10.25,56,0.127,8.16
9.8096,0.03142,0.03142,0.37350,0.00000,0.00000,0.00000,58,25,29,2,64,21,24,12,ok,2,0,0.003,10,-0.28,0.75,10.25,56,0.140,8.16
9.8322,0.03142,0.03142,0.37350,0.00000,0.00000,0.00000,58,21,30,2,65,22,25,10,ok,2,0,0.003,10,-0.28,0.75,10.25,56,0.152,8.16
9.8354,0.03142,0.03142,0.37350,0.00000,0.00000,0.00000,60,18,31,1,64,23,26,9,ok,2,0,0.003,10,-0.28,0.75,10.25,56,0.165,8.16
9.8481,0.03142,0.03142,0.37350,0.00000,0.00000,0.00000,60,13,33,2,64,25,28,10,ok,2,0,0.003,10,-0.28,0.75,10.25,56,0.178,8.16
9.8682,0.03142,0.03142,0.37350,0.00000,0.00000,0.00000,60,11,34,2,65,26,29,9,ok,2,0,0.003,10,-0.28,0.75,10.25,56,0.191,8.16
9.8734,-0.09599,0.05760,0.38397,0.00000,0.00000,0.00000,60,11,36,2,64,28,30,9,ok,2,0,0.003,10,0.22,-2.09,9.47,57,0.000,8.16
9.8856,-0.09599,0.05760,0.38397,0.00000,0.00000,0.00000,60,7,37,2,64,28,32,9,ok,2,0,0.003,10,0.22,-2.09,9.47,57,0.013,8.16
9.9082,-0.09599,0.05760,0.38397,0.00000,0.00000,0.00000,60,4,39,3,64,30,33,9,ok,2,0,0.003,10,0.22,-2.09,9.47,57,0.025,8.16
9.9116,-0.09599,0.05760,0.38397,0.00000,0.00000,0.00000,60,1,40,3,64,31,35,9,ok,2,0,0.003,10,0.22,-2.09,9.47,57,0.038,8.16
9.9241,-0.09599,0.05760,0.38397,0.00000,0.00000,0.00000,59,-1,41,3,63,33,36,9,ok,2,0,0.003,10,0.22,-2.09,9.47,57,0.051,8.16
9.9483,-0.09599,0.05760,0.38397,0.00000,0.00000,0.00000,58,-3,42,3,63,34,37,9,ok,2,0,0.003,10,0.22,-2.09,9.47,57,0.063,8.16
9.9515,-0.09599,0.05760,0.38397,0.00000,0.00000,0.00000,58,-5,44,3,64,35,38,8,ok,2,0,0.003,10,0.22,-2.09,9.47,57,0.078,8.16
9.9645,-0.09599,0.05760,0.38397,0.00000,0.00000,0.00000,56,-6,44,3,66,35,39,8,ok,2,0,0.003,10,0.22,-2.09,9.47,57,0.091,8.16
9.9842,-0.09599,0.05760,0.38397,0.00000,0.00000,0.00000,56,-7,45,4,68,33,41,7,ok,2,0,0.003,10,0.22,-2.09,9.47,57,0.104,8.16
9.9892,-0.09599,0.05760,0.38397,0.00000,0.00000,0.00000,56,-9,46,3,70,28,42,7,ok,2,0,0.003,10,0.22,-2.09,9.47,57,0.116,8.16
10.0016,-0.09599,0.05760,0.38397,0.00000,0.00000,0.00000,54,-10,48,4,71,24,43,7,ok,2,0,0.003,10,0.22,-2.09,9.47,57,0.129,8.16
10.0242,-0.09599,0.05760,0.38397,0.00000,0.00000,0.00000,53,-10,49,4,73,21,44,7,ok,2,0,0.003,10,0.22,-2.09,9.47,57,0.141,8.16
10.0274,-0.09599,0.05760,0.38397,0.00000,0.00000,0.00000,52,-10,49,4,74,20,45,8,ok,2,0,0.003,10,0.22,-2.09,9.47,57,0.154,8.16
10.0481,-0.09599,0.05760,0.38397,0.00000,0.00000,0.00000,51,-11,49,6,74,18,46,8,ok,2,0,0.003,10,0.22,-2.09,9.47,57,0.167,8.16
10.0602,-0.09599,0.05760,0.38397,0.00000,0.00000,0.00000,50,-11,51,6,74,14,47,8,ok,2,0,0.003,10,0.22,-2.09,9.47,57,0.180,8.16
10.0651,-0.09599,0.05760,0.38397,0.00000,0.00000,0.00000,48,-11,52,6,73,11,48,8,ok,2,0,0.003,10,0.22,-2.09,9.47,57,0.192,8.16
10.0779,0.04887,0.03665,0.37176,0.00000,0.00000,0.00000,47,-10,52,6,73,9,49,8,ok,2,0,0.003,10,-0.64,0.95,8.67,58,0.000,8.16
10.1002,0.04887,0.03665,0.37176,0.00000,0.00000,0.00000,46,-10,53,6,72,7,49,9,ok,2,0,0.003,10,-0.64,0.95,8.67,58,0.013,8.16
10.1035,0.04887,0.03665,0.37176,0.00000,0.00000,0.00000,44,-11,55,6,72,5,49,8,ok,2,0,0.003,10,-0.64,0.95,8.67,58,0.026,8.16
10.1161,0.04887,0.03665,0.37176,0.00000,0.00000,0.00000,43,-9,55,6,71,4,51,9,ok,2,0,0.003,10,-0.64,0.95,8.67,58,0.039,8.16
10.1362,0.04887,0.03665,0.37176,0.00000,0.00000,0.00000,42,-8,57,6,70,1,51,8,ok,2,0,0.003,10,-0.64,0.95,8.67,58,0.051,8.16
10.1413,0.04887,0.03665,0.37176,0.00000,0.00000,0.00000,40,-6,57,7,67,2,52,8,ok,2,0,0.003,10,-0.64,0.95,8.67,58,0.064,8.16
10.1536,0.04887,0.03665,0.37176,0.00000,0.00000,0.00000,38,-5,57,7,65,-1,52,8,ok,2,0,0.003,10,-0.64,0.95,8.67,58,0.076,8.16
10.1762,0.04887,0.03665,0.37176,0.00000,0.00000,0.00000,37,-3,58,7,64,-2,54,9,ok,2,0,0.003,10,-0.64,0.95,8.67,58,0.089,8.16
10.1794,0.04887,0.03665,0.37176,0.00000,0.00000,0.00000,35,-1,59,8,62,-4,55,8,ok,2,0,0.003,10,-0.64,0.95,8.67,58,0.102,8.16
10.1921,0.04887,0.03665,0.37176,0.00000,0.00000,0.00000,34,0,60,10,61,-5,54,8,ok,2,0,0.003,10,-0.64,0.95,8.67,58,0.115,8.16
10.2122,0.04887,0.03665,0.37176,0.00000,0.00000,0.00000,34,0,60,10,59,-6,56,6,ok,2,0,0.003,10,-0.64,0.95,8.67,58,0.127,8.16
10.2171,0.04887,0.03665,0.37176,0.00000,0.00000,0.00000,33,2,61,11,56,-6,57,7,ok,2,0,0.003,10,-0.64,0.95,8.67,58,0.139,8.16
10.2296,0.04887,0.03665,0.37176,0.00000,0.00000,0.00000,32,5,61,11,54,-7,58,8,ok,2,0,0.003,10,-0.64,0.95,8.67,58,0.152,8.16
10.2522,0.04887,0.03665,0.37176,0.00000,0.00000,0.00000,32,8,61,12,51,-6,58,8,ok,2,0,0.003,10,-0.64,0.95,8.67,58,0.165,8.16
10.2555,0.04887,0.03665,0.37176,0.00000,0.00000,0.00000,31,10,61,12,48,-6,59,9,ok,2,0,0.003,10,-0.64,0.95,8.67,58,0.178,8.16
10.2681,0.04887,0.03665,0.37176,0.00000,0.00000,0.00000,32,11,61,13,46,-6,60,10,ok,2,0,0.003,10,-0.64,0.95,8.67,58,0.190,8.16
10.2882,0.03491,0.05236,0.39444,0.00000,0.00000,0.00000,32,10,61,14,43,-5,59,10,ok,2,0,0.003,10,0.11,0.74,8.48,59,0.000,8.16
10.2931,0.03491,0.05236,0.39444,0.00000,0.00000,0.00000,33,9,62,14,40,-5,60,11,ok,2,0,0.003,10,0.11,0.74,8.48,59,0.012,8.16
10.3057,0.03491,0.05236,0.39444,0.00000,0.00000,0.00000,34,9,62,15,37,-4,61,11,ok,2,0,0.003,10,0.11,0.74,8.48,59,0.025,8.16
10.3283,0.03491,0.05236,0.39444,0.00000,0.00000,0.00000,34,8,62,15,35,-3,61,13,ok,2,0,0.003,10,0.11,0.74,8.48,59,0.038,8.16
10.3314,0.03491,0.05236,0.39444,0.00000,0.00000,0.00000,35,7,62,16,31,-2,61,13,ok,2,0,0.003,10,0.11,0.74,8.48,59,0.051,8.16
10.3442,0.03491,0.05236,0.39444,0.00000,0.00000,0.00000,35,7,62,17,30,0,62,14,ok,2,0,0.003,10,0.11,0.74,8.48,59,0.064,8.16
10.3642,0.03491,0.05236,0.39444,0.00000,0.00000,0.00000,36,6,64,18,28,1,62,15,ok,2,0,0.003,10,0.11,0.74,8.48,59,0.076,8.16
10.3691,0.03491,0.05236,0.39444,0.00000,0.00000,0.00000,36,5,64,19,26,4,63,15,ok,2,0,0.003,10,0.11,0.74,8.48,59,0.089,8.16
10.3816,0.03491,0.05236,0.39444,0.00000,0.00000,0.00000,37,4,64,20,24,8,63,16,ok,2,0,0.003,10,0.11,0.74,8.48,59,0.101,8.16
10.4042,0.03491,0.05236,0.39444,0.00000,0.00000,0.00000,38,4,64,22,23,11,63,17,ok,2,0,0.003,10,0.11,0.74,8.48,59,0.114,8.16
10.4074,0.03491,0.05236,0.39444,0.00000,0.00000,0.00000,38,3,64,23,22,14,64,18,ok,2,0,0.003,10,0.11,0.74,8.48,59,0.127,8.16
10.4201,0.03491,0.05236,0.39444,0.00000,0.00000,0.00000,38,3,63,26,24,13,64,19,ok,2,0,0.003,10,0.11,0.74,8.48,59,0.139,8.16
10.4402,0.03491,0.05236,0.39444,0.00000,0.00000,0.00000,39,2,63,27,24,13,64,19,ok,2,0,0.003,10,0.11,0.74,8.48,59,0.152,8.16
10.4451,0.03491,0.05236,0.39444,0.00000,0.00000,0.00000,40,2,64,26,26,11,64,21,ok,2,0,0.003,10,0.11,0.74,8.48,59,0.164,8.16
10.4576,0.03491,0.05236,0.39444,0.00000,0.00000,0.00000,40,1,67,22,27,11,65,21,ok,2,0,0.003,10,0.11,0.74,8.48,59,0.177,8.16
10.4802,0.03491,0.05236,0.39444,0.00000,0.00000,0.00000,41,1,69,19,28,11,65,22,ok,2,0,0.003,10,0.11,0.74,8.48,59,0.189,8.16
10.4836,0.03491,0.05236,0.39444,0.00000,0.00000,0.00000,42,1,70,15,29,10,64,23,ok,2,0,0.003,10,0.11,0.74,8.48,59,0.203,8.16
10.4965,-0.06807,-0.01222,0.35779,0.00000,0.00000,0.00000,42,1,70,12,30,9,64,25,ok,2,0,0.003,10,-0.74,-1.82,10.28,60,0.000,8.16
10.5162,-0.06807,-0.01222,0.35779,0.00000,0.00000,0.00000,44,1,70,12,33,9,66,26,ok,2,0,0.003,10,-0.74,-1.82,10.28,60,0.013,8.16
10.5211,-0.06807,-0.01222,0.35779,0.00000,0.00000,0.00000,44,1,70,9,33,9,65,28,ok,2,0,0.003,10,-0.74,-1.82,10.28,60,0.025,8.16
10.5336,-0.06807,-0.01222,0.35779,0.00000,0.00000,0.00000,45,2,69,6,35,9,64,30,ok,2,0,0.003,10,-0.74,-1.82,10.28,60,0.038,8.16
10.5562,-0.06807,-0.01222,0.35779,0.00000,0.00000,0.00000,46,2,69,3,36,8,65,31,ok,2,0,0.003,10,-0.74,-1.82,10.28,60,0.050,8.16
10.5596,-0.06807,-0.01222,0.35779,0.00000,0.00000,0.00000,46,1,67,1,37,8,64,33,ok,2,0,0.003,10,-0.74,-1.82,10.28,60,0.063,8.16
10.5721,-0.06807,-0.01222,0.35779,0.00000,0.00000,0.00000,47,1,66,-1,38,8,64,34,ok,2,0,0.003,10,-0.74,-1.82,10.28,60,0.076,8.16
10.5922,-0.06807,-0.01222,0.35779,0.00000,0.00000,0.00000,48,2,65,-2,39,8,63,36,ok,2,0,0.003,10,-0.74,-1.82,10.28,60,0.088,8.16
10.5971,-0.06807,-0.01222,0.35779,0.00000,0.00000,0.00000,48,2,63,-4,41,7,64,36,ok,2,0,0.003,10,-0.74,-1.82,10.28,60,0.101,8.16
10.6096,-0.06807,-0.01222,0.35779,0.00000,0.00000,0.00000,48,2,61,-5,42,7,66,35,ok,2,0,0.003,10,-0.74,-1.82,10.28,60,0.113,8.16
10.6322,-0.06807,-0.01222,0.35779,0.00000,0.00000,0.00000,49,2,60,-8,43,7,67,33,ok,2,0,0.003,10,-0.74,-1.82,10.28,60,0.126,8.16
10.6356,-0.06807,-0.01222,0.35779,0.00000,0.00000,0.00000,50,3,58,-8,44,7,69,27,ok,2,0,0.003,10,-0.74,-1.82,10.28,60,0.139,8.16
10.6481,-0.06807,-0.01222,0.35779,0.00000,0.00000,0.00000,50,3,56,-9,44,7,70,24,ok,2,0,0.003,10,-0.74,-1.82,10.28,60,0.152,8.16
10.6682,-0.06807,-0.01222,0.35779,0.00000,0.00000,0.00000,50,3,54,-9,46,7,72,21,ok,2,0,0.003,10,-0.74,-1.82,10.28,60,0.164,8.16
10.6731,-0.06807,-0.01222,0.35779,0.00000,0.00000,0.00000,50,5,51,-10,47,7,72,21,ok,2,0,0.003,10,-0.74,-1.82,10.28,60,0.177,8.16
10.6858,-0.06807,-0.01222,0.35779,0.00000,0.00000,0.00000,51,6,49,-10,47,7,72,18,ok,2,0,0.003,10,-0.74,-1.82,10.28,60,0.189,8.16
10.7082,-0.13265,0.04189,0.44157,0.00000,0.00000,0.00000,52,6,46,-10,48,7,72,15,ok,2,0,0.003,11,-0.29,-1.39,9.75,61,0.000,8.16
10.7115,-0.13265,0.04189,0.44157,0.00000,0.00000,0.00000,52,6,44,-9,49,7,72,12,ok,2,0,0.003,11,-0.29,-1.39,9.75,61,0.013,8.16
10.7242,-0.13265,0.04189,0.44157,0.00000,0.00000,0.00000,52,7,42,-10,49,7,72,11,ok,2,0,0.003,11,-0.29,-1.39,9.75,61,0.026,8.16
10.7442,-0.13265,0.04189,0.44157,0.00000,0.00000,0.00000,54,7,39,-10,50,7,71,7,ok,2,0,0.003,11,-0.29,-1.39,9.75,61,0.039,8.16
10.7494,-0.13265,0.04189,0.44157,0.00000,0.00000,0.00000,54,7,37,-9,51,6,71,6,ok,2,0,0.003,11,-0.29,-1.39,9.75,61,0.051,8.16
10.7616,-0.13265,0.04189,0.44157,0.00000,0.00000,0.00000,54,7,33,-8,52,7,70,4,ok,2,0,0.003,11,-0.29,-1.39,9.75,61,0.064,8.16
10.7842,-0.13265,0.04189,0.44157,0.00000,0.00000,0.00000,54,7,30,-7,53,7,68,2,ok,2,0,0.003,11,-0.29,-1.39,9.75,61,0.076,8.16
10.7874,-0.13265,0.04189,0.44157,0.00000,0.00000,0.00000,54,7,27,-6,54,8,66,2,ok,2,0,0.003,11,-0.29,-1.39,9.75,61,0.089,8.16
10.8001,-0.13265,0.04189,0.44157,0.00000,0.00000,0.00000,54,8,24,-4,55,8,65,0,ok,2,0,0.003,11,-0.29,-1.39,9.75,61,0.102,8.16
10.8202,-0.13265,0.04189,0.44157,0.00000,0.00000,0.00000,55,9,20,-2,56,8,64,-2,ok,2,0,0.003,11,-0.29,-1.39,9.75,61,0.115,8.16
10.8251,-0.13265,0.04189,0.44157,0.00000,0.00000,0.00000,55,9,19,-1,58,6,62,-3,ok,2,0,0.003,11,-0.29,-1.39,9.75,61,0.127,8.16
10.8377,-0.13265,0.04189,0.44157,0.00000,0.00000,0.00000,56,9,18,1,58,7,60,-4,ok,2,0,0.003,11,-0.29,-1.39,9.75,61,0.140,8.16
10.8602,-0.13265,0.04189,0.44157,0.00000,0.00000,0.00000,56,10,16,3,59,8,58,-4,ok,2,0,0.003,11,-0.29,-1.39,9.75,61,0.152,8.16
10.8634,-0.13265,0.04189,0.44157,0.00000,0.00000,0.00000,56,11,14,6,59,8,55,-5,ok,2,0,0.003,11,-0.29,-1.39,9.75,61,0.165,8.16
10.8761,-0.13265,0.04189,0.44157,0.00000,0.00000,0.00000,56,12,13,9,60,9,54,-6,ok,2,0,0.003,11,-0.29,-1.39,9.75,61,0.178,8.16
10.8962,-0.13265,0.04189,0.44157,0.00000,0.00000,0.00000,56,12,12,11,60,9,50,-5,ok,2,0,0.003,11,-0.29,-1.39,9.75,61,0.190,8.16
10.9014,0.02967,0.01745,0.40666,0.00000,0.00000,0.00000,56,13,14,12,60,9,48,-5,ok,2,0,0.003,11,0.20,0.27,9.61,62,0.000,8.16
10.9137,0.02967,0.01745,0.40666,0.00000,0.00000,0.00000,56,14,15,11,61,11,45,-5,ok,2,0,0.003,11,0.20,0.27,9.61,62,0.013,8.16
10.9362,0.02967,0.01745,0.40666,0.00000,0.00000,0.00000,56,14,16,10,62,11,42,-4,ok,2,0,0.003,11,0.20,0.27,9.61,62,0.025,8.16
10.9394,0.02967,0.01745,0.40666,0.00000,0.00000,0.00000,56,15,18,9,62,12,40,-4,ok,2,0,0.003,11,0.20,0.27,9.61,62,0.038,8.16
10.9521,0.02967,0.01745,0.40666,0.00000,0.00000,0.00000,56,16,19,8,62,13,36,-3,ok,2,0,0.003,11,0.20,0.27,9.61,62,0.051,8.16
10.9722,0.02967,0.01745,0.40666,0.00000,0.00000,0.00000,56,17,21,7,62,13,34,-3,ok,2,0,0.003,11,0.20,0.27,9.61,62,0.064,8.16
10.9771,0.02967,0.01745,0.40666,0.00000,0.00000,0.00000,56,19,21,6,62,14,30,-1,ok,2,0,0.003,11,0.20,0.27,9.61,62,0.076,8.16
10.9897,0.02967,0.01745,0.40666,0.00000,0.00000,0.00000,58,20,23,5,63,14,29,0,ok,2,0,0.003,11,0.20,0.27,9.61,62,0.089,8.16
11.0123,0.02967,0.01745,0.40666,0.00000,0.00000,0.00000,58,21,24,4,63,15,27,1,ok,2,0,0.003,11,0.20,0.27,9.61,62,0.101,8.16
11.0154,0.02967,0.01745,0.40666,0.00000,0.00000,0.00000,58,22,24,4,63,16,25,4,ok,2,0,0.003,11,0.20,0.27,9.61,62,0.114,8.16
11.0281,0.02967,0.01745,0.40666,0.00000,0.00000,0.00000,58,23,25,3,63,17,24,7,ok,2,0,0.003,11,0.20,0.27,9.61,62,0.127,8.16
11.0482,0.02967,0.01745,0.40666,0.00000,0.00000,0.00000,58,23,26,3,64,18,23,11,ok,2,0,0.003,11,0.20,0.27,9.61,62,0.140,8.16
11.0532,0.02967,0.01745,0.40666,0.00000,0.00000,0.00000,57,26,27,3,64,19,22,13,ok,2,0,0.003,11,0.20,0.27,9.61,62,0.152,8.16
11.0657,0.02967,0.01745,0.40666,0.00000,0.00000,0.00000,57,26,28,2,64,20,24,12,ok,2,0,0.003,11,0.20,0.27,9.61,62,0.165,8.16
11.0882,0.02967,0.01745,0.40666,0.00000,0.00000,0.00000,58,25,29,2,64,21,24,12,ok,2,0,0.003,11,0.20,0.27,9.61,62,0.177,8.16
11.0917,0.04014,-0.01222,0.34907,0.00000,0.00000,0.00000,58,21,30,2,65,22,25,10,ok,2,0,0.003,11,0.09,0.40,9.54,63,0.000,8.16
11.1042,0.04014,-0.01222,0.34907,0.00000,0.00000,0.00000,60,18,31,1,64,24,26,9,ok,2,0,0.003,11,0.09,0.40,9.54,63,0.013,8.16
11.1242,0.04014,-0.01222,0.34907,0.00000,0.00000,0.00000,60,13,33,2,64,25,27,10,ok,2,0,0.003,11,0.09,0.40,9.54,63,0.025,8.16
11.1291,0.04014,-0.01222,0.34907,0.00000,0.00000,0.00000,60,11,34,2,65,26,29,9,ok,2,0,0.003,11,0.09,0.40,9.54,63,0.038,8.16
11.1416,0.04014,-0.01222,0.34907,0.00000,0.00000,0.00000,60,11,36,2,64,28,30,9,ok,2,0,0.003,11,0.09,0.40,9.54,63,0.050,8.16
11.1642,0.04014,-0.01222,0.34907,0.00000,0.00000,0.00000,60,7,37,2,64,29,32,9,ok,2,0,0.003,11,0.09,0.40,9.54,63,0.063,8.16
11.1675,0.04014,-0.01222,0.34907,0.00000,0.00000,0.00000,60,5,39,3,64,31,33,9,ok,2,0,0.003,11,0.09,0.40,9.54,63,0.076,8.16
11.1801,0.04014,-0.01222,0.34907,0.00000,0.00000,0.00000,60,2,40,3,64,32,34,8,ok,2,0,0.003,11,0.09,0.40,9.54,63,0.089,8.16
11.2002,0.04014,-0.01222,0.34907,0.00000,0.00000,0.00000,59,0,42,2,63,34,36,8,ok,2,0,0.003,11,0.09,0.40,9.54,63,0.101,8.16
11.2051,0.04014,-0.01222,0.34907,0.00000,0.00000,0.00000,58,-2,43,2,63,35,36,8,ok,2,0,0.003,11,0.09,0.40,9.54,63,0.114,8.16
11.2177,0.04014,-0.01222,0.34907,0.00000,0.00000,0.00000,58,-3,44,3,64,36,38,8,ok,2,0,0.003,11,0.09,0.40,9.54,63,0.126,8.16
11.2402,0.04014,-0.01222,0.34907,0.00000,0.00000,0.00000,57,-5,45,3,65,35,39,8,ok,2,0,0.003,11,0.09,0.40,9.54,63,0.139,8.16
11.2434,0.04014,-0.01222,0.34907,0.00000,0.00000,0.00000,56,-6,46,3,67,33,40,7,ok,2,0,0.003,11,0.09,0.40,9.54,63,0.152,8.16
11.2561,0.04014,-0.01222,0.34907,0.00000,0.00000,0.00000,56,-8,47,3,69,29,42,7,ok,2,0,0.003,11,0.09,0.40,9.54,63,0.165,8.16
11.2762,0.04014,-0.01222,0.34907,0.00000,0.00000,0.00000,54,-9,48,4,71,24,43,7,ok,2,0,0.003,11,0.09,0.40,9.54,63,0.177,8.16
11.2811,0.04014,-0.01222,0.34907,0.00000,0.00000,0.00000,54,-10,50,4,72,22,43,7,ok,2,0,0.003,11,0.09,0.40,9.54,63,0.190,8.16
11.2939,-0.04887,0.06981,0.37350,0.00000,0.00000,0.00000,52,-10,50,4,73,21,44,7,ok,2,0,0.003,11,0.04,-0.21,10.76,64,0.000,8.16
11.3162,-0.04887,0.06981,0.37350,0.00000,0.00000,0.00000,51,-11,50,6,73,18,46,7,ok,2,0,0.003,11,0.04,-0.21,10.76,64,0.013,8.16
11.3194,-0.04887,0.06981,0.37350,0.00000,0.00000,0.00000,50,-11,52,7,73,14,47,8,ok,2,0,0.003,11,0.04,-0.21,10.76,64,0.026,8.16
11.3321,-0.04887,0.06981,0.37350,0.00000,0.00000,0.00000,48,-11,52,7,73,11,48,8,ok,2,0,0.003,11,0.04,-0.21,10.76,64,0.038,8.16
11.3522,-0.04887,0.06981,0.37350,0.00000,0.00000,0.00000,48,-11,53,7,72,9,49,8,ok,2,0,0.003,11,0.04,-0.21,10.76,64,0.051,8.16
11.3571,-0.04887,0.06981,0.37350,0.00000,0.00000,0.00000,46,-11,53,8,71,6,49,9,ok,2,0,0.003,11,0.04,-0.21,10.76,64,0.063,8.16
11.3697,-0.04887,0.06981,0.37350,0.00000,0.00000,0.00000,44,-12,55,8,71,5,50,8,ok,2,0,0.003,11,0.04,-0.21,10.76,64,0.076,8.16
11.3922,-0.04887,0.06981,0.37350,0.00000,0.00000,0.00000,43,-11,55,8,71,3,51,9,ok,2,0,0.003,11,0.04,-0.21,10.76,64,0.088,8.16
11.3954,-0.04887,0.06981,0.37350,0.00000,0.00000,0.00000,42,-10,56,8,69,1,52,8,ok,2,0,0.003,11,0.04,-0.21,10.76,64,0.102,8.16
11.4082,-0.04887,0.06981,0.37350,0.00000,0.00000,0.00000,40,-8,57,8,66,1,52,9,ok,2,0,0.003,11,0.04,-0.21,10.76,64,0.115,8.16
11.4282,-0.04887,0.06981,0.37350,0.00000,0.00000,0.00000,38,-7,57,8,65,-1,53,9,ok,2,0,0.003,11,0.04,-0.21,10.76,64,0.127,8.16
11.4331,-0.04887,0.06981,0.37350,0.00000,0.00000,0.00000,36,-5,58,9,64,-3,54,9,ok,2,0,0.003,11,0.04,-0.21,10.76,64,0.139,8.16
11.4456,-0.04887,0.06981,0.37350,0.00000,0.00000,0.00000,35,-2,59,9,62,-4,55,9,ok,2,0,0.003,11,0.04,-0.21,10.76,64,0.152,8.16
11.4682,-0.04887,0.06981,0.37350,0.00000,0.00000,0.00000,34,-2,60,11,61,-5,55,8,ok,2,0,0.003,11,0.04,-0.21,10.76,64,0.165,8.16
11.4714,-0.04887,0.06981,0.37350,0.00000,0.00000,0.00000,34,-1,60,10,59,-6,57,6,ok,2,0,0.003,11,0.04,-0.21,10.76,64,0.178,8.16
11.4841,-0.04887,0.06981,0.37350,0.00000,0.00000,0.00000,33,2,60,11,56,-7,57,7,ok,2,0,0.003,11,0.04,-0.21,10.76,64,0.190,8.16
11.5042,0.04014,-0.00349,0.38397,0.00000,0.00000,0.00000,32,5,60,11,54,-7,58,8,ok,2,0,0.003,11,1.26,0.06,11.23,65,0.000,8.16
11.5091,0.04014,-0.00349,0.38397,0.00000,0.00000,0.00000,32,8,60,12,51,-6,59,8,ok,2,0,0.003,11,1.26,0.06,11.23,65,0.012,8.16
11.5216,0.04014,-0.00349,0.38397,0.00000,0.00000,0.00000,31,11,61,11,49,-5,59,9,ok,2,0,0.003,11,1.26,0.06,11.23,65,0.025,8.16
11.5442,0.04014,-0.00349,0.38397,0.00000,0.00000,0.00000,32,11,61,12,46,-5,60,10,ok,2,0,0.003,11,1.26,0.06,11.23,65,0.037,8.16
11.5474,0.04014,-0.00349,0.38397,0.00000,0.00000,0.00000,32,11,61,13,43,-5,60,10,ok,2,0,0.003,11,1.26,0.06,11.23,65,0.051,8.16
11.5601,0.04014,-0.00349,0.38397,0.00000,0.00000,0.00000,33,10,62,13,41,-4,60,11,ok,2,0,0.003,11,1.26,0.06,11.23,65,0.064,8.16
11.5802,0.04014,-0.00349,0.38397,0.00000,0.00000,0.00000,34,10,62,14,38,-4,61,12,ok,2,0,0.003,11,1.26,0.06,11.23,65,0.076,8.16
11.5852,0.04014,-0.00349,0.38397,0.00000,0.00000,0.00000,34,9,62,14,35,-3,61,13,ok,2,0,0.003,11,1.26,0.06,11.23,65,0.088,8.16
11.5976,0.04014,-0.00349,0.38397,0.00000,0.00000,0.00000,35,8,63,15,32,-2,61,13,ok,2,0,0.003,11,1.26,0.06,11.23,65,0.101,8.16
11.6202,0.04014,-0.00349,0.38397,0.00000,0.00000,0.00000,36,8,63,16,30,0,62,14,ok,2,0,0.003,11,1.26,0.06,11.23,65,0.114,8.16
11.6234,0.04014,-0.00349,0.38397,0.00000,0.00000,0.00000,36,7,64,17,28,1,62,14,ok,2,0,0.003,11,1.26,0.06,11.23,65,0.127,8.16
11.6361,0.04014,-0.00349,0.38397,0.00000,0.00000,0.00000,37,5,64,19,26,5,63,15,ok,2,0,0.003,11,1.26,0.06,11.23,65,0.139,8.16
11.6562,0.04014,-0.00349,0.38397,0.00000,0.00000,0.00000,38,5,64,20,24,8,63,16,ok,2,0,0.003,11,1.26,0.06,11.23,65,0.152,8.16
11.6611,0.04014,-0.00349,0.38397,0.00000,0.00000,0.00000,38,4,64,21,23,11,63,17,ok,2,0,0.003,11,1.26,0.06,11.23,65,0.164,8.16
11.6737,0.04014,-0.00349,0.38397,0.00000,0.00000,0.00000,38,4,64,23,22,14,64,18,ok,2,0,0.003,11,1.26,0.06,11.23,65,0.177,8.16
11.6962,0.04014,-0.00349,0.38397,0.00000,0.00000,0.00000,39,3,63,25,24,13,64,19,ok,2,0,0.003,11,1.26,0.06,11.23,65,0.189,8.16
11.6997,-0.02443,0.03316,0.32114,0.00000,0.00000,0.00000,40,2,63,27,24,14,64,19,ok,2,0,0.003,11,0.74,1.13,8.40,66,0.000,8.16
11.7121,-0.02443,0.03316,0.32114,0.00000,0.00000,0.00000,40,2,65,26,25,11,64,21,ok,2,0,0.003,12,0.74,1.13,8.40,66,0.013,8.16
11.7323,-0.02443,0.03316,0.32114,0.00000,0.00000,0.00000,40,1,67,23,26,10,65,21,ok,2,0,0.003,12,0.74,1.13,8.40,66,0.025,8.16
11.7371,-0.02443,0.03316,0.32114,0.00000,0.00000,0.00000,41,1,70,19,27,10,65,22,ok,2,0,0.003,12,0.74,1.13,8.40,66,0.038,8.16
11.7498,-0.02443,0.03316,0.32114,0.00000,0.00000,0.00000,42,1,70,15,29,10,64,24,ok,2,0,0.003,12,0.74,1.13,8.40,66,0.050,8.16
11.7722,-0.02443,0.03316,0.32114,0.00000,0.00000,0.00000,42,1,71,13,30,9,64,26,ok,2,0,0.003,12,0.74,1.13,8.40,66,0.063,8.16
11.7754,-0.02443,0.03316,0.32114,0.00000,0.00000,0.00000,44,1,70,12,32,9,65,26,ok,2,0,0.003,12,0.74,1.13,8.40,66,0.076,8.16
11.7881,-0.02443,0.03316,0.32114,0.00000,0.00000,0.00000,44,1,70,9,33,9,64,29,ok,2,0,0.003,12,0.74,1.13,8.40,66,0.089,8.16
11.8082,-0.02443,0.03316,0.32114,0.00000,0.00000,0.00000,45,2,69,6,35,9,64,30,ok,2,0,0.003,12,0.74,1.13,8.40,66,0.101,8.16
11.8132,-0.02443,0.03316,0.32114,0.00000,0.00000,0.00000,46,2,69,3,36,8,64,31,ok,2,0,0.003,12,0.74,1.13,8.40,66,0.114,8.16
11.8257,-0.02443,0.03316,0.32114,0.00000,0.00000,0.00000,46,2,67,1,37,9,64,33,ok,2,0,0.003,12,0.74,1.13,8.40,66,0.126,8.16
11.8482,-0.02443,0.03316,0.32114,0.00000,0.00000,0.00000,46,2,66,-2,39,8,64,34,ok,2,0,0.003,12,0.74,1.13,8.40,66,0.139,8.16
11.8514,-0.02443,0.03316,0.32114,0.00000,0.00000,0.00000,48,2,64,-3,40,8,63,36,ok,2,0,0.003,12,0.74,1.13,8.40,66,0.152,8.16
11.8642,-0.02443,0.03316,0.32114,0.00000,0.00000,0.00000,48,2,62,-4,41,7,64,36,ok,2,0,0.003,12,0.74,1.13,8.40,66,0.165,8.16
11.8842,-0.02443,0.03316,0.32114,0.00000,0.00000,0.00000,48,3,61,-6,42,7,66,35,ok,2,0,0.003,12,0.74,1.13,8.40,66,0.177,8.16
11.8893,-0.02443,0.03316,0.32114,0.00000,0.00000,0.00000,48,3,60,-8,43,7,67,32,ok,2,0,0.003,12,0.74,1.13,8.40,66,0.190,8.16
11.9019,-0.13439,0.04014,0.32812,0.00000,0.00000,0.00000,50,3,58,-8,44,7,69,27,ok,2,0,0.003,12,0.85,-1.44,10.44,67,0.000,8.16
11.9242,-0.13439,0.04014,0.32812,0.00000,0.00000,0.00000,50,3,55,-9,45,7,71,24,ok,2,0,0.003,12,0.85,-1.44,10.44,67,0.013,8.16
11.9274,-0.13439,0.04014,0.32812,0.00000,0.00000,0.00000,50,3,53,-9,46,7,73,21,ok,2,0,0.003,12,0.85,-1.44,10.44,67,0.026,8.16
11.9401,-0.13439,0.04014,0.32812,0.00000,0.00000,0.00000,50,4,51,-10,47,7,73,21,ok,2,0,0.003,12,0.85,-1.44,10.44,67,0.038,8.16
11.9602,-0.13439,0.04014,0.32812,0.00000,0.00000,0.00000,51,5,49,-10,47,7,73,18,ok,2,0,0.003,12,0.85,-1.44,10.44,67,0.051,8.16
11.9653,-0.13439,0.04014,0.32812,0.00000,0.00000,0.00000,52,4,46,-10,48,7,73,15,ok,2,0,0.003,12,0.85,-1.44,10.44,67,0.063,8.16
11.9775,-0.13439,0.04014,0.32812,0.00000,0.00000,0.00000,52,5,44,-9,49,7,72,12,ok,2,0,0.003,12,0.85,-1.44,10.44,67,0.076,8.16
12.0002,-0.13439,0.04014,0.32812,0.00000,0.00000,0.00000,52,6,41,-9,50,7,72,11,ok,2,0,0.003,12,0.85,-1.44,10.44,67,0.088,8.16
12.0035,-0.13439,0.04014,0.32812,0.00000,0.00000,0.00000,53,6,39,-10,51,7,71,7,ok,2,0,0.003,12,0.85,-1.44,10.44,67,0.102,8.16
12.0161,-0.13439,0.04014,0.32812,0.00000,0.00000,0.00000,53,6,36,-9,52,6,71,6,ok,2,0,0.003,12,0.85,-1.44,10.44,67,0.115,8.16
12.0362,-0.13439,0.04014,0.32812,0.00000,0.00000,0.00000,54,6,33,-8,52,7,70,4,ok,2,0,0.003,12,0.85,-1.44,10.44,67,0.127,8.16
12.0411,-0.13439,0.04014,0.32812,0.00000,0.00000,0.00000,54,8,30,-7,53,7,68,2,ok,2,0,0.003,12,0.85,-1.44,10.44,67,0.139,8.16
12.0536,-0.13439,0.04014,0.32812,0.00000,0.00000,0.00000,54,8,27,-6,54,8,66,2,ok,2,0,0.003,12,0.85,-1.44,10.44,67,0.152,8.16
12.0762,-0.13439,0.04014,0.32812,0.00000,0.00000,0.00000,54,9,24,-5,55,8,65,0,ok,2,0,0.003,12,0.85,-1.44,10.44,67,0.165,8.16
12.0794,-0.13439,0.04014,0.32812,0.00000,0.00000,0.00000,55,10,20,-2,56,8,64,-2,ok,2,0,0.003,12,0.85,-1.44,10.44,67,0.178,8.16
12.0921,-0.13439,0.04014,0.32812,0.00000,0.00000,0.00000,55,10,18,-1,58,6,62,-3,ok,2,0,0.003,12,0.85,-1.44,10.44,67,0.190,8.16
12.1122,-0.03840,0.00698,0.30369,0.00000,0.00000,0.00000,56,10,18,0,58,7,60,-4,ok,2,0,0.003,12,0.43,0.04,10.39,68,0.000,8.16
12.1173,-0.03840,0.00698,0.30369,0.00000,0.00000,0.00000,56,11,16,2,59,8,58,-5,ok,2,0,0.003,12,0.43,0.04,10.39,68,0.012,8.16
12.1295,-0.03840,0.00698,0.30369,0.00000,0.00000,0.00000,56,11,14,5,60,9,55,-5,ok,2,0,0.003,12,0.43,0.04,10.39,68,0.025,8.16
12.1522,-0.03840,0.00698,0.30369,0.00000,0.00000,0.00000,56,12,13,9,60,9,53,-6,ok,2,0,0.003,12,0.43,0.04,10.39,68,0.038,8.16
12.1554,-0.03840,0.00698,0.30369,0.00000,0.00000,0.00000,56,13,12,11,61,9,50,-5,ok,2,0,0.003,12,0.43,0.04,10.39,68,0.051,8.16
12.1683,-0.03840,0.00698,0.30369,0.00000,0.00000,0.00000,56,14,14,11,61,10,48,-5,ok,2,0,0.003,12,0.43,0.04,10.39,68,0.064,8.16
12.1882,-0.03840,0.00698,0.30369,0.00000,0.00000,0.00000,56,14,15,11,61,11,45,-5,ok,2,0,0.003,12,0.43,0.04,10.39,68,0.076,8.16
12.1931,-0.03840,0.00698,0.30369,0.00000,0.00000,0.00000,56,15,17,9,61,11,42,-4,ok,2,0,0.003,12,0.43,0.04,10.39,68,0.089,8.16
12.2055,-0.03840,0.00698,0.30369,0.00000,0.00000,0.00000,56,16,19,8,61,12,40,-4,ok,2,0,0.003,12,0.43,0.04,10.39,68,0.101,8.16
12.2282,-0.03840,0.00698,0.30369,0.00000,0.00000,0.00000,56,16,19,8,61,12,37,-3,ok,2,0,0.003,12,0.43,0.04,10.39,68,0.114,8.16
12.2314,-0.03840,0.00698,0.30369,0.00000,0.00000,0.00000,57,17,21,7,62,13,35,-3,ok,2,0,0.003,12,0.43,0.04,10.39,68,0.127,8.16
12.2441,-0.03840,0.00698,0.30369,0.00000,0.00000,0.00000,57,18,21,7,62,14,31,-1,ok,2,0,0.003,12,0.43,0.04,10.39,68,0.140,8.16
12.2642,-0.03840,0.00698,0.30369,0.00000,0.00000,0.00000,58,19,23,6,63,14,30,0,ok,2,0,0.003,12,0.43,0.04,10.39,68,0.152,8.16
12.2691,-0.03840,0.00698,0.30369,0.00000,0.00000,0.00000,58,20,24,5,63,15,27,2,ok,2,0,0.003,12,0.43,0.04,10.39,68,0.165,8.16
