# run_gait log  cmd_fwd=0.100 hz=80.0 fw_balance=off policy_yaw_sign=-1
t,roll,pitch,yaw,gx,gy,gz,j0,j1,j2,j3,j4,j5,j6,j7,guard_state,hottest_j,hottest_tier,hottest_frac,duty_s,ax,ay,az,imu_n,imu_age_s,volt
0.0406,-0.03316,0.00524,0.00000,0.00000,0.00000,0.00000,36,0,57,10,60,-3,54,8,ok,3,0,0.000,0,0.08,-0.35,9.99,8,0.028,nan
0.0459,-0.03316,0.00524,0.00000,0.00000,0.00000,0.00000,35,1,59,10,59,-4,56,6,ok,2,0,0.000,0,0.08,-0.35,9.99,8,0.054,nan
0.0589,-0.03316,0.00524,0.00000,0.00000,0.00000,0.00000,34,4,59,11,56,-5,56,8,ok,4,0,0.000,0,0.08,-0.35,9.99,8,0.067,8.20
0.0804,-0.03316,0.00524,0.00000,0.00000,0.00000,0.00000,33,6,60,12,55,-6,57,8,ok,4,0,0.000,0,0.08,-0.35,9.99,8,0.079,8.20
0.0845,-0.03316,0.00524,0.00000,0.00000,0.00000,0.00000,32,10,59,13,52,-5,57,9,ok,4,0,0.000,0,0.08,-0.35,9.99,8,0.094,8.20
0.0970,-0.03316,0.00524,0.00000,0.00000,0.00000,0.00000,31,12,60,13,50,-5,58,10,ok,4,0,0.000,0,0.08,-0.35,9.99,8,0.106,8.20
0.1204,-0.03316,0.00524,0.00000,0.00000,0.00000,0.00000,32,13,60,14,47,-5,59,11,ok,4,0,0.000,0,0.08,-0.35,9.99,8,0.119,8.20
0.1250,-0.03316,-0.00873,-0.00349,0.00000,0.00000,0.00000,32,13,60,15,44,-4,59,11,ok,4,0,0.000,0,-2.29,0.46,10.26,9,0.000,8.20
0.1370,-0.03316,-0.00873,-0.00349,0.00000,0.00000,0.00000,33,12,61,15,42,-4,60,12,ok,4,0,0.000,0,-2.29,0.46,10.26,9,0.013,8.20
0.1604,-0.03316,-0.00873,-0.00349,0.00000,0.00000,0.00000,34,11,61,16,39,-3,60,12,ok,4,0,0.000,0,-2.29,0.46,10.26,9,0.025,8.20
0.1643,-0.03316,-0.00873,-0.00349,0.00000,0.00000,0.00000,34,11,61,17,36,-2,61,13,ok,4,0,0.000,0,-2.29,0.46,10.26,9,0.040,8.20
0.1764,-0.03316,-0.00873,-0.00349,0.00000,0.00000,0.00000,34,9,61,18,32,-1,61,14,ok,4,0,0.000,0,-2.29,0.46,10.26,9,0.053,8.20
0.1963,-0.03316,-0.00873,-0.00349,0.00000,0.00000,0.00000,35,9,61,19,30,0,62,15,ok,4,0,0.000,0,-2.29,0.46,10.26,9,0.065,8.20
0.2014,-0.03316,-0.00873,-0.00349,0.00000,0.00000,0.00000,36,8,62,20,27,2,62,16,ok,4,0,0.000,0,-2.29,0.46,10.26,9,0.078,8.20
0.2139,-0.03316,-0.00873,-0.00349,0.00000,0.00000,0.00000,36,7,63,21,25,5,63,16,ok,4,0,0.000,0,-2.29,0.46,10.26,9,0.090,8.20
0.2364,-0.03316,-0.00873,-0.00349,0.00000,0.00000,0.00000,37,7,62,21,23,8,63,17,ok,4,0,0.000,0,-2.29,0.46,10.26,9,0.103,8.20
0.2397,-0.03316,-0.00873,-0.00349,0.00000,0.00000,0.00000,38,6,62,23,22,11,63,18,ok,4,0,0.000,0,-2.29,0.46,10.26,9,0.116,8.20
0.2526,-0.03316,-0.00873,-0.00349,0.00000,0.00000,0.00000,38,6,62,23,21,14,64,18,ok,4,0,0.000,0,-2.29,0.46,10.26,9,0.129,8.20
0.2724,-0.03316,-0.00873,-0.00349,0.00000,0.00000,0.00000,39,6,61,26,23,13,65,19,ok,4,0,0.000,0,-2.29,0.46,10.26,9,0.141,8.20
0.2772,-0.03316,-0.00873,-0.00349,0.00000,0.00000,0.00000,39,5,62,28,23,14,65,20,ok,4,0,0.000,0,-2.29,0.46,10.26,9,0.154,8.20
0.2898,-0.03316,-0.00873,-0.00349,0.00000,0.00000,0.00000,40,4,63,26,24,12,65,21,ok,4,0,0.000,0,-2.29,0.46,10.26,9,0.166,8.20
0.3124,-0.03316,-0.00873,-0.00349,0.00000,0.00000,0.00000,40,4,66,23,25,11,66,23,ok,4,0,0.000,0,-2.29,0.46,10.26,9,0.179,8.20
0.3158,-0.03316,-0.00873,-0.00349,0.00000,0.00000,0.00000,41,3,68,20,26,11,66,24,ok,4,0,0.000,0,-2.29,0.46,10.26,9,0.192,8.20
0.3285,-0.11345,-0.01222,0.03665,0.00000,0.00000,0.00000,42,3,70,16,27,11,65,25,ok,4,0,0.000,0,-0.23,-1.82,8.97,10,0.000,8.20
0.3483,-0.11345,-0.01222,0.03665,0.00000,0.00000,0.00000,42,3,70,14,28,9,65,27,ok,4,0,0.000,0,-0.23,-1.82,8.97,10,0.013,8.20
0.3532,-0.11345,-0.01222,0.03665,0.00000,0.00000,0.00000,44,2,71,14,30,9,66,28,ok,4,0,0.000,0,-0.23,-1.82,8.97,10,0.025,8.20
0.3659,-0.11345,-0.01222,0.03665,0.00000,0.00000,0.00000,44,2,70,10,31,9,65,30,ok,4,0,0.000,0,-0.23,-1.82,8.97,10,0.038,8.20
0.3884,-0.11345,-0.01222,0.03665,0.00000,0.00000,0.00000,45,3,70,7,32,10,65,31,ok,4,0,0.000,0,-0.23,-1.82,8.97,10,0.050,8.20
0.3915,-0.11345,-0.01222,0.03665,0.00000,0.00000,0.00000,46,2,69,5,34,9,66,32,ok,4,0,0.000,0,-0.23,-1.82,8.97,10,0.063,8.20
0.4041,-0.11345,-0.01222,0.03665,0.00000,0.00000,0.00000,46,2,68,2,35,9,65,34,ok,4,0,0.000,0,-0.23,-1.82,8.97,10,0.076,8.20
0.4243,-0.11345,-0.01222,0.03665,0.00000,0.00000,0.00000,46,2,67,0,37,8,65,35,ok,4,0,0.000,0,-0.23,-1.82,8.97,10,0.088,8.20
0.4291,-0.11345,-0.01222,0.03665,0.00000,0.00000,0.00000,48,2,66,-1,38,8,64,36,ok,4,0,0.000,0,-0.23,-1.82,8.97,10,0.101,8.20
0.4417,-0.11345,-0.01222,0.03665,0.00000,0.00000,0.00000,48,2,64,-3,40,7,65,36,ok,4,0,0.000,0,-0.23,-1.82,8.97,10,0.113,8.20
0.4644,-0.11345,-0.01222,0.03665,0.00000,0.00000,0.00000,48,3,62,-5,42,7,66,35,ok,4,0,0.000,0,-0.23,-1.82,8.97,10,0.126,8.20
0.4675,-0.11345,-0.01222,0.03665,0.00000,0.00000,0.00000,49,3,61,-7,43,7,68,32,ok,4,0,0.000,0,-0.23,-1.82,8.97,10,0.139,8.20
0.4802,-0.11345,-0.01222,0.03665,0.00000,0.00000,0.00000,50,5,59,-8,44,6,70,27,ok,4,0,0.000,0,-0.23,-1.82,8.97,10,0.152,8.20
0.5003,-0.11345,-0.01222,0.03665,0.00000,0.00000,0.00000,50,4,56,-9,44,6,71,23,ok,4,0,0.000,0,-0.23,-1.82,8.97,10,0.164,8.20
0.5051,-0.11345,-0.01222,0.03665,0.00000,0.00000,0.00000,51,4,54,-10,46,6,73,20,ok,4,0,0.000,0,-0.23,-1.82,8.97,10,0.177,8.20
0.5178,-0.11345,-0.01222,0.03665,0.00000,0.00000,0.00000,51,6,52,-11,47,6,73,20,ok,4,0,0.000,0,-0.23,-1.82,8.97,10,0.189,8.20
0.5404,-0.06981,0.00698,0.08203,0.00000,0.00000,0.00000,52,6,50,-10,48,7,73,17,ok,4,0,0.000,1,-1.00,-0.62,9.50,11,0.000,8.20
0.5437,-0.06981,0.00698,0.08203,0.00000,0.00000,0.00000,52,6,47,-10,49,7,73,14,ok,4,0,0.000,1,-1.00,-0.62,9.50,11,0.013,8.20
0.5561,-0.06981,0.00698,0.08203,0.00000,0.00000,0.00000,52,6,45,-10,50,7,72,11,ok,4,0,0.000,1,-1.00,-0.62,9.50,11,0.026,8.20
0.5765,-0.06981,0.00698,0.08203,0.00000,0.00000,0.00000,52,7,42,-10,51,7,72,10,ok,4,0,0.000,1,-1.00,-0.62,9.50,11,0.039,8.20
0.5813,-0.06981,0.00698,0.08203,0.00000,0.00000,0.00000,54,7,40,-11,52,7,71,6,ok,4,0,0.000,1,-1.00,-0.62,9.50,11,0.051,8.20
0.5937,-0.06981,0.00698,0.08203,0.00000,0.00000,0.00000,54,7,37,-10,53,6,71,4,ok,4,0,0.000,1,-1.00,-0.62,9.50,11,0.064,8.20
0.6164,-0.06981,0.00698,0.08203,0.00000,0.00000,0.00000,54,7,34,-9,53,7,70,3,ok,4,0,0.000,1,-1.00,-0.62,9.50,11,0.076,8.20
0.6196,-0.06981,0.00698,0.08203,0.00000,0.00000,0.00000,54,8,31,-8,53,7,68,1,ok,4,0,0.000,1,-1.00,-0.62,9.50,11,0.089,8.20
0.6321,-0.06981,0.00698,0.08203,0.00000,0.00000,0.00000,54,8,27,-7,54,8,66,0,ok,4,0,0.000,1,-1.00,-0.62,9.50,11,0.102,8.20
0.6523,-0.06981,0.00698,0.08203,0.00000,0.00000,0.00000,55,9,24,-5,55,8,65,-2,ok,2,0,0.000,1,-1.00,-0.62,9.50,11,0.115,8.20
0.6572,-0.06981,0.00698,0.08203,0.00000,0.00000,0.00000,56,10,20,-2,56,8,64,-3,ok,2,0,0.000,1,-1.00,-0.62,9.50,11,0.127,8.20
0.6697,-0.06981,0.00698,0.08203,0.00000,0.00000,0.00000,56,10,19,-1,58,6,62,-5,ok,2,0,0.000,1,-1.00,-0.62,9.50,11,0.140,8.20
0.6923,-0.06981,0.00698,0.08203,0.00000,0.00000,0.00000,56,10,18,1,58,8,60,-5,ok,2,0,0.000,1,-1.00,-0.62,9.50,11,0.152,8.20
0.6955,-0.06981,0.00698,0.08203,0.00000,0.00000,0.00000,56,10,16,3,59,9,58,-6,ok,2,0,0.000,1,-1.00,-0.62,9.50,11,0.165,8.20
0.7080,-0.06981,0.00698,0.08203,0.00000,0.00000,0.00000,56,10,14,6,59,9,55,-6,ok,2,0,0.000,1,-1.00,-0.62,9.50,11,0.178,8.20
0.7284,-0.06981,0.00698,0.08203,0.00000,0.00000,0.00000,56,12,13,10,60,10,54,-7,ok,2,0,0.000,1,-1.00,-0.62,9.50,11,0.190,8.20
0.7335,-0.02094,0.01222,0.07505,0.00000,0.00000,0.00000,56,12,12,12,60,10,50,-6,ok,2,0,0.000,1,0.07,-0.26,9.65,12,0.000,8.20
0.7457,-0.02094,0.01222,0.07505,0.00000,0.00000,0.00000,56,13,14,12,60,10,48,-6,ok,2,0,0.000,1,0.07,-0.26,9.65,12,0.013,8.20
0.7684,-0.02094,0.01222,0.07505,0.00000,0.00000,0.00000,56,13,15,11,61,11,46,-6,ok,2,0,0.000,1,0.07,-0.26,9.65,12,0.025,8.20
0.7716,-0.02094,0.01222,0.07505,0.00000,0.00000,0.00000,56,14,16,10,61,11,42,-5,ok,2,0,0.000,1,0.07,-0.26,9.65,12,0.038,8.20
0.7843,-0.02094,0.01222,0.07505,0.00000,0.00000,0.00000,56,15,19,9,61,12,40,-5,ok,2,0,0.000,1,0.07,-0.26,9.65,12,0.051,8.20
0.8044,-0.02094,0.01222,0.07505,0.00000,0.00000,0.00000,56,16,19,8,61,13,37,-3,ok,2,0,0.000,1,0.07,-0.26,9.65,12,0.064,8.20
0.8092,-0.02094,0.01222,0.07505,0.00000,0.00000,0.00000,57,16,21,7,62,13,35,-3,ok,2,0,0.000,1,0.07,-0.26,9.65,12,0.076,8.20
0.8217,-0.02094,0.01222,0.07505,0.00000,0.00000,0.00000,57,18,21,7,62,14,31,-1,ok,2,0,0.000,1,0.07,-0.26,9.65,12,0.089,8.20
0.8444,-0.02094,0.01222,0.07505,0.00000,0.00000,0.00000,58,19,23,6,63,14,30,0,ok,2,0,0.000,1,0.07,-0.26,9.65,12,0.101,8.20
0.8475,-0.02094,0.01222,0.07505,0.00000,0.00000,0.00000,58,20,24,5,63,15,27,1,ok,2,0,0.000,1,0.07,-0.26,9.65,12,0.114,8.20
0.8604,-0.02094,0.01222,0.07505,0.00000,0.00000,0.00000,58,21,24,4,63,16,25,4,ok,2,0,0.000,1,0.07,-0.26,9.65,12,0.127,8.20
0.8803,-0.02094,0.01222,0.07505,0.00000,0.00000,0.00000,58,22,25,4,63,17,24,7,ok,2,0,0.000,1,0.07,-0.26,9.65,12,0.140,8.20
0.8851,-0.02094,0.01222,0.07505,0.00000,0.00000,0.00000,58,23,26,3,64,17,23,11,ok,2,0,0.000,1,0.07,-0.26,9.65,12,0.152,8.20
0.8977,-0.02094,0.01222,0.07505,0.00000,0.00000,0.00000,57,26,27,2,64,19,22,13,ok,2,0,0.000,1,0.07,-0.26,9.65,12,0.165,8.20
0.9204,-0.02094,0.01222,0.07505,0.00000,0.00000,0.00000,57,26,28,2,64,20,24,12,ok,2,0,0.000,1,0.07,-0.26,9.65,12,0.177,8.20
0.9236,-0.02094,0.01222,0.07505,0.00000,0.00000,0.00000,58,25,29,2,64,21,25,11,ok,2,0,0.000,1,0.07,-0.26,9.65,12,0.190,8.20
0.9365,-0.04363,0.06632,0.13090,0.00000,0.00000,0.00000,59,21,30,2,65,22,26,10,ok,2,0,0.000,1,0.81,-1.62,10.85,13,0.000,8.20
0.9563,-0.04363,0.06632,0.13090,0.00000,0.00000,0.00000,60,18,31,1,64,23,27,9,ok,2,0,0.000,1,0.81,-1.62,10.85,13,0.013,8.20
0.9611,-0.04363,0.06632,0.13090,0.00000,0.00000,0.00000,60,13,33,2,64,25,28,10,ok,2,0,0.000,1,0.81,-1.62,10.85,13,0.025,8.20
0.9737,-0.04363,0.06632,0.13090,0.00000,0.00000,0.00000,60,11,34,2,65,25,29,9,ok,2,0,0.000,1,0.81,-1.62,10.85,13,0.038,8.20
0.9963,-0.04363,0.06632,0.13090,0.00000,0.00000,0.00000,60,11,36,2,63,27,30,9,ok,2,0,0.000,1,0.81,-1.62,10.85,13,0.050,8.20
0.9995,-0.04363,0.06632,0.13090,0.00000,0.00000,0.00000,60,7,37,2,63,29,32,9,ok,2,0,0.000,1,0.81,-1.62,10.85,13,0.063,8.20
1.0121,-0.04363,0.06632,0.13090,0.00000,0.00000,0.00000,60,5,38,3,64,30,33,9,ok,2,0,0.000,1,0.81,-1.62,10.85,13,0.076,8.20
1.0323,-0.04363,0.06632,0.13090,0.00000,0.00000,0.00000,60,2,40,3,64,32,35,8,ok,2,0,0.000,1,0.81,-1.62,10.85,13,0.089,8.20
1.0371,-0.04363,0.06632,0.13090,0.00000,0.00000,0.00000,59,-1,41,3,64,34,36,8,ok,2,0,0.000,1,0.81,-1.62,10.85,13,0.101,8.20
1.0497,-0.04363,0.06632,0.13090,0.00000,0.00000,0.00000,58,-3,42,2,64,35,37,8,ok,2,0,0.000,1,0.81,-1.62,10.85,13,0.114,8.20
1.0724,-0.04363,0.06632,0.13090,0.00000,0.00000,0.00000,58,-4,44,3,64,35,38,8,ok,2,0,0.000,1,0.81,-1.62,10.85,13,0.126,8.20
1.0755,-0.04363,0.06632,0.13090,0.00000,0.00000,0.00000,56,-5,44,3,66,35,39,8,ok,2,0,0.000,1,0.81,-1.62,10.85,13,0.139,8.20
1.0881,-0.04363,0.06632,0.13090,0.00000,0.00000,0.00000,56,-6,45,3,67,33,41,7,ok,2,0,0.000,1,0.81,-1.62,10.85,13,0.152,8.20
1.1083,-0.04363,0.06632,0.13090,0.00000,0.00000,0.00000,56,-8,46,3,69,28,42,7,ok,2,0,0.000,1,0.81,-1.62,10.85,13,0.165,8.20
1.1131,-0.04363,0.06632,0.13090,0.00000,0.00000,0.00000,54,-9,48,4,71,24,43,7,ok,2,0,0.000,1,0.81,-1.62,10.85,13,0.177,8.20
1.1257,-0.04363,0.06632,0.13090,0.00000,0.00000,0.00000,53,-10,49,4,73,21,44,7,ok,2,0,0.000,1,0.81,-1.62,10.85,13,0.190,8.20
1.1484,-0.00000,0.04538,0.15184,0.00000,0.00000,0.00000,52,-10,49,3,74,21,45,7,ok,2,0,0.000,1,0.31,0.16,10.15,14,0.000,8.20
1.1515,-0.00000,0.04538,0.15184,0.00000,0.00000,0.00000,51,-11,49,5,74,19,46,7,ok,2,0,0.000,1,0.31,0.16,10.15,14,0.013,8.20
1.1642,-0.00000,0.04538,0.15184,0.00000,0.00000,0.00000,50,-11,51,6,74,15,47,8,ok,2,0,0.000,1,0.31,0.16,10.15,14,0.026,8.20
1.1843,-0.00000,0.04538,0.15184,0.00000,0.00000,0.00000,48,-11,52,6,73,12,48,8,ok,2,0,0.000,1,0.31,0.16,10.15,14,0.039,8.20
1.1891,-0.00000,0.04538,0.15184,0.00000,0.00000,0.00000,47,-10,53,6,73,10,49,8,ok,2,0,0.000,1,0.31,0.16,10.15,14,0.051,8.20
1.2017,-0.00000,0.04538,0.15184,0.00000,0.00000,0.00000,46,-10,53,7,72,7,49,8,ok,2,0,0.000,1,0.31,0.16,10.15,14,0.064,8.20
1.2244,-0.00000,0.04538,0.15184,0.00000,0.00000,0.00000,44,-11,55,7,72,5,50,8,ok,2,0,0.000,1,0.31,0.16,10.15,14,0.076,8.20
1.2275,-0.00000,0.04538,0.15184,0.00000,0.00000,0.00000,43,-10,56,7,71,4,51,8,ok,2,0,0.000,1,0.31,0.16,10.15,14,0.089,8.20
1.2401,-0.00000,0.04538,0.15184,0.00000,0.00000,0.00000,42,-8,57,7,69,1,52,7,ok,2,0,0.000,1,0.31,0.16,10.15,14,0.102,8.20
1.2603,-0.00000,0.04538,0.15184,0.00000,0.00000,0.00000,40,-7,57,8,66,2,52,8,ok,2,0,0.000,1,0.31,0.16,10.15,14,0.115,8.20
1.2652,-0.00000,0.04538,0.15184,0.00000,0.00000,0.00000,38,-6,57,7,65,-1,53,8,ok,2,0,0.000,1,0.31,0.16,10.15,14,0.127,8.20
1.2777,-0.00000,0.04538,0.15184,0.00000,0.00000,0.00000,37,-4,58,8,64,-2,54,8,ok,2,0,0.000,1,0.31,0.16,10.15,14,0.140,8.20
1.3004,-0.00000,0.04538,0.15184,0.00000,0.00000,0.00000,35,-2,59,9,61,-4,55,8,ok,2,0,0.000,1,0.31,0.16,10.15,14,0.152,8.20
1.3037,-0.00000,0.04538,0.15184,0.00000,0.00000,0.00000,34,-1,60,11,60,-5,55,8,ok,2,0,0.000,1,0.31,0.16,10.15,14,0.165,8.20
1.3162,-0.00000,0.04538,0.15184,0.00000,0.00000,0.00000,34,0,60,10,58,-5,57,6,ok,2,0,0.000,1,0.31,0.16,10.15,14,0.178,8.20
1.3363,-0.00000,0.04538,0.15184,0.00000,0.00000,0.00000,33,2,61,11,56,-6,57,7,ok,2,0,0.000,1,0.31,0.16,10.15,14,0.191,8.20
1.3413,-0.00000,0.04538,0.15184,0.00000,0.00000,0.00000,32,5,61,11,54,-7,58,8,ok,2,0,0.000,1,0.31,0.16,10.15,14,0.203,8.20
1.3540,0.00000,0.03840,0.16930,0.00000,0.00000,0.00000,32,8,60,12,51,-6,59,8,ok,2,0,0.000,1,1.26,-0.90,10.25,15,0.000,8.20
1.3764,0.00000,0.03840,0.16930,0.00000,0.00000,0.00000,31,10,61,12,48,-6,59,9,ok,2,0,0.000,1,1.26,-0.90,10.25,15,0.013,8.20
1.3796,0.00000,0.03840,0.16930,0.00000,0.00000,0.00000,32,11,61,13,46,-6,60,9,ok,2,0,0.000,1,1.26,-0.90,10.25,15,0.026,8.20
1.3921,0.00000,0.03840,0.16930,0.00000,0.00000,0.00000,32,11,61,13,43,-5,60,10,ok,4,0,0.000,1,1.26,-0.90,10.25,15,0.038,8.20
1.4123,0.00000,0.03840,0.16930,0.00000,0.00000,0.00000,32,9,62,14,40,-5,61,11,ok,4,0,0.000,1,1.26,-0.90,10.25,15,0.051,8.20
1.4173,0.00000,0.03840,0.16930,0.00000,0.00000,0.00000,34,9,62,14,37,-4,61,11,ok,4,0,0.000,1,1.26,-0.90,10.25,15,0.063,8.20
1.4297,0.00000,0.03840,0.16930,0.00000,0.00000,0.00000,34,8,62,15,34,-3,62,12,ok,4,0,0.000,1,1.26,-0.90,10.25,15,0.076,8.20
1.4524,0.00000,0.03840,0.16930,0.00000,0.00000,0.00000,35,7,63,16,31,-2,62,13,ok,4,0,0.000,1,1.26,-0.90,10.25,15,0.088,8.20
1.4556,0.00000,0.03840,0.16930,0.00000,0.00000,0.00000,35,7,63,17,30,0,62,14,ok,4,0,0.000,1,1.26,-0.90,10.25,15,0.102,8.20
1.4683,0.00000,0.03840,0.16930,0.00000,0.00000,0.00000,36,6,64,18,28,1,63,15,ok,4,0,0.000,1,1.26,-0.90,10.25,15,0.114,8.20
1.4883,0.00000,0.03840,0.16930,0.00000,0.00000,0.00000,36,5,64,19,25,5,63,15,ok,4,0,0.000,1,1.26,-0.90,10.25,15,0.127,8.20
1.4931,0.00000,0.03840,0.16930,0.00000,0.00000,0.00000,37,4,64,20,24,8,63,16,ok,4,0,0.000,1,1.26,-0.90,10.25,15,0.139,8.20
1.5057,0.00000,0.03840,0.16930,0.00000,0.00000,0.00000,38,4,64,22,23,11,63,17,ok,4,0,0.000,1,1.26,-0.90,10.25,15,0.152,8.20
1.5284,0.00000,0.03840,0.16930,0.00000,0.00000,0.00000,38,4,64,23,22,14,64,18,ok,4,0,0.000,1,1.26,-0.90,10.25,15,0.164,8.20
1.5315,0.00000,0.03840,0.16930,0.00000,0.00000,0.00000,38,3,63,26,24,13,64,18,ok,4,0,0.000,1,1.26,-0.90,10.25,15,0.178,8.20
1.5442,0.00000,0.03840,0.16930,0.00000,0.00000,0.00000,39,2,63,27,24,13,64,19,ok,4,0,0.000,1,1.26,-0.90,10.25,15,0.190,8.20
1.5643,-0.05585,0.01920,0.14312,0.00000,0.00000,0.00000,40,2,64,25,25,11,64,20,ok,4,0,0.000,2,-1.71,-0.89,8.55,16,0.000,8.20
1.5691,-0.05585,0.01920,0.14312,0.00000,0.00000,0.00000,40,1,67,22,27,10,65,21,ok,4,0,0.000,2,-1.71,-0.89,8.55,16,0.012,8.20
1.5817,-0.05585,0.01920,0.14312,0.00000,0.00000,0.00000,41,1,69,19,28,10,65,22,ok,4,0,0.000,2,-1.71,-0.89,8.55,16,0.025,8.20
1.6044,-0.05585,0.01920,0.14312,0.00000,0.00000,0.00000,42,1,70,15,29,10,65,23,ok,4,0,0.000,2,-1.71,-0.89,8.55,16,0.038,8.20
1.6076,-0.05585,0.01920,0.14312,0.00000,0.00000,0.00000,42,1,71,13,30,9,65,25,ok,4,0,0.000,2,-1.71,-0.89,8.55,16,0.051,8.20
1.6202,-0.05585,0.01920,0.14312,0.00000,0.00000,0.00000,44,1,70,12,32,9,66,26,ok,4,0,0.000,2,-1.71,-0.89,8.55,16,0.064,8.20
1.6403,-0.05585,0.01920,0.14312,0.00000,0.00000,0.00000,44,1,70,9,33,9,65,28,ok,4,0,0.000,2,-1.71,-0.89,8.55,16,0.076,8.20
1.6453,-0.05585,0.01920,0.14312,0.00000,0.00000,0.00000,45,2,69,6,35,9,64,30,ok,4,0,0.000,2,-1.71,-0.89,8.55,16,0.089,8.20
1.6577,-0.05585,0.01920,0.14312,0.00000,0.00000,0.00000,46,2,69,3,36,8,64,31,ok,4,0,0.000,2,-1.71,-0.89,8.55,16,0.101,8.20
1.6804,-0.05585,0.01920,0.14312,0.00000,0.00000,0.00000,46,2,67,1,37,9,64,33,ok,4,0,0.000,2,-1.71,-0.89,8.55,16,0.114,8.20
1.6835,-0.05585,0.01920,0.14312,0.00000,0.00000,0.00000,46,2,66,-1,38,8,64,34,ok,4,0,0.000,2,-1.71,-0.89,8.55,16,0.127,8.20
1.6963,-0.05585,0.01920,0.14312,0.00000,0.00000,0.00000,48,2,65,-3,39,8,63,35,ok,4,0,0.000,2,-1.71,-0.89,8.55,16,0.140,8.20
1.7163,-0.05585,0.01920,0.14312,0.00000,0.00000,0.00000,48,3,62,-4,41,7,64,36,ok,4,0,0.000,2,-1.71,-0.89,8.55,16,0.152,8.20
1.7211,-0.05585,0.01920,0.14312,0.00000,0.00000,0.00000,48,3,61,-6,42,7,66,35,ok,4,0,0.000,2,-1.71,-0.89,8.55,16,0.165,8.20
1.7339,-0.05585,0.01920,0.14312,0.00000,0.00000,0.00000,48,3,60,-8,43,7,67,32,ok,4,0,0.000,2,-1.71,-0.89,8.55,16,0.177,8.20
1.7564,-0.05585,0.01920,0.14312,0.00000,0.00000,0.00000,50,3,58,-8,44,7,69,27,ok,4,0,0.000,2,-1.71,-0.89,8.55,16,0.190,8.20
1.7599,-0.08727,0.05585,0.21991,0.00000,0.00000,0.00000,50,3,56,-9,45,7,71,24,ok,4,0,0.001,2,-0.39,0.48,9.15,17,0.000,8.20
1.7722,-0.08727,0.05585,0.21991,0.00000,0.00000,0.00000,50,3,53,-9,45,7,72,21,ok,4,0,0.001,2,-0.39,0.48,9.15,17,0.013,8.20
1.7923,-0.08727,0.05585,0.21991,0.00000,0.00000,0.00000,50,5,51,-10,47,7,73,20,ok,4,0,0.001,2,-0.39,0.48,9.15,17,0.025,8.20
1.7971,-0.08727,0.05585,0.21991,0.00000,0.00000,0.00000,51,6,49,-10,47,7,73,18,ok,4,0,0.001,2,-0.39,0.48,9.15,17,0.038,8.20
1.8099,-0.08727,0.05585,0.21991,0.00000,0.00000,0.00000,52,5,46,-10,48,7,73,15,ok,4,0,0.001,2,-0.39,0.48,9.15,17,0.050,8.20
1.8324,-0.08727,0.05585,0.21991,0.00000,0.00000,0.00000,52,6,44,-9,49,7,72,12,ok,4,0,0.001,2,-0.39,0.48,9.15,17,0.063,8.20
1.8356,-0.08727,0.05585,0.21991,0.00000,0.00000,0.00000,52,6,41,-10,50,7,72,11,ok,4,0,0.001,2,-0.39,0.48,9.15,17,0.076,8.20
1.8482,-0.08727,0.05585,0.21991,0.00000,0.00000,0.00000,53,7,39,-10,51,7,71,7,ok,4,0,0.001,2,-0.39,0.48,9.15,17,0.089,8.20
1.8683,-0.08727,0.05585,0.21991,0.00000,0.00000,0.00000,53,7,36,-9,52,7,71,6,ok,2,0,0.001,2,-0.39,0.48,9.15,17,0.101,8.20
1.8732,-0.08727,0.05585,0.21991,0.00000,0.00000,0.00000,54,7,33,-8,52,7,70,4,ok,2,0,0.001,2,-0.39,0.48,9.15,17,0.114,8.20
1.8857,-0.08727,0.05585,0.21991,0.00000,0.00000,0.00000,54,8,30,-7,53,8,68,2,ok,2,0,0.001,2,-0.39,0.48,9.15,17,0.126,8.20
1.9084,-0.08727,0.05585,0.21991,0.00000,0.00000,0.00000,54,8,27,-6,54,8,66,1,ok,2,0,0.001,2,-0.39,0.48,9.15,17,0.139,8.20
1.9115,-0.08727,0.05585,0.21991,0.00000,0.00000,0.00000,54,8,24,-5,55,8,65,0,ok,2,0,0.001,2,-0.39,0.48,9.15,17,0.152,8.20
1.9241,-0.08727,0.05585,0.21991,0.00000,0.00000,0.00000,55,10,20,-2,56,8,64,-2,ok,2,0,0.001,2,-0.39,0.48,9.15,17,0.165,8.20
1.9443,-0.08727,0.05585,0.21991,0.00000,0.00000,0.00000,55,10,19,-1,58,6,62,-3,ok,2,0,0.001,2,-0.39,0.48,9.15,17,0.177,8.20
1.9491,-0.08727,0.05585,0.21991,0.00000,0.00000,0.00000,56,9,18,0,58,7,60,-5,ok,2,0,0.001,2,-0.39,0.48,9.15,17,0.190,8.20
1.9620,-0.02967,0.05236,0.18850,0.00000,0.00000,0.00000,56,10,16,3,59,8,58,-5,ok,2,0,0.001,2,0.83,0.33,10.44,18,0.000,8.20
1.9844,-0.02967,0.05236,0.18850,0.00000,0.00000,0.00000,56,11,14,6,59,9,55,-6,ok,2,0,0.001,2,0.83,0.33,10.44,18,0.013,8.20
1.9877,-0.02967,0.05236,0.18850,0.00000,0.00000,0.00000,56,12,13,9,60,9,53,-6,ok,2,0,0.001,2,0.83,0.33,10.44,18,0.026,8.20
2.0002,-0.02967,0.05236,0.18850,0.00000,0.00000,0.00000,56,12,12,11,60,10,50,-6,ok,2,0,0.001,2,0.83,0.33,10.44,18,0.039,8.20
2.0203,-0.02967,0.05236,0.18850,0.00000,0.00000,0.00000,56,13,14,12,61,10,48,-5,ok,2,0,0.001,2,0.83,0.33,10.44,18,0.051,8.20
2.0251,-0.02967,0.05236,0.18850,0.00000,0.00000,0.00000,56,14,15,11,61,11,46,-5,ok,2,0,0.001,2,0.83,0.33,10.44,18,0.064,8.20
2.0377,-0.02967,0.05236,0.18850,0.00000,0.00000,0.00000,56,14,16,10,61,11,42,-4,ok,2,0,0.001,2,0.83,0.33,10.44,18,0.076,8.20
2.0603,-0.02967,0.05236,0.18850,0.00000,0.00000,0.00000,56,15,18,9,61,12,41,-5,ok,2,0,0.001,2,0.83,0.33,10.44,18,0.089,8.20
2.0635,-0.02967,0.05236,0.18850,0.00000,0.00000,0.00000,56,16,19,8,61,12,37,-3,ok,2,0,0.001,2,0.83,0.33,10.44,18,0.102,8.20
2.0763,-0.02967,0.05236,0.18850,0.00000,0.00000,0.00000,56,17,21,7,62,13,35,-3,ok,2,0,0.001,2,0.83,0.33,10.44,18,0.115,8.20
2.0963,-0.02967,0.05236,0.18850,0.00000,0.00000,0.00000,56,18,21,7,62,14,31,-1,ok,2,0,0.001,2,0.83,0.33,10.44,18,0.127,8.20
2.1011,-0.02967,0.05236,0.18850,0.00000,0.00000,0.00000,57,19,23,6,63,14,30,0,ok,2,0,0.001,2,0.83,0.33,10.44,18,0.140,8.20
2.1137,-0.02967,0.05236,0.18850,0.00000,0.00000,0.00000,57,20,24,5,63,15,28,1,ok,2,0,0.001,2,0.83,0.33,10.44,18,0.152,8.20
2.1364,-0.02967,0.05236,0.18850,0.00000,0.00000,0.00000,58,21,24,5,63,16,26,5,ok,2,0,0.001,2,0.83,0.33,10.44,18,0.165,8.20
2.1396,-0.02967,0.05236,0.18850,0.00000,0.00000,0.00000,58,22,25,4,63,17,24,7,ok,2,0,0.001,2,0.83,0.33,10.44,18,0.178,8.20
2.1523,-0.02967,0.05236,0.18850,0.00000,0.00000,0.00000,58,23,26,3,64,17,23,11,ok,2,0,0.001,2,0.83,0.33,10.44,18,0.191,8.20
2.1723,-0.13788,0.10472,0.27402,0.00000,0.00000,0.00000,57,26,27,3,64,19,23,13,ok,2,0,0.001,2,0.34,-2.60,9.97,19,0.000,8.20
2.1771,-0.13788,0.10472,0.27402,0.00000,0.00000,0.00000,57,26,27,2,64,19,25,12,ok,2,0,0.001,2,0.34,-2.60,9.97,19,0.013,8.20
2.1897,-0.13788,0.10472,0.27402,0.00000,0.00000,0.00000,58,25,29,2,64,20,25,12,ok,2,0,0.001,2,0.34,-2.60,9.97,19,0.025,8.20
2.2124,-0.13788,0.10472,0.27402,0.00000,0.00000,0.00000,58,21,30,2,64,22,26,10,ok,2,0,0.001,2,0.34,-2.60,9.97,19,0.037,8.20
2.2156,-0.13788,0.10472,0.27402,0.00000,0.00000,0.00000,60,17,31,2,64,23,27,9,ok,2,0,0.001,2,0.34,-2.60,9.97,19,0.051,8.20
2.2282,-0.13788,0.10472,0.27402,0.00000,0.00000,0.00000,60,12,32,3,64,24,28,10,ok,2,0,0.001,2,0.34,-2.60,9.97,19,0.064,8.20
2.2483,-0.13788,0.10472,0.27402,0.00000,0.00000,0.00000,60,10,33,3,65,25,30,9,ok,2,0,0.001,2,0.34,-2.60,9.97,19,0.076,8.20
2.2531,-0.13788,0.10472,0.27402,0.00000,0.00000,0.00000,60,10,35,3,64,27,31,9,ok,2,0,0.001,2,0.34,-2.60,9.97,19,0.088,8.20
2.2657,-0.13788,0.10472,0.27402,0.00000,0.00000,0.00000,60,6,36,3,64,29,33,9,ok,2,0,0.001,2,0.34,-2.60,9.97,19,0.101,8.20
2.2884,-0.13788,0.10472,0.27402,0.00000,0.00000,0.00000,60,4,38,3,64,30,33,10,ok,2,0,0.001,2,0.34,-2.60,9.97,19,0.114,8.20
2.2916,-0.13788,0.10472,0.27402,0.00000,0.00000,0.00000,59,1,39,3,64,32,35,9,ok,2,0,0.001,2,0.34,-2.60,9.97,19,0.127,8.20
2.3044,-0.13788,0.10472,0.27402,0.00000,0.00000,0.00000,59,-1,41,3,64,33,36,9,ok,2,0,0.001,2,0.34,-2.60,9.97,19,0.139,8.20
2.3243,-0.13788,0.10472,0.27402,0.00000,0.00000,0.00000,58,-2,42,2,64,35,37,9,ok,2,0,0.001,2,0.34,-2.60,9.97,19,0.152,8.20
2.3291,-0.13788,0.10472,0.27402,0.00000,0.00000,0.00000,58,-4,43,2,65,35,38,8,ok,2,0,0.001,2,0.34,-2.60,9.97,19,0.164,8.20
2.3417,-0.13788,0.10472,0.27402,0.00000,0.00000,0.00000,56,-5,43,2,66,35,40,8,ok,2,0,0.001,2,0.34,-2.60,9.97,19,0.177,8.20
2.3644,-0.13788,0.10472,0.27402,0.00000,0.00000,0.00000,56,-6,45,3,68,33,41,7,ok,2,0,0.001,2,0.34,-2.60,9.97,19,0.190,8.20
2.3679,0.00698,0.01396,0.29845,0.00000,0.00000,0.00000,56,-8,46,3,70,28,42,7,ok,2,0,0.001,2,1.31,0.97,9.51,20,0.000,8.20
2.3802,0.00698,0.01396,0.29845,0.00000,0.00000,0.00000,54,-9,47,3,72,24,44,7,ok,2,0,0.001,2,1.31,0.97,9.51,20,0.013,8.20
2.4003,0.00698,0.01396,0.29845,0.00000,0.00000,0.00000,53,-10,48,3,74,22,44,7,ok,2,0,0.001,2,1.31,0.97,9.51,20,0.025,8.20
2.4052,0.00698,0.01396,0.29845,0.00000,0.00000,0.00000,52,-10,49,3,75,21,45,7,ok,2,0,0.001,2,1.31,0.97,9.51,20,0.038,8.20
2.4177,0.00698,0.01396,0.29845,0.00000,0.00000,0.00000,51,-10,49,5,75,19,46,7,ok,2,0,0.001,2,1.31,0.97,9.51,20,0.050,8.20
2.4403,0.00698,0.01396,0.29845,0.00000,0.00000,0.00000,50,-10,51,5,74,15,47,8,ok,2,0,0.001,2,1.31,0.97,9.51,20,0.063,8.20
2.4435,0.00698,0.01396,0.29845,0.00000,0.00000,0.00000,48,-10,52,5,74,12,48,8,ok,2,0,0.001,2,1.31,0.97,9.51,20,0.076,8.20
2.4563,0.00698,0.01396,0.29845,0.00000,0.00000,0.00000,47,-9,53,5,73,10,49,8,ok,2,0,0.001,2,1.31,0.97,9.51,20,0.089,8.20
2.4763,0.00698,0.01396,0.29845,0.00000,0.00000,0.00000,46,-9,53,6,72,6,49,8,ok,2,0,0.001,2,1.31,0.97,9.51,20,0.101,8.20
2.4811,0.00698,0.01396,0.29845,0.00000,0.00000,0.00000,44,-10,55,6,72,5,50,7,ok,2,0,0.001,2,1.31,0.97,9.51,20,0.114,8.20
2.4937,0.00698,0.01396,0.29845,0.00000,0.00000,0.00000,44,-9,56,6,71,4,51,8,ok,2,0,0.001,2,1.31,0.97,9.51,20,0.126,8.20
2.5164,0.00698,0.01396,0.29845,0.00000,0.00000,0.00000,42,-8,57,7,69,1,52,7,ok,2,0,0.001,2,1.31,0.97,9.51,20,0.139,8.20
2.5197,0.00698,0.01396,0.29845,0.00000,0.00000,0.00000,40,-7,57,8,66,2,52,8,ok,2,0,0.001,2,1.31,0.97,9.51,20,0.152,8.20
2.5322,0.00698,0.01396,0.29845,0.00000,0.00000,0.00000,38,-6,58,8,65,-1,53,8,ok,2,0,0.001,2,1.31,0.97,9.51,20,0.165,8.20
2.5523,0.00698,0.01396,0.29845,0.00000,0.00000,0.00000,37,-4,58,8,63,-2,54,9,ok,2,0,0.001,2,1.31,0.97,9.51,20,0.177,8.20
2.5572,0.00698,0.01396,0.29845,0.00000,0.00000,0.00000,35,-2,59,9,61,-4,55,8,ok,2,0,0.001,3,1.31,0.97,9.51,20,0.190,8.20
2.5701,0.01047,-0.02269,0.33685,0.00000,0.00000,0.00000,34,-2,60,11,60,-5,55,8,ok,2,0,0.001,3,0.52,0.32,10.12,21,0.000,8.20
2.5924,0.01047,-0.02269,0.33685,0.00000,0.00000,0.00000,34,-1,61,10,59,-6,57,6,ok,2,0,0.001,3,0.52,0.32,10.12,21,0.013,8.20
2.5956,0.01047,-0.02269,0.33685,0.00000,0.00000,0.00000,33,2,61,11,56,-6,57,7,ok,2,0,0.001,3,0.52,0.32,10.12,21,0.026,8.20
2.6084,0.01047,-0.02269,0.33685,0.00000,0.00000,0.00000,32,5,61,11,54,-7,58,8,ok,2,0,0.001,3,0.52,0.32,10.12,21,0.039,8.20
2.6284,0.01047,-0.02269,0.33685,0.00000,0.00000,0.00000,32,8,61,12,51,-6,59,8,ok,2,0,0.001,3,0.52,0.32,10.12,21,0.051,8.20
2.6332,0.01047,-0.02269,0.33685,0.00000,0.00000,0.00000,31,11,62,12,48,-6,59,9,ok,2,0,0.001,3,0.52,0.32,10.12,21,0.064,8.20
2.6457,0.01047,-0.02269,0.33685,0.00000,0.00000,0.00000,32,11,62,13,46,-6,60,10,ok,2,0,0.001,3,0.52,0.32,10.12,21,0.076,8.20
2.6684,0.01047,-0.02269,0.33685,0.00000,0.00000,0.00000,32,11,62,13,43,-5,60,10,ok,2,0,0.001,3,0.52,0.32,10.12,21,0.089,8.20
2.6715,0.01047,-0.02269,0.33685,0.00000,0.00000,0.00000,33,10,63,14,40,-5,61,11,ok,2,0,0.001,3,0.52,0.32,10.12,21,0.102,8.20
2.6842,0.01047,-0.02269,0.33685,0.00000,0.00000,0.00000,34,9,62,14,37,-4,61,11,ok,2,0,0.001,3,0.52,0.32,10.12,21,0.115,8.20
2.7043,0.01047,-0.02269,0.33685,0.00000,0.00000,0.00000,34,9,63,15,34,-3,61,13,ok,2,0,0.001,3,0.52,0.32,10.12,21,0.127,8.20
2.7091,0.01047,-0.02269,0.33685,0.00000,0.00000,0.00000,36,7,63,15,31,-2,61,13,ok,4,0,0.001,3,0.52,0.32,10.12,21,0.139,8.20
2.7219,0.01047,-0.02269,0.33685,0.00000,0.00000,0.00000,36,7,63,17,29,0,62,14,ok,4,0,0.001,3,0.52,0.32,10.12,21,0.152,8.20
2.7444,0.01047,-0.02269,0.33685,0.00000,0.00000,0.00000,36,6,64,18,28,1,62,15,ok,4,0,0.001,3,0.52,0.32,10.12,21,0.165,8.20
2.7475,0.01047,-0.02269,0.33685,0.00000,0.00000,0.00000,37,5,64,19,25,5,63,15,ok,4,0,0.001,3,0.52,0.32,10.12,21,0.178,8.20
2.7602,0.01047,-0.02269,0.33685,0.00000,0.00000,0.00000,38,5,64,20,24,8,63,16,ok,4,0,0.001,3,0.52,0.32,10.12,21,0.191,8.20
2.7803,-0.10297,-0.02443,0.34558,0.00000,0.00000,0.00000,38,4,64,21,23,11,63,17,ok,4,0,0.001,3,1.67,-0.89,9.45,22,0.000,8.20
2.7852,-0.10297,-0.02443,0.34558,0.00000,0.00000,0.00000,38,4,64,23,22,14,64,18,ok,4,0,0.001,3,1.67,-0.89,9.45,22,0.012,8.20
2.7977,-0.10297,-0.02443,0.34558,0.00000,0.00000,0.00000,39,3,63,26,24,13,64,19,ok,4,0,0.001,3,1.67,-0.89,9.45,22,0.025,8.20
2.8204,-0.10297,-0.02443,0.34558,0.00000,0.00000,0.00000,40,2,63,27,23,13,65,19,ok,4,0,0.001,3,1.67,-0.89,9.45,22,0.038,8.20
2.8235,-0.10297,-0.02443,0.34558,0.00000,0.00000,0.00000,40,2,65,26,24,11,65,21,ok,4,0,0.001,3,1.67,-0.89,9.45,22,0.051,8.20
2.8361,-0.10297,-0.02443,0.34558,0.00000,0.00000,0.00000,40,1,67,23,26,10,65,21,ok,4,0,0.001,3,1.67,-0.89,9.45,22,0.063,8.20
2.8563,-0.10297,-0.02443,0.34558,0.00000,0.00000,0.00000,41,1,70,19,27,10,65,23,ok,4,0,0.001,3,1.67,-0.89,9.45,22,0.076,8.20
2.8612,-0.10297,-0.02443,0.34558,0.00000,0.00000,0.00000,42,1,71,15,29,10,64,24,ok,4,0,0.001,3,1.67,-0.89,9.45,22,0.088,8.20
2.8737,-0.10297,-0.02443,0.34558,0.00000,0.00000,0.00000,43,1,71,13,30,9,64,26,ok,4,0,0.001,3,1.67,-0.89,9.45,22,0.101,8.20
2.8964,-0.10297,-0.02443,0.34558,0.00000,0.00000,0.00000,44,1,71,12,32,9,65,27,ok,4,0,0.001,3,1.67,-0.89,9.45,22,0.113,8.20
2.8996,-0.10297,-0.02443,0.34558,0.00000,0.00000,0.00000,44,1,71,9,33,9,64,29,ok,4,0,0.001,3,1.67,-0.89,9.45,22,0.127,8.20
2.9123,-0.10297,-0.02443,0.34558,0.00000,0.00000,0.00000,45,2,70,6,35,9,64,30,ok,4,0,0.001,3,1.67,-0.89,9.45,22,0.139,8.20
2.9323,-0.10297,-0.02443,0.34558,0.00000,0.00000,0.00000,46,3,69,3,36,8,64,31,ok,4,0,0.001,3,1.67,-0.89,9.45,22,0.152,8.20
2.9371,-0.10297,-0.02443,0.34558,0.00000,0.00000,0.00000,46,3,68,0,37,8,64,33,ok,4,0,0.001,3,1.67,-0.89,9.45,22,0.164,8.20
2.9499,-0.10297,-0.02443,0.34558,0.00000,0.00000,0.00000,47,2,66,-2,38,8,63,35,ok,4,0,0.001,3,1.67,-0.89,9.45,22,0.177,8.20
2.9724,-0.10297,-0.02443,0.34558,0.00000,0.00000,0.00000,48,3,65,-3,39,8,63,36,ok,4,0,0.001,3,1.67,-0.89,9.45,22,0.189,8.20
2.9757,-0.10297,-0.02443,0.34558,0.00000,0.00000,0.00000,48,3,63,-4,40,7,64,36,ok,4,0,0.001,3,1.67,-0.89,9.45,22,0.203,8.20
2.9885,-0.17279,0.05236,0.33859,0.00000,0.00000,0.00000,48,3,61,-6,42,7,65,35,ok,4,0,0.001,3,1.33,-1.52,8.95,23,0.000,8.20
3.0083,-0.17279,0.05236,0.33859,0.00000,0.00000,0.00000,49,3,60,-7,43,6,67,33,ok,4,0,0.001,3,1.33,-1.52,8.95,23,0.013,8.20
3.0132,-0.17279,0.05236,0.33859,0.00000,0.00000,0.00000,50,4,58,-8,43,6,69,28,ok,4,0,0.001,3,1.33,-1.52,8.95,23,0.025,8.20
3.0259,-0.17279,0.05236,0.33859,0.00000,0.00000,0.00000,50,3,56,-9,44,6,71,24,ok,4,0,0.001,3,1.33,-1.52,8.95,23,0.037,8.20
3.0484,-0.17279,0.05236,0.33859,0.00000,0.00000,0.00000,50,3,53,-9,45,6,72,21,ok,2,0,0.001,3,1.33,-1.52,8.95,23,0.050,8.20
3.0516,-0.17279,0.05236,0.33859,0.00000,0.00000,0.00000,50,5,51,-10,47,6,73,21,ok,2,0,0.001,3,1.33,-1.52,8.95,23,0.063,8.20
3.0644,-0.17279,0.05236,0.33859,0.00000,0.00000,0.00000,51,5,49,-10,47,7,72,19,ok,2,0,0.001,3,1.33,-1.52,8.95,23,0.076,8.20
3.0843,-0.17279,0.05236,0.33859,0.00000,0.00000,0.00000,52,5,46,-10,49,7,72,15,ok,2,0,0.001,3,1.33,-1.52,8.95,23,0.088,8.20
3.0892,-0.17279,0.05236,0.33859,0.00000,0.00000,0.00000,52,6,44,-9,49,7,72,13,ok,2,0,0.001,3,1.33,-1.52,8.95,23,0.101,8.20
3.1017,-0.17279,0.05236,0.33859,0.00000,0.00000,0.00000,52,6,41,-10,50,7,72,11,ok,2,0,0.001,3,1.33,-1.52,8.95,23,0.113,8.20
3.1244,-0.17279,0.05236,0.33859,0.00000,0.00000,0.00000,53,7,39,-10,51,7,71,7,ok,2,0,0.001,3,1.33,-1.52,8.95,23,0.126,8.20
3.1276,-0.17279,0.05236,0.33859,0.00000,0.00000,0.00000,54,7,36,-9,52,6,71,6,ok,2,0,0.001,3,1.33,-1.52,8.95,23,0.139,8.20
3.1403,-0.17279,0.05236,0.33859,0.00000,0.00000,0.00000,54,7,33,-9,52,7,70,4,ok,2,0,0.001,3,1.33,-1.52,8.95,23,0.152,8.20
3.1603,-0.17279,0.05236,0.33859,0.00000,0.00000,0.00000,54,8,30,-8,53,7,68,2,ok,2,0,0.001,3,1.33,-1.52,8.95,23,0.164,8.20
3.1652,-0.17279,0.05236,0.33859,0.00000,0.00000,0.00000,54,8,27,-6,54,8,66,2,ok,2,0,0.001,3,1.33,-1.52,8.95,23,0.177,8.20
3.1778,-0.17279,0.05236,0.33859,0.00000,0.00000,0.00000,54,9,24,-5,55,8,65,0,ok,2,0,0.001,3,1.33,-1.52,8.95,23,0.189,8.20
3.2004,-0.03316,0.02094,0.30543,0.00000,0.00000,0.00000,55,10,20,-2,56,8,64,-2,ok,2,0,0.001,3,1.13,0.11,11.15,24,0.000,8.20
3.2036,-0.03316,0.02094,0.30543,0.00000,0.00000,0.00000,55,10,18,-1,58,6,62,-3,ok,2,0,0.001,3,1.13,0.11,11.15,24,0.013,8.20
3.2162,-0.03316,0.02094,0.30543,0.00000,0.00000,0.00000,56,10,17,0,58,7,59,-4,ok,2,0,0.001,3,1.13,0.11,11.15,24,0.026,8.20
3.2364,-0.03316,0.02094,0.30543,0.00000,0.00000,0.00000,56,11,16,2,59,8,57,-5,ok,2,0,0.001,3,1.13,0.11,11.15,24,0.039,8.20
3.2412,-0.03316,0.02094,0.30543,0.00000,0.00000,0.00000,56,11,14,5,60,9,55,-5,ok,2,0,0.001,3,1.13,0.11,11.15,24,0.051,8.20
3.2538,-0.03316,0.02094,0.30543,0.00000,0.00000,0.00000,56,13,13,8,60,9,53,-6,ok,2,0,0.001,3,1.13,0.11,11.15,24,0.064,8.20
3.2764,-0.03316,0.02094,0.30543,0.00000,0.00000,0.00000,56,13,12,11,60,9,50,-5,ok,2,0,0.001,3,1.13,0.11,11.15,24,0.076,8.20
3.2797,-0.03316,0.02094,0.30543,0.00000,0.00000,0.00000,56,14,14,11,60,10,48,-5,ok,2,0,0.001,3,1.13,0.11,11.15,24,0.089,8.20
3.2922,-0.03316,0.02094,0.30543,0.00000,0.00000,0.00000,56,15,15,10,61,10,45,-5,ok,2,0,0.001,3,1.13,0.11,11.15,24,0.102,8.20
3.3123,-0.03316,0.02094,0.30543,0.00000,0.00000,0.00000,56,15,16,10,61,11,42,-4,ok,2,0,0.001,3,1.13,0.11,11.15,24,0.115,8.20
3.3172,-0.03316,0.02094,0.30543,0.00000,0.00000,0.00000,56,16,18,9,61,12,40,-4,ok,2,0,0.001,3,1.13,0.11,11.15,24,0.127,8.20
3.3299,-0.03316,0.02094,0.30543,0.00000,0.00000,0.00000,56,16,19,8,61,12,37,-3,ok,2,0,0.001,3,1.13,0.11,11.15,24,0.140,8.20
3.3524,-0.03316,0.02094,0.30543,0.00000,0.00000,0.00000,56,16,21,8,62,13,35,-3,ok,2,0,0.001,3,1.13,0.11,11.15,24,0.152,8.20
3.3556,-0.03316,0.02094,0.30543,0.00000,0.00000,0.00000,56,17,21,7,62,14,31,-1,ok,2,0,0.001,3,1.13,0.11,11.15,24,0.165,8.20
3.3682,-0.03316,0.02094,0.30543,0.00000,0.00000,0.00000,58,19,23,6,63,14,30,0,ok,2,0,0.001,3,1.13,0.11,11.15,24,0.178,8.20
3.3884,-0.03316,0.02094,0.30543,0.00000,0.00000,0.00000,58,20,24,5,63,15,27,2,ok,2,0,0.001,3,1.13,0.11,11.15,24,0.191,8.20
3.3936,-0.05236,0.08901,0.30543,0.00000,0.00000,0.00000,58,21,24,5,63,16,25,5,ok,2,0,0.001,3,1.86,-1.26,10.01,25,0.000,8.20
3.4059,-0.05236,0.08901,0.30543,0.00000,0.00000,0.00000,58,22,25,4,63,17,24,7,ok,2,0,0.001,3,1.86,-1.26,10.01,25,0.013,8.20
3.4283,-0.05236,0.08901,0.30543,0.00000,0.00000,0.00000,58,23,26,3,64,17,23,11,ok,2,0,0.001,3,1.86,-1.26,10.01,25,0.025,8.20
3.4315,-0.05236,0.08901,0.30543,0.00000,0.00000,0.00000,57,26,27,3,64,18,22,13,ok,2,0,0.001,3,1.86,-1.26,10.01,25,0.038,8.20
3.4442,-0.05236,0.08901,0.30543,0.00000,0.00000,0.00000,57,26,27,2,64,19,24,12,ok,2,0,0.001,3,1.86,-1.26,10.01,25,0.051,8.20
3.4643,-0.05236,0.08901,0.30543,0.00000,0.00000,0.00000,58,25,28,2,64,21,25,12,ok,2,0,0.001,3,1.86,-1.26,10.01,25,0.064,8.20
3.4692,-0.05236,0.08901,0.30543,0.00000,0.00000,0.00000,58,21,29,2,65,22,25,10,ok,2,0,0.001,3,1.86,-1.26,10.01,25,0.076,8.20
3.4819,-0.05236,0.08901,0.30543,0.00000,0.00000,0.00000,60,17,30,1,64,23,27,10,ok,2,0,0.001,3,1.86,-1.26,10.01,25,0.089,8.20
3.5044,-0.05236,0.08901,0.30543,0.00000,0.00000,0.00000,60,13,32,2,64,25,28,10,ok,2,0,0.001,3,1.86,-1.26,10.01,25,0.101,8.20
3.5076,-0.05236,0.08901,0.30543,0.00000,0.00000,0.00000,60,11,33,2,65,25,29,10,ok,2,0,0.001,3,1.86,-1.26,10.01,25,0.114,8.20
3.5202,-0.05236,0.08901,0.30543,0.00000,0.00000,0.00000,60,10,35,2,64,27,30,9,ok,2,0,0.001,3,1.86,-1.26,10.01,25,0.127,8.20
3.5403,-0.05236,0.08901,0.30543,0.00000,0.00000,0.00000,60,7,36,2,64,29,32,9,ok,2,0,0.001,3,1.86,-1.26,10.01,25,0.140,8.20
3.5452,-0.05236,0.08901,0.30543,0.00000,0.00000,0.00000,60,5,38,3,64,30,33,9,ok,2,0,0.001,3,1.86,-1.26,10.01,25,0.152,8.20
3.5580,-0.05236,0.08901,0.30543,0.00000,0.00000,0.00000,60,2,39,3,65,32,35,9,ok,2,0,0.001,3,1.86,-1.26,10.01,25,0.165,8.20
3.5804,-0.05236,0.08901,0.30543,0.00000,0.00000,0.00000,59,-1,41,3,64,33,36,9,ok,2,0,0.001,4,1.86,-1.26,10.01,25,0.177,8.20
3.5839,-0.07854,-0.01047,0.34907,0.00000,0.00000,0.00000,58,-2,42,2,64,35,37,9,ok,2,0,0.001,4,-0.18,0.56,12.42,26,0.000,8.20
3.5962,-0.07854,-0.01047,0.34907,0.00000,0.00000,0.00000,58,-4,43,2,65,35,38,8,ok,2,0,0.001,4,-0.18,0.56,12.42,26,0.013,8.20
3.6164,-0.07854,-0.01047,0.34907,0.00000,0.00000,0.00000,56,-5,44,2,66,35,40,8,ok,2,0,0.001,4,-0.18,0.56,12.42,26,0.025,8.20
3.6212,-0.07854,-0.01047,0.34907,0.00000,0.00000,0.00000,56,-6,45,2,68,33,41,7,ok,2,0,0.001,4,-0.18,0.56,12.42,26,0.038,8.20
3.6338,-0.07854,-0.01047,0.34907,0.00000,0.00000,0.00000,56,-8,46,3,70,28,42,7,ok,2,0,0.001,4,-0.18,0.56,12.42,26,0.050,8.20
3.6564,-0.07854,-0.01047,0.34907,0.00000,0.00000,0.00000,54,-9,48,4,71,24,44,7,ok,2,0,0.001,4,-0.18,0.56,12.42,26,0.063,8.20
3.6596,-0.07854,-0.01047,0.34907,0.00000,0.00000,0.00000,54,-10,49,3,73,21,44,7,ok,2,0,0.001,4,-0.18,0.56,12.42,26,0.076,8.20
3.6722,-0.07854,-0.01047,0.34907,0.00000,0.00000,0.00000,52,-10,50,3,74,20,45,7,ok,2,0,0.001,4,-0.18,0.56,12.42,26,0.089,8.20
3.6923,-0.07854,-0.01047,0.34907,0.00000,0.00000,0.00000,52,-11,50,5,74,18,46,7,ok,2,0,0.001,4,-0.18,0.56,12.42,26,0.101,8.20
3.6972,-0.07854,-0.01047,0.34907,0.00000,0.00000,0.00000,50,-11,51,6,74,14,47,8,ok,2,0,0.001,4,-0.18,0.56,12.42,26,0.114,8.20
3.7099,-0.07854,-0.01047,0.34907,0.00000,0.00000,0.00000,48,-11,52,6,73,11,48,8,ok,2,0,0.001,4,-0.18,0.56,12.42,26,0.126,8.20
3.7324,-0.07854,-0.01047,0.34907,0.00000,0.00000,0.00000,48,-10,53,6,73,10,49,8,ok,2,0,0.001,4,-0.18,0.56,12.42,26,0.139,8.20
3.7356,-0.07854,-0.01047,0.34907,0.00000,0.00000,0.00000,46,-10,53,7,72,6,49,9,ok,2,0,0.001,4,-0.18,0.56,12.42,26,0.152,8.20
3.7482,-0.07854,-0.01047,0.34907,0.00000,0.00000,0.00000,44,-11,56,7,72,5,50,8,ok,2,0,0.001,4,-0.18,0.56,12.42,26,0.165,8.20
3.7683,-0.07854,-0.01047,0.34907,0.00000,0.00000,0.00000,44,-9,56,7,70,3,51,9,ok,2,0,0.001,4,-0.18,0.56,12.42,26,0.177,8.20
3.7731,-0.07854,-0.01047,0.34907,0.00000,0.00000,0.00000,42,-8,57,7,69,1,52,8,ok,2,0,0.001,4,-0.18,0.56,12.42,26,0.190,8.20
3.7858,-0.07854,-0.01047,0.34907,0.00000,0.00000,0.00000,40,-7,57,8,66,1,52,9,ok,2,0,0.001,4,-0.18,0.56,12.42,26,0.202,8.20
3.8084,0.02094,0.01047,0.38223,0.00000,0.00000,0.00000,38,-5,58,8,65,-1,53,9,ok,2,0,0.001,4,-0.41,-0.02,9.95,27,0.000,8.20
3.8116,0.02094,0.01047,0.38223,0.00000,0.00000,0.00000,37,-3,58,8,64,-2,54,9,ok,2,0,0.001,4,-0.41,-0.02,9.95,27,0.013,8.20
3.8242,0.02094,0.01047,0.38223,0.00000,0.00000,0.00000,35,-1,59,9,62,-4,54,9,ok,2,0,0.001,4,-0.41,-0.02,9.95,27,0.026,8.20
3.8443,0.02094,0.01047,0.38223,0.00000,0.00000,0.00000,35,-1,60,10,61,-5,54,8,ok,2,0,0.001,4,-0.41,-0.02,9.95,27,0.039,8.20
3.8494,0.02094,0.01047,0.38223,0.00000,0.00000,0.00000,34,1,61,10,59,-6,56,6,ok,2,0,0.001,4,-0.41,-0.02,9.95,27,0.051,8.20
3.8617,0.02094,0.01047,0.38223,0.00000,0.00000,0.00000,34,3,61,11,56,-6,56,7,ok,2,0,0.001,4,-0.41,-0.02,9.95,27,0.064,8.20
3.8844,0.02094,0.01047,0.38223,0.00000,0.00000,0.00000,32,6,61,10,54,-7,57,8,ok,2,0,0.001,4,-0.41,-0.02,9.95,27,0.076,8.20
3.8876,0.02094,0.01047,0.38223,0.00000,0.00000,0.00000,32,9,61,11,51,-6,58,9,ok,2,0,0.001,4,-0.41,-0.02,9.95,27,0.089,8.20
3.9002,0.02094,0.01047,0.38223,0.00000,0.00000,0.00000,32,12,61,11,48,-6,59,9,ok,2,0,0.001,4,-0.41,-0.02,9.95,27,0.102,8.20
3.9203,0.02094,0.01047,0.38223,0.00000,0.00000,0.00000,32,12,61,12,46,-6,60,10,ok,2,0,0.001,4,-0.41,-0.02,9.95,27,0.115,8.20
3.9252,0.02094,0.01047,0.38223,0.00000,0.00000,0.00000,32,11,61,13,43,-5,59,10,ok,2,0,0.001,4,-0.41,-0.02,9.95,27,0.127,8.20
3.9378,0.02094,0.01047,0.38223,0.00000,0.00000,0.00000,33,10,62,13,40,-5,60,11,ok,2,0,0.001,4,-0.41,-0.02,9.95,27,0.140,8.20
3.9603,0.02094,0.01047,0.38223,0.00000,0.00000,0.00000,34,9,62,14,37,-4,61,12,ok,2,0,0.001,4,-0.41,-0.02,9.95,27,0.152,8.20
3.9635,0.02094,0.01047,0.38223,0.00000,0.00000,0.00000,34,8,62,15,35,-3,61,13,ok,2,0,0.001,4,-0.41,-0.02,9.95,27,0.165,8.20
3.9763,0.02094,0.01047,0.38223,0.00000,0.00000,0.00000,35,7,63,15,32,-2,61,13,ok,2,0,0.001,4,-0.41,-0.02,9.95,27,0.178,8.20
3.9963,0.02094,0.01047,0.38223,0.00000,0.00000,0.00000,36,7,63,17,30,0,62,14,ok,2,0,0.001,4,-0.41,-0.02,9.95,27,0.190,8.20
4.0015,-0.07505,0.05411,0.38397,0.00000,0.00000,0.00000,36,6,64,18,28,1,62,15,ok,2,0,0.001,4,1.95,-0.36,9.21,28,0.000,8.20
4.0137,-0.07505,0.05411,0.38397,0.00000,0.00000,0.00000,37,5,64,20,25,4,63,15,ok,2,0,0.001,4,1.95,-0.36,9.21,28,0.013,8.20
4.0364,-0.07505,0.05411,0.38397,0.00000,0.00000,0.00000,38,4,64,21,24,7,63,16,ok,2,0,0.001,4,1.95,-0.36,9.21,28,0.025,8.20
4.0396,-0.07505,0.05411,0.38397,0.00000,0.00000,0.00000,38,4,64,22,23,10,63,18,ok,2,0,0.001,4,1.95,-0.36,9.21,28,0.038,8.20
4.0522,-0.07505,0.05411,0.38397,0.00000,0.00000,0.00000,38,3,64,23,22,13,64,18,ok,2,0,0.001,4,1.95,-0.36,9.21,28,0.051,8.20
4.0723,-0.07505,0.05411,0.38397,0.00000,0.00000,0.00000,39,3,63,26,24,13,64,19,ok,2,0,0.001,4,1.95,-0.36,9.21,28,0.064,8.20
4.0772,-0.07505,0.05411,0.38397,0.00000,0.00000,0.00000,39,2,63,28,24,13,64,20,ok,2,0,0.001,4,1.95,-0.36,9.21,28,0.076,8.20
4.0897,-0.07505,0.05411,0.38397,0.00000,0.00000,0.00000,40,1,64,26,25,11,64,21,ok,2,0,0.001,4,1.95,-0.36,9.21,28,0.089,8.20
4.1123,-0.07505,0.05411,0.38397,0.00000,0.00000,0.00000,40,1,66,23,27,10,65,22,ok,2,0,0.001,4,1.95,-0.36,9.21,28,0.101,8.20
4.1156,-0.07505,0.05411,0.38397,0.00000,0.00000,0.00000,41,0,69,19,28,10,65,23,ok,2,0,0.001,4,1.95,-0.36,9.21,28,0.114,8.20
4.1282,-0.07505,0.05411,0.38397,0.00000,0.00000,0.00000,42,1,70,15,29,10,65,24,ok,2,0,0.001,4,1.95,-0.36,9.21,28,0.127,8.20
4.1483,-0.07505,0.05411,0.38397,0.00000,0.00000,0.00000,42,1,70,13,30,9,65,26,ok,2,0,0.001,4,1.95,-0.36,9.21,28,0.140,8.20
4.1533,-0.07505,0.05411,0.38397,0.00000,0.00000,0.00000,44,1,70,12,33,9,65,27,ok,2,0,0.001,4,1.95,-0.36,9.21,28,0.152,8.20
4.1658,-0.07505,0.05411,0.38397,0.00000,0.00000,0.00000,44,1,70,8,33,9,64,29,ok,2,0,0.001,4,1.95,-0.36,9.21,28,0.165,8.20
4.1884,-0.07505,0.05411,0.38397,0.00000,0.00000,0.00000,45,2,69,6,35,9,64,30,ok,2,0,0.001,4,1.95,-0.36,9.21,28,0.177,8.20
4.1918,-0.07505,0.05411,0.38397,0.00000,0.00000,0.00000,46,2,68,3,37,8,64,31,ok,2,0,0.001,4,1.95,-0.36,9.21,28,0.190,8.20
4.2045,-0.13614,0.01396,0.46077,0.00000,0.00000,0.00000,46,2,67,0,38,8,64,33,ok,2,0,0.001,4,-0.30,-2.56,10.01,29,0.000,8.20
4.2243,-0.13614,0.01396,0.46077,0.00000,0.00000,0.00000,47,2,66,-2,39,7,64,35,ok,2,0,0.001,4,-0.30,-2.56,10.01,29,0.013,8.20
4.2292,-0.13614,0.01396,0.46077,0.00000,0.00000,0.00000,48,2,64,-3,40,7,64,36,ok,2,0,0.001,4,-0.30,-2.56,10.01,29,0.025,8.20
4.2419,-0.13614,0.01396,0.46077,0.00000,0.00000,0.00000,48,2,62,-4,41,6,65,36,ok,2,0,0.001,4,-0.30,-2.56,10.01,29,0.038,8.20
4.2644,-0.13614,0.01396,0.46077,0.00000,0.00000,0.00000,48,2,61,-6,42,7,66,35,ok,2,0,0.001,4,-0.30,-2.56,10.01,29,0.050,8.20
4.2676,-0.13614,0.01396,0.46077,0.00000,0.00000,0.00000,49,2,60,-8,43,7,68,33,ok,2,0,0.001,4,-0.30,-2.56,10.01,29,0.063,8.20
4.2802,-0.13614,0.01396,0.46077,0.00000,0.00000,0.00000,50,3,58,-8,44,7,70,28,ok,2,0,0.001,4,-0.30,-2.56,10.01,29,0.076,8.20
4.3003,-0.13614,0.01396,0.46077,0.00000,0.00000,0.00000,50,3,55,-9,45,7,71,24,ok,2,0,0.001,4,-0.30,-2.56,10.01,29,0.089,8.20
4.3052,-0.13614,0.01396,0.46077,0.00000,0.00000,0.00000,50,3,53,-9,46,7,72,21,ok,2,0,0.001,4,-0.30,-2.56,10.01,29,0.101,8.20
4.3178,-0.13614,0.01396,0.46077,0.00000,0.00000,0.00000,50,5,51,-10,47,7,72,21,ok,2,0,0.001,4,-0.30,-2.56,10.01,29,0.114,8.20
4.3404,-0.13614,0.01396,0.46077,0.00000,0.00000,0.00000,51,6,49,-10,48,7,73,19,ok,2,0,0.001,4,-0.30,-2.56,10.01,29,0.126,8.20
4.3435,-0.13614,0.01396,0.46077,0.00000,0.00000,0.00000,52,5,46,-10,49,7,73,15,ok,2,0,0.001,4,-0.30,-2.56,10.01,29,0.139,8.20
4.3562,-0.13614,0.01396,0.46077,0.00000,0.00000,0.00000,52,6,44,-10,49,7,72,12,ok,2,0,0.001,4,-0.30,-2.56,10.01,29,0.152,8.20
4.3763,-0.13614,0.01396,0.46077,0.00000,0.00000,0.00000,52,7,41,-10,50,7,71,11,ok,2,0,0.001,4,-0.30,-2.56,10.01,29,0.165,8.20
4.3812,-0.13614,0.01396,0.46077,0.00000,0.00000,0.00000,53,7,39,-10,51,7,71,7,ok,2,0,0.001,4,-0.30,-2.56,10.01,29,0.177,8.20
4.3937,-0.13614,0.01396,0.46077,0.00000,0.00000,0.00000,54,7,36,-9,52,6,71,6,ok,2,0,0.001,4,-0.30,-2.56,10.01,29,0.190,8.20
4.4164,-0.06109,-0.03491,0.47647,0.00000,0.00000,0.00000,54,7,33,-9,52,7,70,4,ok,2,0,0.001,4,1.18,-0.74,10.55,30,0.000,8.20
4.4197,-0.06109,-0.03491,0.47647,0.00000,0.00000,0.00000,54,8,30,-8,53,7,68,2,ok,2,0,0.001,4,1.18,-0.74,10.55,30,0.013,8.20
4.4322,-0.06109,-0.03491,0.47647,0.00000,0.00000,0.00000,54,8,27,-7,54,8,66,2,ok,2,0,0.001,4,1.18,-0.74,10.55,30,0.026,8.20
4.4524,-0.06109,-0.03491,0.47647,0.00000,0.00000,0.00000,54,9,24,-5,55,8,64,0,ok,2,0,0.001,4,1.18,-0.74,10.55,30,0.039,8.20
4.4572,-0.06109,-0.03491,0.47647,0.00000,0.00000,0.00000,55,10,21,-3,56,8,64,-2,ok,2,0,0.001,4,1.18,-0.74,10.55,30,0.051,8.20
4.4698,-0.06109,-0.03491,0.47647,0.00000,0.00000,0.00000,56,10,19,-1,58,6,61,-3,ok,2,0,0.001,4,1.18,-0.74,10.55,30,0.064,8.20
4.4924,-0.06109,-0.03491,0.47647,0.00000,0.00000,0.00000,56,10,18,0,58,7,59,-4,ok,2,0,0.001,4,1.18,-0.74,10.55,30,0.076,8.20
4.4958,-0.06109,-0.03491,0.47647,0.00000,0.00000,0.00000,56,11,16,2,59,8,58,-4,ok,2,0,0.001,4,1.18,-0.74,10.55,30,0.089,8.20
4.5082,-0.06109,-0.03491,0.47647,0.00000,0.00000,0.00000,56,12,15,5,59,8,55,-5,ok,2,0,0.001,4,1.18,-0.74,10.55,30,0.102,8.20
4.5283,-0.06109,-0.03491,0.47647,0.00000,0.00000,0.00000,56,13,13,9,60,9,53,-6,ok,2,0,0.001,4,1.18,-0.74,10.55,30,0.115,8.20
4.5332,-0.06109,-0.03491,0.47647,0.00000,0.00000,0.00000,56,13,13,11,60,9,50,-5,ok,2,0,0.001,4,1.18,-0.74,10.55,30,0.127,8.20
4.5457,-0.06109,-0.03491,0.47647,0.00000,0.00000,0.00000,56,13,15,12,60,9,47,-5,ok,2,0,0.001,4,1.18,-0.74,10.55,30,0.140,8.20
4.5684,-0.06109,-0.03491,0.47647,0.00000,0.00000,0.00000,56,14,15,11,61,10,45,-5,ok,2,0,0.001,4,1.18,-0.74,10.55,30,0.152,8.20
4.5716,-0.06109,-0.03491,0.47647,0.00000,0.00000,0.00000,56,14,17,10,61,11,42,-4,ok,2,0,0.001,4,1.18,-0.74,10.55,30,0.165,8.20
4.5843,-0.06109,-0.03491,0.47647,0.00000,0.00000,0.00000,56,15,19,9,61,12,40,-4,ok,2,0,0.001,5,1.18,-0.74,10.55,30,0.178,8.20
4.6043,-0.06109,-0.03491,0.47647,0.00000,0.00000,0.00000,56,16,19,9,61,12,37,-3,ok,2,0,0.001,5,1.18,-0.74,10.55,30,0.191,8.20
4.6095,0.01571,0.05236,0.44331,0.00000,0.00000,0.00000,57,16,21,8,62,13,35,-3,ok,2,0,0.001,5,0.32,-0.01,9.21,31,0.000,8.20
4.6220,0.01571,0.05236,0.44331,0.00000,0.00000,0.00000,57,18,22,7,62,14,30,-1,ok,2,0,0.001,5,0.32,-0.01,9.21,31,0.013,8.20
4.6445,0.01571,0.05236,0.44331,0.00000,0.00000,0.00000,58,19,23,6,63,14,29,0,ok,2,0,0.001,5,0.32,-0.01,9.21,31,0.025,8.20
4.6511,0.01571,0.05236,0.44331,0.00000,0.00000,0.00000,58,20,24,5,63,15,27,2,ok,2,0,0.001,5,0.32,-0.01,9.21,31,0.042,8.20
4.6634,0.01571,0.05236,0.44331,0.00000,0.00000,0.00000,58,21,24,5,63,16,25,5,ok,2,0,0.001,5,0.32,-0.01,9.21,31,0.054,8.20
4.6843,0.01571,0.05236,0.44331,0.00000,0.00000,0.00000,58,23,25,4,63,17,23,7,ok,2,0,0.001,5,0.32,-0.01,9.21,31,0.067,8.20
4.6885,0.01571,0.05236,0.44331,0.00000,0.00000,0.00000,58,23,26,3,64,17,22,11,ok,2,0,0.001,5,0.32,-0.01,9.21,31,0.079,8.20
4.7010,0.01571,0.05236,0.44331,0.00000,0.00000,0.00000,57,26,27,2,64,18,22,13,ok,2,0,0.001,5,0.32,-0.01,9.21,31,0.092,8.20
4.7244,0.01571,0.05236,0.44331,0.00000,0.00000,0.00000,57,27,27,2,64,20,24,12,ok,2,0,0.001,5,0.32,-0.01,9.21,31,0.104,8.20
4.7278,0.01571,0.05236,0.44331,0.00000,0.00000,0.00000,58,26,28,2,64,21,24,12,ok,2,0,0.001,5,0.32,-0.01,9.21,31,0.118,8.20
4.7402,0.01571,0.05236,0.44331,0.00000,0.00000,0.00000,58,22,30,2,65,22,25,10,ok,2,0,0.001,5,0.32,-0.01,9.21,31,0.131,8.20
4.7603,0.01571,0.05236,0.44331,0.00000,0.00000,0.00000,60,18,31,1,64,23,26,9,ok,2,0,0.001,5,0.32,-0.01,9.21,31,0.144,8.20
4.7652,0.01571,0.05236,0.44331,0.00000,0.00000,0.00000,60,13,32,2,64,25,28,10,ok,2,0,0.001,5,0.32,-0.01,9.21,31,0.156,8.20
4.7780,0.01571,0.05236,0.44331,0.00000,0.00000,0.00000,60,11,33,2,65,25,29,9,ok,2,0,0.001,5,0.32,-0.01,9.21,31,0.169,8.20
4.8004,0.01571,0.05236,0.44331,0.00000,0.00000,0.00000,60,10,35,2,64,28,30,9,ok,2,0,0.001,5,0.32,-0.01,9.21,31,0.181,8.20
4.8036,0.01571,0.05236,0.44331,0.00000,0.00000,0.00000,60,7,37,2,64,29,32,9,ok,2,0,0.001,5,0.32,-0.01,9.21,31,0.194,8.20
4.8165,-0.08727,0.02094,0.50091,0.00000,0.00000,0.00000,60,5,38,3,64,30,33,9,ok,2,0,0.001,5,-1.57,-0.84,11.47,32,0.000,8.20
4.8363,-0.08727,0.02094,0.50091,0.00000,0.00000,0.00000,60,2,40,3,64,31,35,9,ok,2,0,0.001,5,-1.57,-0.84,11.47,32,0.013,8.20
4.8413,-0.08727,0.02094,0.50091,0.00000,0.00000,0.00000,59,-1,42,3,64,33,36,9,ok,2,0,0.001,5,-1.57,-0.84,11.47,32,0.025,8.20
4.8537,-0.08727,0.02094,0.50091,0.00000,0.00000,0.00000,58,-3,43,3,63,34,37,9,ok,2,0,0.001,5,-1.57,-0.84,11.47,32,0.037,8.20
4.8764,-0.08727,0.02094,0.50091,0.00000,0.00000,0.00000,58,-4,44,3,64,35,38,8,ok,2,0,0.001,5,-1.57,-0.84,11.47,32,0.050,8.20
4.8796,-0.08727,0.02094,0.50091,0.00000,0.00000,0.00000,56,-6,44,3,65,35,40,8,ok,2,0,0.001,5,-1.57,-0.84,11.47,32,0.063,8.20
4.8922,-0.08727,0.02094,0.50091,0.00000,0.00000,0.00000,56,-7,45,3,67,33,41,7,ok,2,0,0.001,5,-1.57,-0.84,11.47,32,0.076,8.20
4.9123,-0.08727,0.02094,0.50091,0.00000,0.00000,0.00000,56,-9,47,4,69,28,42,7,ok,2,0,0.001,5,-1.57,-0.84,11.47,32,0.089,8.20
4.9174,-0.08727,0.02094,0.50091,0.00000,0.00000,0.00000,54,-10,48,5,71,24,43,7,ok,2,0,0.001,5,-1.57,-0.84,11.47,32,0.101,8.20
4.9298,-0.08727,0.02094,0.50091,0.00000,0.00000,0.00000,54,-11,49,4,73,21,44,8,ok,2,0,0.001,5,-1.57,-0.84,11.47,32,0.114,8.20
4.9524,-0.08727,0.02094,0.50091,0.00000,0.00000,0.00000,52,-11,49,4,74,20,45,8,ok,2,0,0.001,5,-1.57,-0.84,11.47,32,0.126,8.20
4.9556,-0.08727,0.02094,0.50091,0.00000,0.00000,0.00000,51,-11,49,6,74,18,46,8,ok,2,0,0.001,5,-1.57,-0.84,11.47,32,0.139,8.20
4.9684,-0.08727,0.02094,0.50091,0.00000,0.00000,0.00000,50,-11,51,6,74,14,47,8,ok,2,0,0.001,5,-1.57,-0.84,11.47,32,0.152,8.20
4.9883,-0.08727,0.02094,0.50091,0.00000,0.00000,0.00000,48,-11,52,6,73,11,48,8,ok,2,0,0.001,5,-1.57,-0.84,11.47,32,0.165,8.20
4.9931,-0.08727,0.02094,0.50091,0.00000,0.00000,0.00000,48,-10,53,6,73,10,49,8,ok,2,0,0.001,5,-1.57,-0.84,11.47,32,0.177,8.20
5.0057,-0.08727,0.02094,0.50091,0.00000,0.00000,0.00000,46,-10,53,7,72,6,49,9,ok,2,0,0.001,5,-1.57,-0.84,11.47,32,0.190,8.20
5.0324,0.01047,0.00524,0.51138,0.00000,0.00000,0.00000,44,-11,55,7,72,4,50,8,ok,2,0,0.001,5,0.58,-0.12,10.12,33,0.000,8.20
5.0358,0.01047,0.00524,0.51138,0.00000,0.00000,0.00000,43,-10,56,7,71,4,51,9,ok,2,0,0.001,5,0.58,-0.12,10.12,33,0.017,8.20
5.0482,0.01047,0.00524,0.51138,0.00000,0.00000,0.00000,42,-8,57,7,69,1,51,8,ok,2,0,0.001,5,0.58,-0.12,10.12,33,0.030,8.20
5.0684,0.01047,0.00524,0.51138,0.00000,0.00000,0.00000,40,-7,57,8,66,2,52,9,ok,2,0,0.001,5,0.58,-0.12,10.12,33,0.043,8.20
5.0732,0.01047,0.00524,0.51138,0.00000,0.00000,0.00000,38,-5,58,7,65,-1,52,9,ok,2,0,0.001,5,0.58,-0.12,10.12,33,0.055,8.20
5.0858,0.01047,0.00524,0.51138,0.00000,0.00000,0.00000,37,-3,58,8,64,-2,54,9,ok,2,0,0.001,5,0.58,-0.12,10.12,33,0.068,8.20
5.1084,0.01047,0.00524,0.51138,0.00000,0.00000,0.00000,35,-1,59,9,62,-4,54,9,ok,2,0,0.001,5,0.58,-0.12,10.12,33,0.080,8.20
5.1116,0.01047,0.00524,0.51138,0.00000,0.00000,0.00000,35,0,60,10,61,-5,54,8,ok,2,0,0.001,5,0.58,-0.12,10.12,33,0.093,8.20
5.1242,0.01047,0.00524,0.51138,0.00000,0.00000,0.00000,34,1,61,9,59,-6,56,6,ok,2,0,0.001,5,0.58,-0.12,10.12,33,0.106,8.20
5.1443,0.01047,0.00524,0.51138,0.00000,0.00000,0.00000,34,3,61,11,56,-7,57,7,ok,2,0,0.001,5,0.58,-0.12,10.12,33,0.119,8.20
5.1493,0.01047,0.00524,0.51138,0.00000,0.00000,0.00000,32,6,61,10,54,-7,58,8,ok,2,0,0.001,5,0.58,-0.12,10.12,33,0.131,8.20
5.1617,0.01047,0.00524,0.51138,0.00000,0.00000,0.00000,32,9,61,12,51,-6,58,8,ok,2,0,0.001,5,0.58,-0.12,10.12,33,0.144,8.20
5.1844,0.01047,0.00524,0.51138,0.00000,0.00000,0.00000,31,11,61,12,48,-6,59,9,ok,2,0,0.001,5,0.58,-0.12,10.12,33,0.156,8.20
5.1877,0.01047,0.00524,0.51138,0.00000,0.00000,0.00000,32,11,62,13,46,-6,60,10,ok,2,0,0.001,5,0.58,-0.12,10.12,33,0.169,8.20
5.2002,0.01047,0.00524,0.51138,0.00000,0.00000,0.00000,32,11,61,13,43,-5,60,10,ok,2,0,0.001,5,0.58,-0.12,10.12,33,0.182,8.20
5.2204,0.01047,0.00524,0.51138,0.00000,0.00000,0.00000,33,10,62,14,40,-5,60,11,ok,2,0,0.001,5,0.58,-0.12,10.12,33,0.195,8.20
5.2255,-0.13265,-0.01222,0.51313,0.00000,0.00000,0.00000,34,9,62,14,38,-4,60,12,ok,2,0,0.001,5,0.13,-1.81,9.76,34,0.000,8.20
5.2377,-0.13265,-0.01222,0.51313,0.00000,0.00000,0.00000,34,8,62,15,34,-4,62,13,ok,2,0,0.001,5,0.13,-1.81,9.76,34,0.013,8.20
5.2604,-0.13265,-0.01222,0.51313,0.00000,0.00000,0.00000,36,7,63,16,31,-2,62,13,ok,2,0,0.001,5,0.13,-1.81,9.76,34,0.025,8.20
5.2637,-0.13265,-0.01222,0.51313,0.00000,0.00000,0.00000,36,6,63,17,29,-1,63,14,ok,2,0,0.001,5,0.13,-1.81,9.76,34,0.038,8.20
5.2762,-0.13265,-0.01222,0.51313,0.00000,0.00000,0.00000,36,5,64,19,27,1,63,15,ok,2,0,0.001,5,0.13,-1.81,9.76,34,0.051,8.20
5.2963,-0.13265,-0.01222,0.51313,0.00000,0.00000,0.00000,37,4,64,20,25,4,64,15,ok,2,0,0.001,5,0.13,-1.81,9.76,34,0.064,8.20
5.3012,-0.13265,-0.01222,0.51313,0.00000,0.00000,0.00000,38,4,64,21,24,7,64,17,ok,2,0,0.001,5,0.13,-1.81,9.76,34,0.076,8.20
5.3139,-0.13265,-0.01222,0.51313,0.00000,0.00000,0.00000,38,3,64,23,23,11,63,18,ok,2,0,0.001,5,0.13,-1.81,9.76,34,0.089,8.20
5.3363,-0.13265,-0.01222,0.51313,0.00000,0.00000,0.00000,38,3,64,24,22,14,64,18,ok,2,0,0.001,5,0.13,-1.81,9.76,34,0.101,8.20
5.3395,-0.13265,-0.01222,0.51313,0.00000,0.00000,0.00000,39,2,63,26,24,13,64,19,ok,2,0,0.001,5,0.13,-1.81,9.76,34,0.114,8.20
5.3522,-0.13265,-0.01222,0.51313,0.00000,0.00000,0.00000,40,2,63,27,24,13,64,20,ok,2,0,0.001,5,0.13,-1.81,9.76,34,0.127,8.20
5.3723,-0.13265,-0.01222,0.51313,0.00000,0.00000,0.00000,40,2,65,26,25,11,64,21,ok,2,0,0.001,5,0.13,-1.81,9.76,34,0.140,8.20
5.3772,-0.13265,-0.01222,0.51313,0.00000,0.00000,0.00000,40,2,67,22,27,10,65,22,ok,2,0,0.001,5,0.13,-1.81,9.76,34,0.152,8.20
5.3899,-0.13265,-0.01222,0.51313,0.00000,0.00000,0.00000,41,1,69,19,28,10,65,23,ok,2,0,0.001,5,0.13,-1.81,9.76,34,0.164,8.20
5.4124,-0.13265,-0.01222,0.51313,0.00000,0.00000,0.00000,42,2,70,15,29,10,64,24,ok,2,0,0.001,5,0.13,-1.81,9.76,34,0.177,8.20
5.4155,-0.13265,-0.01222,0.51313,0.00000,0.00000,0.00000,43,2,71,12,30,8,64,26,ok,2,0,0.001,5,0.13,-1.81,9.76,34,0.190,8.20
5.4285,-0.11694,-0.01047,0.53407,0.00000,0.00000,0.00000,44,2,70,12,33,8,65,27,ok,2,0,0.001,5,0.02,-1.65,10.90,35,0.000,8.20
5.4483,-0.11694,-0.01047,0.53407,0.00000,0.00000,0.00000,44,2,70,8,33,9,64,29,ok,2,0,0.001,5,0.02,-1.65,10.90,35,0.012,8.20
5.4532,-0.11694,-0.01047,0.53407,0.00000,0.00000,0.00000,45,3,69,5,35,8,64,31,ok,2,0,0.001,5,0.02,-1.65,10.90,35,0.025,8.20
5.4657,-0.11694,-0.01047,0.53407,0.00000,0.00000,0.00000,46,3,69,3,36,8,64,32,ok,2,0,0.001,5,0.02,-1.65,10.90,35,0.038,8.20
5.4883,-0.11694,-0.01047,0.53407,0.00000,0.00000,0.00000,46,3,67,0,37,8,64,33,ok,2,0,0.001,5,0.02,-1.65,10.90,35,0.050,8.20
5.4916,-0.11694,-0.01047,0.53407,0.00000,0.00000,0.00000,47,2,66,-2,39,7,63,35,ok,2,0,0.001,5,0.02,-1.65,10.90,35,0.063,8.20
5.5044,-0.11694,-0.01047,0.53407,0.00000,0.00000,0.00000,48,3,64,-3,40,7,63,36,ok,2,0,0.001,5,0.02,-1.65,10.90,35,0.076,8.20
5.5243,-0.11694,-0.01047,0.53407,0.00000,0.00000,0.00000,48,3,62,-4,41,6,64,36,ok,2,0,0.001,5,0.02,-1.65,10.90,35,0.089,8.20
5.5292,-0.11694,-0.01047,0.53407,0.00000,0.00000,0.00000,48,3,61,-6,42,6,65,35,ok,2,0,0.001,5,0.02,-1.65,10.90,35,0.101,8.20
5.5418,-0.11694,-0.01047,0.53407,0.00000,0.00000,0.00000,49,3,60,-8,43,7,67,33,ok,2,0,0.001,5,0.02,-1.65,10.90,35,0.114,8.20
5.5643,-0.11694,-0.01047,0.53407,0.00000,0.00000,0.00000,50,4,58,-8,44,7,69,28,ok,2,0,0.001,5,0.02,-1.65,10.90,35,0.126,8.20
5.5676,-0.11694,-0.01047,0.53407,0.00000,0.00000,0.00000,50,3,56,-9,45,7,70,24,ok,2,0,0.001,5,0.02,-1.65,10.90,35,0.139,8.20
5.5801,-0.11694,-0.01047,0.53407,0.00000,0.00000,0.00000,50,3,54,-9,46,7,72,21,ok,2,0,0.001,5,0.02,-1.65,10.90,35,0.152,8.20
5.6003,-0.11694,-0.01047,0.53407,0.00000,0.00000,0.00000,50,5,51,-10,47,7,72,21,ok,2,0,0.001,5,0.02,-1.65,10.90,35,0.164,8.20
5.6052,-0.11694,-0.01047,0.53407,0.00000,0.00000,0.00000,51,6,49,-10,47,7,72,19,ok,2,0,0.001,6,0.02,-1.65,10.90,35,0.177,8.20
5.6179,-0.11694,-0.01047,0.53407,0.00000,0.00000,0.00000,52,6,46,-10,49,7,72,15,ok,2,0,0.001,6,0.02,-1.65,10.90,35,0.190,8.20
5.6404,-0.11694,-0.01047,0.53407,0.00000,0.00000,0.00000,52,6,44,-10,49,7,72,13,ok,2,0,0.001,6,0.02,-1.65,10.90,35,0.202,8.20
5.6439,-0.01745,-0.03840,0.53756,0.00000,0.00000,0.00000,52,7,42,-10,50,7,71,11,ok,2,0,0.001,6,-0.67,0.37,9.72,36,0.000,8.20
5.6564,-0.01745,-0.03840,0.53756,0.00000,0.00000,0.00000,53,7,39,-11,51,7,70,7,ok,2,0,0.002,6,-0.67,0.37,9.72,36,0.013,8.20
5.6764,-0.01745,-0.03840,0.53756,0.00000,0.00000,0.00000,54,7,37,-10,52,7,70,6,ok,2,0,0.002,6,-0.67,0.37,9.72,36,0.025,8.20
5.6812,-0.01745,-0.03840,0.53756,0.00000,0.00000,0.00000,54,8,33,-9,52,7,69,4,ok,2,0,0.002,6,-0.67,0.37,9.72,36,0.038,8.20
5.6938,-0.01745,-0.03840,0.53756,0.00000,0.00000,0.00000,54,9,31,-8,53,8,67,2,ok,2,0,0.002,6,-0.67,0.37,9.72,36,0.050,8.20
5.7164,-0.01745,-0.03840,0.53756,0.00000,0.00000,0.00000,54,9,28,-7,54,8,65,2,ok,2,0,0.002,6,-0.67,0.37,9.72,36,0.063,8.20
5.7196,-0.01745,-0.03840,0.53756,0.00000,0.00000,0.00000,55,9,25,-5,55,8,64,0,ok,2,0,0.002,6,-0.67,0.37,9.72,36,0.076,8.20
5.7323,-0.01745,-0.03840,0.53756,0.00000,0.00000,0.00000,56,11,21,-3,56,8,64,-2,ok,2,0,0.002,6,-0.67,0.37,9.72,36,0.089,8.20
5.7523,-0.01745,-0.03840,0.53756,0.00000,0.00000,0.00000,56,11,19,-1,58,6,61,-3,ok,2,0,0.002,6,-0.67,0.37,9.72,36,0.101,8.20
5.7572,-0.01745,-0.03840,0.53756,0.00000,0.00000,0.00000,56,10,19,0,58,7,59,-4,ok,2,0,0.002,6,-0.67,0.37,9.72,36,0.114,8.20
5.7697,-0.01745,-0.03840,0.53756,0.00000,0.00000,0.00000,56,11,17,3,59,8,57,-5,ok,2,0,0.002,6,-0.67,0.37,9.72,36,0.126,8.20
5.7923,-0.01745,-0.03840,0.53756,0.00000,0.00000,0.00000,56,11,15,6,59,8,55,-5,ok,2,0,0.002,6,-0.67,0.37,9.72,36,0.139,8.20
5.7958,-0.01745,-0.03840,0.53756,0.00000,0.00000,0.00000,56,12,14,9,59,9,53,-6,ok,2,0,0.002,6,-0.67,0.37,9.72,36,0.152,8.20
5.8081,-0.01745,-0.03840,0.53756,0.00000,0.00000,0.00000,56,12,13,12,60,9,50,-5,ok,2,0,0.002,6,-0.67,0.37,9.72,36,0.165,8.20
5.8283,-0.01745,-0.03840,0.53756,0.00000,0.00000,0.00000,56,13,15,12,60,10,47,-5,ok,2,0,0.002,6,-0.67,0.37,9.72,36,0.177,8.20
5.8332,-0.01745,-0.03840,0.53756,0.00000,0.00000,0.00000,56,13,16,11,61,11,45,-5,ok,2,0,0.002,6,-0.67,0.37,9.72,36,0.190,8.20
5.8460,-0.01396,0.06283,0.50964,0.00000,0.00000,0.00000,56,14,17,10,61,11,42,-4,ok,2,0,0.002,6,1.43,-0.96,10.75,37,0.000,8.20
5.8684,-0.01396,0.06283,0.50964,0.00000,0.00000,0.00000,56,15,19,10,61,12,40,-4,ok,2,0,0.002,6,1.43,-0.96,10.75,37,0.013,8.20
5.8717,-0.01396,0.06283,0.50964,0.00000,0.00000,0.00000,56,15,20,9,61,12,36,-3,ok,2,0,0.002,6,1.43,-0.96,10.75,37,0.026,8.20
5.8842,-0.01396,0.06283,0.50964,0.00000,0.00000,0.00000,57,16,21,8,61,13,34,-3,ok,2,0,0.002,6,1.43,-0.96,10.75,37,0.039,8.20
5.9043,-0.01396,0.06283,0.50964,0.00000,0.00000,0.00000,56,17,22,8,62,14,30,-1,ok,2,0,0.002,6,1.43,-0.96,10.75,37,0.051,8.20
5.9091,-0.01396,0.06283,0.50964,0.00000,0.00000,0.00000,58,19,23,7,63,14,29,0,ok,2,0,0.002,6,1.43,-0.96,10.75,37,0.064,8.20
5.9219,-0.01396,0.06283,0.50964,0.00000,0.00000,0.00000,58,20,24,6,63,15,27,2,ok,2,0,0.002,6,1.43,-0.96,10.75,37,0.076,8.20
5.9443,-0.01396,0.06283,0.50964,0.00000,0.00000,0.00000,58,21,24,5,63,16,25,5,ok,2,0,0.002,6,1.43,-0.96,10.75,37,0.089,8.20
5.9476,-0.01396,0.06283,0.50964,0.00000,0.00000,0.00000,58,22,25,4,63,17,24,7,ok,2,0,0.002,6,1.43,-0.96,10.75,37,0.102,8.20
5.9602,-0.01396,0.06283,0.50964,0.00000,0.00000,0.00000,58,23,25,3,64,17,23,11,ok,2,0,0.002,6,1.43,-0.96,10.75,37,0.115,8.20
5.9803,-0.01396,0.06283,0.50964,0.00000,0.00000,0.00000,57,25,27,3,64,19,22,13,ok,2,0,0.002,6,1.43,-0.96,10.75,37,0.127,8.20
5.9851,-0.01396,0.06283,0.50964,0.00000,0.00000,0.00000,57,26,27,2,64,20,25,12,ok,2,0,0.002,6,1.43,-0.96,10.75,37,0.139,8.20
5.9977,-0.01396,0.06283,0.50964,0.00000,0.00000,0.00000,58,25,29,2,64,21,25,12,ok,2,0,0.002,6,1.43,-0.96,10.75,37,0.152,8.20
6.0204,-0.01396,0.06283,0.50964,0.00000,0.00000,0.00000,58,21,30,2,65,22,25,10,ok,2,0,0.002,6,1.43,-0.96,10.75,37,0.165,8.20
6.0235,-0.01396,0.06283,0.50964,0.00000,0.00000,0.00000,60,18,31,1,64,23,27,10,ok,2,0,0.002,6,1.43,-0.96,10.75,37,0.178,8.20
6.0363,-0.01396,0.06283,0.50964,0.00000,0.00000,0.00000,60,13,32,2,64,25,28,10,ok,2,0,0.002,6,1.43,-0.96,10.75,37,0.191,8.20
6.0563,-0.13788,0.04887,0.56549,0.00000,0.00000,0.00000,60,11,34,2,65,25,29,9,ok,2,0,0.002,6,-0.56,-1.41,9.79,38,0.000,8.20
6.0611,-0.13788,0.04887,0.56549,0.00000,0.00000,0.00000,60,10,35,2,64,27,31,9,ok,2,0,0.002,6,-0.56,-1.41,9.79,38,0.012,8.20
6.0737,-0.13788,0.04887,0.56549,0.00000,0.00000,0.00000,60,7,37,2,64,28,33,9,ok,2,0,0.002,6,-0.56,-1.41,9.79,38,0.025,8.20
6.0963,-0.13788,0.04887,0.56549,0.00000,0.00000,0.00000,60,4,38,3,64,30,34,9,ok,2,0,0.002,6,-0.56,-1.41,9.79,38,0.038,8.20
6.0996,-0.13788,0.04887,0.56549,0.00000,0.00000,0.00000,60,1,40,3,64,31,35,9,ok,2,0,0.002,6,-0.56,-1.41,9.79,38,0.051,8.20
6.1122,-0.13788,0.04887,0.56549,0.00000,0.00000,0.00000,59,-1,41,3,63,33,37,9,ok,2,0,0.002,6,-0.56,-1.41,9.79,38,0.064,8.20
6.1323,-0.13788,0.04887,0.56549,0.00000,0.00000,0.00000,58,-3,42,3,64,35,37,9,ok,2,0,0.002,6,-0.56,-1.41,9.79,38,0.076,8.20
6.1374,-0.13788,0.04887,0.56549,0.00000,0.00000,0.00000,58,-5,44,3,64,35,38,8,ok,2,0,0.002,6,-0.56,-1.41,9.79,38,0.089,8.20
6.1497,-0.13788,0.04887,0.56549,0.00000,0.00000,0.00000,56,-6,44,3,66,35,39,8,ok,2,0,0.002,6,-0.56,-1.41,9.79,38,0.101,8.20
6.1724,-0.13788,0.04887,0.56549,0.00000,0.00000,0.00000,56,-7,45,3,68,33,41,8,ok,2,0,0.002,6,-0.56,-1.41,9.79,38,0.114,8.20
6.1756,-0.13788,0.04887,0.56549,0.00000,0.00000,0.00000,56,-9,46,3,70,28,42,7,ok,2,0,0.002,6,-0.56,-1.41,9.79,38,0.127,8.20
6.1884,-0.13788,0.04887,0.56549,0.00000,0.00000,0.00000,54,-9,48,4,71,24,43,7,ok,2,0,0.002,6,-0.56,-1.41,9.79,38,0.140,8.20
6.2083,-0.13788,0.04887,0.56549,0.00000,0.00000,0.00000,54,-10,49,4,73,21,44,7,ok,2,0,0.002,6,-0.56,-1.41,9.79,38,0.152,8.20
6.2132,-0.13788,0.04887,0.56549,0.00000,0.00000,0.00000,52,-10,49,4,74,20,45,8,ok,2,0,0.002,6,-0.56,-1.41,9.79,38,0.165,8.20
6.2258,-0.13788,0.04887,0.56549,0.00000,0.00000,0.00000,51,-11,49,6,74,18,46,8,ok,2,0,0.002,6,-0.56,-1.41,9.79,38,0.177,8.20
6.2484,-0.13788,0.04887,0.56549,0.00000,0.00000,0.00000,50,-11,51,6,74,14,47,8,ok,2,0,0.002,6,-0.56,-1.41,9.79,38,0.190,8.20
6.2520,0.08029,0.02967,0.58469,0.00000,0.00000,0.00000,48,-11,52,6,73,11,48,8,ok,2,0,0.002,6,-0.54,0.97,9.55,39,0.000,8.20
6.2642,0.08029,0.02967,0.58469,0.00000,0.00000,0.00000,47,-10,53,6,73,10,49,8,ok,2,0,0.002,6,-0.54,0.97,9.55,39,0.013,8.20
6.2843,0.08029,0.02967,0.58469,0.00000,0.00000,0.00000,46,-10,53,6,73,7,49,9,ok,2,0,0.002,6,-0.54,0.97,9.55,39,0.025,8.20
6.2893,0.08029,0.02967,0.58469,0.00000,0.00000,0.00000,44,-10,55,6,73,5,49,8,ok,2,0,0.002,6,-0.54,0.97,9.55,39,0.038,8.20
6.3018,0.08029,0.02967,0.58469,0.00000,0.00000,0.00000,43,-9,56,6,72,4,50,9,ok,2,0,0.002,6,-0.54,0.97,9.55,39,0.050,8.20
6.3244,0.08029,0.02967,0.58469,0.00000,0.00000,0.00000,42,-7,57,6,70,1,51,8,ok,2,0,0.002,6,-0.54,0.97,9.55,39,0.063,8.20
6.3276,0.08029,0.02967,0.58469,0.00000,0.00000,0.00000,40,-6,57,7,67,2,51,8,ok,2,0,0.002,6,-0.54,0.97,9.55,39,0.076,8.20
6.3402,0.08029,0.02967,0.58469,0.00000,0.00000,0.00000,38,-4,57,6,65,-1,52,8,ok,2,0,0.002,6,-0.54,0.97,9.55,39,0.089,8.20
6.3603,0.08029,0.02967,0.58469,0.00000,0.00000,0.00000,37,-2,58,7,64,-3,54,8,ok,2,0,0.002,6,-0.54,0.97,9.55,39,0.101,8.20
6.3653,0.08029,0.02967,0.58469,0.00000,0.00000,0.00000,35,0,59,8,62,-4,55,8,ok,2,0,0.002,6,-0.54,0.97,9.55,39,0.113,8.20
6.3777,0.08029,0.02967,0.58469,0.00000,0.00000,0.00000,35,0,60,10,60,-5,54,8,ok,2,0,0.002,6,-0.54,0.97,9.55,39,0.126,8.20
6.4003,0.08029,0.02967,0.58469,0.00000,0.00000,0.00000,34,0,60,10,59,-6,56,6,ok,2,0,0.002,6,-0.54,0.97,9.55,39,0.139,8.20
6.4036,0.08029,0.02967,0.58469,0.00000,0.00000,0.00000,33,2,61,11,56,-6,57,7,ok,2,0,0.002,6,-0.54,0.97,9.55,39,0.152,8.20
6.4162,0.08029,0.02967,0.58469,0.00000,0.00000,0.00000,32,5,61,11,54,-7,58,8,ok,2,0,0.002,6,-0.54,0.97,9.55,39,0.165,8.20
6.4363,0.08029,0.02967,0.58469,0.00000,0.00000,0.00000,32,8,61,12,51,-6,58,8,ok,2,0,0.002,6,-0.54,0.97,9.55,39,0.177,8.20
6.4411,0.08029,0.02967,0.58469,0.00000,0.00000,0.00000,31,10,61,12,48,-6,59,9,ok,2,0,0.002,6,-0.54,0.97,9.55,39,0.189,8.20
6.4541,0.00349,0.04712,0.60388,0.00000,0.00000,0.00000,32,11,61,13,46,-6,60,10,ok,2,0,0.002,6,1.45,0.21,12.12,40,0.000,8.20
6.4764,0.00349,0.04712,0.60388,0.00000,0.00000,0.00000,32,10,61,14,43,-5,60,10,ok,2,0,0.002,6,1.45,0.21,12.12,40,0.013,8.20
6.4795,0.00349,0.04712,0.60388,0.00000,0.00000,0.00000,33,9,62,14,40,-5,61,11,ok,2,0,0.002,6,1.45,0.21,12.12,40,0.026,8.20
6.4925,0.00349,0.04712,0.60388,0.00000,0.00000,0.00000,34,8,62,15,37,-4,61,11,ok,2,0,0.002,6,1.45,0.21,12.12,40,0.039,8.20
6.5123,0.00349,0.04712,0.60388,0.00000,0.00000,0.00000,34,7,62,16,34,-3,62,13,ok,2,0,0.002,6,1.45,0.21,12.12,40,0.051,8.20
6.5171,0.00349,0.04712,0.60388,0.00000,0.00000,0.00000,35,6,63,16,31,-2,62,13,ok,2,0,0.002,6,1.45,0.21,12.12,40,0.064,8.20
6.5297,0.00349,0.04712,0.60388,0.00000,0.00000,0.00000,35,6,63,17,30,0,62,14,ok,2,0,0.002,6,1.45,0.21,12.12,40,0.076,8.20
6.5523,0.00349,0.04712,0.60388,0.00000,0.00000,0.00000,36,5,64,19,28,1,63,15,ok,2,0,0.002,6,1.45,0.21,12.12,40,0.089,8.20
6.5555,0.00349,0.04712,0.60388,0.00000,0.00000,0.00000,36,4,64,20,25,5,63,15,ok,2,0,0.002,6,1.45,0.21,12.12,40,0.102,8.20
6.5681,0.00349,0.04712,0.60388,0.00000,0.00000,0.00000,37,4,64,21,24,8,63,17,ok,2,0,0.002,6,1.45,0.21,12.12,40,0.115,8.20
6.5883,0.00349,0.04712,0.60388,0.00000,0.00000,0.00000,38,3,64,22,23,11,63,18,ok,2,0,0.002,6,1.45,0.21,12.12,40,0.127,8.20
6.5936,0.00349,0.04712,0.60388,0.00000,0.00000,0.00000,38,3,64,23,22,14,64,18,ok,2,0,0.002,6,1.45,0.21,12.12,40,0.139,8.20
6.6058,0.00349,0.04712,0.60388,0.00000,0.00000,0.00000,38,3,63,26,24,13,64,19,ok,2,0,0.002,6,1.45,0.21,12.12,40,0.152,8.20
6.6283,0.00349,0.04712,0.60388,0.00000,0.00000,0.00000,39,2,63,27,24,13,64,20,ok,2,0,0.002,7,1.45,0.21,12.12,40,0.165,8.20
6.6316,0.00349,0.04712,0.60388,0.00000,0.00000,0.00000,40,2,64,26,26,11,64,21,ok,2,0,0.002,7,1.45,0.21,12.12,40,0.178,8.20
6.6443,0.00349,0.04712,0.60388,0.00000,0.00000,0.00000,40,1,67,22,27,10,65,21,ok,2,0,0.002,7,1.45,0.21,12.12,40,0.191,8.20
6.6644,0.00349,0.04712,0.60388,0.00000,0.00000,0.00000,41,1,69,19,28,10,65,22,ok,2,0,0.002,7,1.45,0.21,12.12,40,0.203,8.20
6.6695,-0.07505,-0.00873,0.56723,0.00000,0.00000,0.00000,42,1,70,15,29,10,64,24,ok,2,0,0.002,7,-1.40,-1.69,8.80,41,0.000,8.20
6.6818,-0.07505,-0.00873,0.56723,0.00000,0.00000,0.00000,42,1,70,13,30,9,65,26,ok,2,0,0.002,7,-1.40,-1.69,8.80,41,0.013,8.20
6.7044,-0.07505,-0.00873,0.56723,0.00000,0.00000,0.00000,44,1,70,12,33,9,66,26,ok,2,0,0.002,7,-1.40,-1.69,8.80,41,0.025,8.20
6.7076,-0.07505,-0.00873,0.56723,0.00000,0.00000,0.00000,44,1,70,9,33,9,65,29,ok,2,0,0.002,7,-1.40,-1.69,8.80,41,0.038,8.20
6.7203,-0.07505,-0.00873,0.56723,0.00000,0.00000,0.00000,45,2,69,6,35,9,64,30,ok,2,0,0.002,7,-1.40,-1.69,8.80,41,0.051,8.20
6.7403,-0.07505,-0.00873,0.56723,0.00000,0.00000,0.00000,46,2,69,3,36,8,65,31,ok,2,0,0.002,7,-1.40,-1.69,8.80,41,0.064,8.20
6.7452,-0.07505,-0.00873,0.56723,0.00000,0.00000,0.00000,46,2,67,1,37,9,64,33,ok,2,0,0.002,7,-1.40,-1.69,8.80,41,0.076,8.20
6.7577,-0.07505,-0.00873,0.56723,0.00000,0.00000,0.00000,47,1,66,-1,38,8,64,34,ok,2,0,0.002,7,-1.40,-1.69,8.80,41,0.089,8.20
6.7804,-0.07505,-0.00873,0.56723,0.00000,0.00000,0.00000,48,2,65,-3,39,8,63,36,ok,2,0,0.002,7,-1.40,-1.69,8.80,41,0.101,8.20
6.7837,-0.07505,-0.00873,0.56723,0.00000,0.00000,0.00000,48,2,62,-4,41,7,64,36,ok,2,0,0.002,7,-1.40,-1.69,8.80,41,0.114,8.20
6.7962,-0.07505,-0.00873,0.56723,0.00000,0.00000,0.00000,48,3,61,-5,42,7,65,35,ok,2,0,0.002,7,-1.40,-1.69,8.80,41,0.127,8.20
6.8163,-0.07505,-0.00873,0.56723,0.00000,0.00000,0.00000,49,3,60,-8,43,7,67,33,ok,2,0,0.002,7,-1.40,-1.69,8.80,41,0.140,8.20
6.8213,-0.07505,-0.00873,0.56723,0.00000,0.00000,0.00000,50,4,58,-8,44,7,69,27,ok,2,0,0.002,7,-1.40,-1.69,8.80,41,0.152,8.20
6.8339,-0.07505,-0.00873,0.56723,0.00000,0.00000,0.00000,50,3,56,-9,45,7,70,24,ok,2,0,0.002,7,-1.40,-1.69,8.80,41,0.165,8.20
6.8563,-0.07505,-0.00873,0.56723,0.00000,0.00000,0.00000,50,3,54,-9,46,7,72,21,ok,2,0,0.002,7,-1.40,-1.69,8.80,41,0.177,8.20
6.8596,-0.07505,-0.00873,0.56723,0.00000,0.00000,0.00000,50,5,51,-10,47,7,72,21,ok,2,0,0.002,7,-1.40,-1.69,8.80,41,0.190,8.20
6.8726,-0.13265,-0.01047,0.64054,0.00000,0.00000,0.00000,51,6,49,-10,47,7,72,19,ok,2,0,0.002,7,0.14,-1.20,9.23,42,0.000,8.20
6.8923,-0.13265,-0.01047,0.64054,0.00000,0.00000,0.00000,52,6,46,-10,48,7,72,15,ok,2,0,0.002,7,0.14,-1.20,9.23,42,0.013,8.20
6.8972,-0.13265,-0.01047,0.64054,0.00000,0.00000,0.00000,52,6,44,-9,49,7,72,12,ok,2,0,0.002,7,0.14,-1.20,9.23,42,0.025,8.20
6.9097,-0.13265,-0.01047,0.64054,0.00000,0.00000,0.00000,52,7,42,-10,49,7,72,11,ok,2,0,0.002,7,0.14,-1.20,9.23,42,0.038,8.20
6.9324,-0.13265,-0.01047,0.64054,0.00000,0.00000,0.00000,54,7,39,-10,50,7,71,7,ok,2,0,0.002,7,0.14,-1.20,9.23,42,0.050,8.20
6.9355,-0.13265,-0.01047,0.64054,0.00000,0.00000,0.00000,54,7,37,-9,52,6,71,6,ok,2,0,0.002,7,0.14,-1.20,9.23,42,0.063,8.20
6.9482,-0.13265,-0.01047,0.64054,0.00000,0.00000,0.00000,54,7,33,-8,52,7,70,4,ok,2,0,0.002,7,0.14,-1.20,9.23,42,0.076,8.20
6.9683,-0.13265,-0.01047,0.64054,0.00000,0.00000,0.00000,54,8,31,-7,53,7,68,2,ok,2,0,0.002,7,0.14,-1.20,9.23,42,0.089,8.20
6.9732,-0.13265,-0.01047,0.64054,0.00000,0.00000,0.00000,54,8,27,-6,54,8,66,2,ok,2,0,0.002,7,0.14,-1.20,9.23,42,0.101,8.20
6.9857,-0.13265,-0.01047,0.64054,0.00000,0.00000,0.00000,54,8,24,-4,55,8,65,0,ok,2,0,0.002,7,0.14,-1.20,9.23,42,0.114,8.20
7.0084,-0.13265,-0.01047,0.64054,0.00000,0.00000,0.00000,55,9,21,-2,56,8,64,-2,ok,2,0,0.002,7,0.14,-1.20,9.23,42,0.126,8.20
7.0116,-0.13265,-0.01047,0.64054,0.00000,0.00000,0.00000,56,10,19,-1,58,6,62,-3,ok,2,0,0.002,7,0.14,-1.20,9.23,42,0.139,8.20
7.0242,-0.13265,-0.01047,0.64054,0.00000,0.00000,0.00000,56,10,18,0,58,7,60,-4,ok,2,0,0.002,7,0.14,-1.20,9.23,42,0.152,8.20
7.0444,-0.13265,-0.01047,0.64054,0.00000,0.00000,0.00000,56,11,16,3,59,8,58,-4,ok,2,0,0.002,7,0.14,-1.20,9.23,42,0.165,8.20
7.0491,-0.13265,-0.01047,0.64054,0.00000,0.00000,0.00000,56,11,15,6,59,8,55,-5,ok,2,0,0.002,7,0.14,-1.20,9.23,42,0.177,8.20
7.0619,-0.13265,-0.01047,0.64054,0.00000,0.00000,0.00000,56,12,13,9,59,9,53,-6,ok,2,0,0.002,7,0.14,-1.20,9.23,42,0.190,8.20
7.0844,-0.01920,0.05411,0.57421,0.00000,0.00000,0.00000,56,12,13,12,60,9,50,-5,ok,2,0,0.002,7,1.01,-0.01,9.05,43,0.000,8.20
7.0878,-0.01920,0.05411,0.57421,0.00000,0.00000,0.00000,56,13,14,12,60,10,47,-5,ok,2,0,0.002,7,1.01,-0.01,9.05,43,0.013,8.20
7.1002,-0.01920,0.05411,0.57421,0.00000,0.00000,0.00000,56,14,15,11,61,10,45,-5,ok,2,0,0.002,7,1.01,-0.01,9.05,43,0.026,8.20
7.1203,-0.01920,0.05411,0.57421,0.00000,0.00000,0.00000,56,14,16,10,61,11,42,-4,ok,2,0,0.002,7,1.01,-0.01,9.05,43,0.039,8.20
7.1252,-0.01920,0.05411,0.57421,0.00000,0.00000,0.00000,56,15,19,9,62,12,40,-4,ok,2,0,0.002,7,1.01,-0.01,9.05,43,0.051,8.20
7.1380,-0.01920,0.05411,0.57421,0.00000,0.00000,0.00000,56,16,19,8,61,12,36,-3,ok,2,0,0.002,7,1.01,-0.01,9.05,43,0.064,8.20
7.1603,-0.01920,0.05411,0.57421,0.00000,0.00000,0.00000,56,17,21,7,62,13,34,-3,ok,2,0,0.002,7,1.01,-0.01,9.05,43,0.076,8.20
7.1636,-0.01920,0.05411,0.57421,0.00000,0.00000,0.00000,56,18,21,7,62,14,31,-1,ok,2,0,0.002,7,1.01,-0.01,9.05,43,0.089,8.20
7.1762,-0.01920,0.05411,0.57421,0.00000,0.00000,0.00000,57,19,22,6,63,14,30,0,ok,2,0,0.002,7,1.01,-0.01,9.05,43,0.102,8.20
7.1963,-0.01920,0.05411,0.57421,0.00000,0.00000,0.00000,58,21,24,5,63,15,27,2,ok,2,0,0.002,7,1.01,-0.01,9.05,43,0.115,8.20
7.2012,-0.01920,0.05411,0.57421,0.00000,0.00000,0.00000,58,21,24,4,63,16,25,5,ok,2,0,0.002,7,1.01,-0.01,9.05,43,0.127,8.20
7.2139,-0.01920,0.05411,0.57421,0.00000,0.00000,0.00000,58,22,25,4,63,17,24,7,ok,2,0,0.002,7,1.01,-0.01,9.05,43,0.140,8.20
7.2364,-0.01920,0.05411,0.57421,0.00000,0.00000,0.00000,58,23,25,3,64,17,23,11,ok,2,0,0.002,7,1.01,-0.01,9.05,43,0.152,8.20
7.2396,-0.01920,0.05411,0.57421,0.00000,0.00000,0.00000,57,26,27,3,64,19,22,13,ok,2,0,0.002,7,1.01,-0.01,9.05,43,0.165,8.20
7.2522,-0.01920,0.05411,0.57421,0.00000,0.00000,0.00000,57,26,27,2,64,20,25,12,ok,2,0,0.002,7,1.01,-0.01,9.05,43,0.178,8.20
7.2723,-0.01920,0.05411,0.57421,0.00000,0.00000,0.00000,58,25,29,2,64,21,25,12,ok,2,0,0.002,7,1.01,-0.01,9.05,43,0.191,8.20
7.2776,-0.12566,0.09599,0.59516,0.00000,0.00000,0.00000,58,21,30,2,65,22,25,10,ok,2,0,0.002,7,0.95,-2.61,9.98,44,0.000,8.20
7.2899,-0.12566,0.09599,0.59516,0.00000,0.00000,0.00000,60,17,31,2,64,23,27,10,ok,2,0,0.002,7,0.95,-2.61,9.98,44,0.013,8.20
7.3123,-0.12566,0.09599,0.59516,0.00000,0.00000,0.00000,60,13,33,2,64,24,28,10,ok,2,0,0.002,7,0.95,-2.61,9.98,44,0.025,8.20
7.3156,-0.12566,0.09599,0.59516,0.00000,0.00000,0.00000,60,10,33,2,65,25,29,10,ok,2,0,0.002,7,0.95,-2.61,9.98,44,0.038,8.20
7.3282,-0.12566,0.09599,0.59516,0.00000,0.00000,0.00000,60,10,35,2,63,27,31,9,ok,2,0,0.002,7,0.95,-2.61,9.98,44,0.051,8.20
7.3483,-0.12566,0.09599,0.59516,0.00000,0.00000,0.00000,60,6,36,2,64,28,33,9,ok,2,0,0.002,7,0.95,-2.61,9.98,44,0.064,8.20
7.3532,-0.12566,0.09599,0.59516,0.00000,0.00000,0.00000,60,4,38,4,64,30,33,9,ok,2,0,0.002,7,0.95,-2.61,9.98,44,0.076,8.20
7.3659,-0.12566,0.09599,0.59516,0.00000,0.00000,0.00000,60,1,39,4,64,32,35,9,ok,2,0,0.002,7,0.95,-2.61,9.98,44,0.088,8.20
7.3883,-0.12566,0.09599,0.59516,0.00000,0.00000,0.00000,59,-1,41,3,64,34,36,9,ok,2,0,0.002,7,0.95,-2.61,9.98,44,0.101,8.20
7.3915,-0.12566,0.09599,0.59516,0.00000,0.00000,0.00000,58,-3,42,3,64,35,37,9,ok,2,0,0.002,7,0.95,-2.61,9.98,44,0.114,8.20
7.4042,-0.12566,0.09599,0.59516,0.00000,0.00000,0.00000,58,-4,43,3,65,35,38,8,ok,2,0,0.002,7,0.95,-2.61,9.98,44,0.127,8.20
7.4243,-0.12566,0.09599,0.59516,0.00000,0.00000,0.00000,56,-5,43,3,66,35,39,8,ok,2,0,0.002,7,0.95,-2.61,9.98,44,0.139,8.20
7.4292,-0.12566,0.09599,0.59516,0.00000,0.00000,0.00000,56,-6,45,3,68,32,41,7,ok,2,0,0.002,7,0.95,-2.61,9.98,44,0.152,8.20
7.4417,-0.12566,0.09599,0.59516,0.00000,0.00000,0.00000,56,-8,46,3,70,28,42,7,ok,2,0,0.002,7,0.95,-2.61,9.98,44,0.164,8.20
7.4644,-0.12566,0.09599,0.59516,0.00000,0.00000,0.00000,54,-9,47,4,71,24,44,7,ok,2,0,0.002,7,0.95,-2.61,9.98,44,0.177,8.20
7.4679,0.02618,0.04189,0.62134,0.00000,0.00000,0.00000,53,-10,48,4,73,21,44,7,ok,2,0,0.002,7,1.45,0.45,9.70,45,0.000,8.20
7.4802,0.02618,0.04189,0.62134,0.00000,0.00000,0.00000,52,-10,49,3,74,21,45,7,ok,2,0,0.002,7,1.45,0.45,9.70,45,0.013,8.20
7.5003,0.02618,0.04189,0.62134,0.00000,0.00000,0.00000,50,-11,49,5,75,19,46,7,ok,2,0,0.002,7,1.45,0.45,9.70,45,0.025,8.20
7.5052,0.02618,0.04189,0.62134,0.00000,0.00000,0.00000,50,-10,51,6,75,15,47,8,ok,2,0,0.002,7,1.45,0.45,9.70,45,0.038,8.20
7.5177,0.02618,0.04189,0.62134,0.00000,0.00000,0.00000,48,-10,52,5,74,12,48,8,ok,2,0,0.002,7,1.45,0.45,9.70,45,0.050,8.20
7.5404,0.02618,0.04189,0.62134,0.00000,0.00000,0.00000,47,-9,53,5,73,10,49,8,ok,2,0,0.002,7,1.45,0.45,9.70,45,0.063,8.20
7.5436,0.02618,0.04189,0.62134,0.00000,0.00000,0.00000,46,-10,53,6,72,7,49,9,ok,2,0,0.002,7,1.45,0.45,9.70,45,0.076,8.20
7.5562,0.02618,0.04189,0.62134,0.00000,0.00000,0.00000,44,-10,55,6,72,5,50,8,ok,2,0,0.002,7,1.45,0.45,9.70,45,0.089,8.20
7.5763,0.02618,0.04189,0.62134,0.00000,0.00000,0.00000,43,-9,56,6,71,3,51,8,ok,2,0,0.002,7,1.45,0.45,9.70,45,0.101,8.20
7.5811,0.02618,0.04189,0.62134,0.00000,0.00000,0.00000,42,-8,57,6,69,1,52,7,ok,2,0,0.002,7,1.45,0.45,9.70,45,0.114,8.20
7.5937,0.02618,0.04189,0.62134,0.00000,0.00000,0.00000,40,-7,57,7,66,1,52,8,ok,2,0,0.002,7,1.45,0.45,9.70,45,0.126,8.20
7.6163,0.02618,0.04189,0.62134,0.00000,0.00000,0.00000,38,-6,57,7,65,-1,53,8,ok,2,0,0.002,7,1.45,0.45,9.70,45,0.139,8.20
7.6196,0.02618,0.04189,0.62134,0.00000,0.00000,0.00000,37,-4,58,8,64,-2,54,9,ok,2,0,0.002,7,1.45,0.45,9.70,45,0.152,8.20
7.6322,0.02618,0.04189,0.62134,0.00000,0.00000,0.00000,35,-2,59,9,62,-4,55,8,ok,2,0,0.002,8,1.45,0.45,9.70,45,0.165,8.20
7.6523,0.02618,0.04189,0.62134,0.00000,0.00000,0.00000,34,-2,60,11,61,-5,55,8,ok,2,0,0.002,8,1.45,0.45,9.70,45,0.177,8.20
7.6574,0.02618,0.04189,0.62134,0.00000,0.00000,0.00000,34,-1,60,10,59,-6,56,6,ok,2,0,0.002,8,1.45,0.45,9.70,45,0.190,8.20
7.6699,0.02618,0.04189,0.62134,0.00000,0.00000,0.00000,33,2,61,11,56,-6,57,7,ok,2,0,0.002,8,1.45,0.45,9.70,45,0.202,8.20
7.6924,-0.00000,0.04363,0.65799,0.00000,0.00000,0.00000,32,5,61,11,54,-7,58,8,ok,2,0,0.002,8,-0.16,-0.65,10.07,46,0.000,8.20
7.6956,-0.00000,0.04363,0.65799,0.00000,0.00000,0.00000,32,8,61,12,51,-6,59,8,ok,2,0,0.002,8,-0.16,-0.65,10.07,46,0.013,8.20
7.7082,-0.00000,0.04363,0.65799,0.00000,0.00000,0.00000,31,10,61,12,48,-6,59,9,ok,2,0,0.002,8,-0.16,-0.65,10.07,46,0.026,8.20
7.7283,-0.00000,0.04363,0.65799,0.00000,0.00000,0.00000,32,11,61,13,46,-6,60,10,ok,2,0,0.002,8,-0.16,-0.65,10.07,46,0.039,8.20
7.7332,-0.00000,0.04363,0.65799,0.00000,0.00000,0.00000,32,10,61,14,43,-5,60,10,ok,2,0,0.002,8,-0.16,-0.65,10.07,46,0.051,8.20
7.7458,-0.00000,0.04363,0.65799,0.00000,0.00000,0.00000,32,9,62,14,40,-5,61,11,ok,2,0,0.002,8,-0.16,-0.65,10.07,46,0.064,8.20
7.7683,-0.00000,0.04363,0.65799,0.00000,0.00000,0.00000,34,8,61,15,38,-4,61,12,ok,2,0,0.002,8,-0.16,-0.65,10.07,46,0.076,8.20
7.7716,-0.00000,0.04363,0.65799,0.00000,0.00000,0.00000,34,8,62,15,35,-3,62,13,ok,2,0,0.002,8,-0.16,-0.65,10.07,46,0.089,8.20
7.7844,-0.00000,0.04363,0.65799,0.00000,0.00000,0.00000,35,7,63,16,32,-2,61,13,ok,2,0,0.002,8,-0.16,-0.65,10.07,46,0.102,8.20
7.8043,-0.00000,0.04363,0.65799,0.00000,0.00000,0.00000,35,7,63,17,30,0,62,14,ok,2,0,0.002,8,-0.16,-0.65,10.07,46,0.115,8.20
7.8092,-0.00000,0.04363,0.65799,0.00000,0.00000,0.00000,36,5,64,18,28,1,63,15,ok,2,0,0.002,8,-0.16,-0.65,10.07,46,0.127,8.20
7.8217,-0.00000,0.04363,0.65799,0.00000,0.00000,0.00000,36,5,64,19,26,4,63,15,ok,2,0,0.002,8,-0.16,-0.65,10.07,46,0.140,8.20
7.8444,-0.00000,0.04363,0.65799,0.00000,0.00000,0.00000,37,4,64,20,24,8,63,16,ok,2,0,0.002,8,-0.16,-0.65,10.07,46,0.152,8.20
7.8476,-0.00000,0.04363,0.65799,0.00000,0.00000,0.00000,38,4,64,22,23,11,63,17,ok,2,0,0.002,8,-0.16,-0.65,10.07,46,0.165,8.20
7.8601,-0.00000,0.04363,0.65799,0.00000,0.00000,0.00000,38,3,64,23,22,14,64,18,ok,2,0,0.002,8,-0.16,-0.65,10.07,46,0.178,8.20
7.8803,-0.00000,0.04363,0.65799,0.00000,0.00000,0.00000,39,3,63,26,24,13,64,19,ok,2,0,0.002,8,-0.16,-0.65,10.07,46,0.190,8.20
7.8855,-0.05236,0.01047,0.64752,0.00000,0.00000,0.00000,39,2,63,27,24,13,64,19,ok,2,0,0.002,8,0.46,0.37,9.76,47,0.000,8.20
7.8977,-0.05236,0.01047,0.64752,0.00000,0.00000,0.00000,40,2,64,26,26,11,64,21,ok,2,0,0.002,8,0.46,0.37,9.76,47,0.013,8.20
7.9204,-0.05236,0.01047,0.64752,0.00000,0.00000,0.00000,40,1,67,22,27,10,65,21,ok,2,0,0.002,8,0.46,0.37,9.76,47,0.025,8.20
7.9236,-0.05236,0.01047,0.64752,0.00000,0.00000,0.00000,41,1,69,19,28,10,65,22,ok,2,0,0.002,8,0.46,0.37,9.76,47,0.038,8.20
7.9362,-0.05236,0.01047,0.64752,0.00000,0.00000,0.00000,42,1,70,15,29,10,65,24,ok,2,0,0.002,8,0.46,0.37,9.76,47,0.051,8.20
7.9563,-0.05236,0.01047,0.64752,0.00000,0.00000,0.00000,42,1,71,13,30,9,65,26,ok,2,0,0.002,8,0.46,0.37,9.76,47,0.064,8.20
7.9613,-0.05236,0.01047,0.64752,0.00000,0.00000,0.00000,44,1,70,12,33,9,65,26,ok,2,0,0.002,8,0.46,0.37,9.76,47,0.076,8.20
7.9738,-0.05236,0.01047,0.64752,0.00000,0.00000,0.00000,44,1,70,9,33,9,64,29,ok,2,0,0.002,8,0.46,0.37,9.76,47,0.089,8.20
7.9964,-0.05236,0.01047,0.64752,0.00000,0.00000,0.00000,45,2,69,6,35,9,64,30,ok,2,0,0.002,8,0.46,0.37,9.76,47,0.101,8.20
7.9997,-0.05236,0.01047,0.64752,0.00000,0.00000,0.00000,46,2,69,3,36,8,64,31,ok,2,0,0.002,8,0.46,0.37,9.76,47,0.114,8.20
8.0122,-0.05236,0.01047,0.64752,0.00000,0.00000,0.00000,46,2,67,0,37,9,64,33,ok,2,0,0.002,8,0.46,0.37,9.76,47,0.127,8.20
8.0323,-0.05236,0.01047,0.64752,0.00000,0.00000,0.00000,47,2,66,-2,38,8,64,34,ok,2,0,0.002,8,0.46,0.37,9.76,47,0.140,8.20
8.0372,-0.05236,0.01047,0.64752,0.00000,0.00000,0.00000,48,3,64,-3,39,8,63,36,ok,2,0,0.002,8,0.46,0.37,9.76,47,0.152,8.20
8.0498,-0.05236,0.01047,0.64752,0.00000,0.00000,0.00000,48,3,62,-4,41,7,64,36,ok,2,0,0.002,8,0.46,0.37,9.76,47,0.165,8.20
8.0724,-0.05236,0.01047,0.64752,0.00000,0.00000,0.00000,48,3,61,-6,42,7,65,35,ok,2,0,0.002,8,0.46,0.37,9.76,47,0.177,8.20
8.0756,-0.05236,0.01047,0.64752,0.00000,0.00000,0.00000,49,3,60,-8,43,7,67,33,ok,2,0,0.002,8,0.46,0.37,9.76,47,0.190,8.20
8.0886,-0.12741,0.05411,0.70337,0.00000,0.00000,0.00000,50,4,58,-8,44,7,69,27,ok,2,0,0.002,8,0.16,-0.87,10.42,48,0.000,8.20
8.1083,-0.12741,0.05411,0.70337,0.00000,0.00000,0.00000,50,3,56,-9,44,7,71,24,ok,2,0,0.002,8,0.16,-0.87,10.42,48,0.013,8.20
8.1132,-0.12741,0.05411,0.70337,0.00000,0.00000,0.00000,50,3,54,-9,46,7,72,21,ok,2,0,0.002,8,0.16,-0.87,10.42,48,0.025,8.20
8.1259,-0.12741,0.05411,0.70337,0.00000,0.00000,0.00000,50,5,51,-10,47,7,73,21,ok,2,0,0.002,8,0.16,-0.87,10.42,48,0.037,8.20
8.1484,-0.12741,0.05411,0.70337,0.00000,0.00000,0.00000,51,5,49,-10,47,7,73,18,ok,2,0,0.002,8,0.16,-0.87,10.42,48,0.050,8.20
8.1516,-0.12741,0.05411,0.70337,0.00000,0.00000,0.00000,52,5,46,-10,48,7,73,15,ok,2,0,0.002,8,0.16,-0.87,10.42,48,0.063,8.20
8.1642,-0.12741,0.05411,0.70337,0.00000,0.00000,0.00000,52,5,44,-9,49,7,72,12,ok,2,0,0.002,8,0.16,-0.87,10.42,48,0.076,8.20
8.1843,-0.12741,0.05411,0.70337,0.00000,0.00000,0.00000,52,6,41,-9,50,7,72,11,ok,2,0,0.002,8,0.16,-0.87,10.42,48,0.088,8.20
8.1893,-0.12741,0.05411,0.70337,0.00000,0.00000,0.00000,53,6,39,-10,51,7,71,7,ok,2,0,0.002,8,0.16,-0.87,10.42,48,0.101,8.20
8.2017,-0.12741,0.05411,0.70337,0.00000,0.00000,0.00000,53,6,36,-9,52,6,71,6,ok,2,0,0.002,8,0.16,-0.87,10.42,48,0.114,8.20
8.2243,-0.12741,0.05411,0.70337,0.00000,0.00000,0.00000,54,7,33,-8,52,7,70,4,ok,2,0,0.002,8,0.16,-0.87,10.42,48,0.126,8.20
8.2276,-0.12741,0.05411,0.70337,0.00000,0.00000,0.00000,54,8,30,-7,53,7,68,2,ok,2,0,0.002,8,0.16,-0.87,10.42,48,0.139,8.20
8.2404,-0.12741,0.05411,0.70337,0.00000,0.00000,0.00000,54,8,27,-6,54,8,66,2,ok,2,0,0.002,8,0.16,-0.87,10.42,48,0.152,8.20
8.2603,-0.12741,0.05411,0.70337,0.00000,0.00000,0.00000,54,9,24,-4,55,8,65,0,ok,2,0,0.002,8,0.16,-0.87,10.42,48,0.165,8.20
8.2652,-0.12741,0.05411,0.70337,0.00000,0.00000,0.00000,55,10,20,-2,56,8,64,-2,ok,2,0,0.002,8,0.16,-0.87,10.42,48,0.177,8.20
8.2780,-0.12741,0.05411,0.70337,0.00000,0.00000,0.00000,55,10,18,-1,58,6,62,-3,ok,2,0,0.002,8,0.16,-0.87,10.42,48,0.189,8.20
8.3004,-0.01222,0.02967,0.66497,0.00000,0.00000,0.00000,56,10,18,0,58,7,60,-4,ok,2,0,0.002,8,0.59,-0.08,10.30,49,0.000,8.20
8.3036,-0.01222,0.02967,0.66497,0.00000,0.00000,0.00000,56,11,16,2,59,8,58,-5,ok,2,0,0.002,8,0.59,-0.08,10.30,49,0.013,8.20
8.3162,-0.01222,0.02967,0.66497,0.00000,0.00000,0.00000,56,11,14,5,60,9,55,-6,ok,2,0,0.002,8,0.59,-0.08,10.30,49,0.026,8.20
8.3363,-0.01222,0.02967,0.66497,0.00000,0.00000,0.00000,56,12,13,9,60,9,53,-6,ok,2,0,0.002,8,0.59,-0.08,10.30,49,0.039,8.20
8.3412,-0.01222,0.02967,0.66497,0.00000,0.00000,0.00000,56,12,12,11,61,10,50,-5,ok,2,0,0.002,8,0.59,-0.08,10.30,49,0.051,8.20
8.3537,-0.01222,0.02967,0.66497,0.00000,0.00000,0.00000,56,14,14,11,61,10,47,-5,ok,2,0,0.002,8,0.59,-0.08,10.30,49,0.064,8.20
8.3763,-0.01222,0.02967,0.66497,0.00000,0.00000,0.00000,56,14,15,11,61,11,45,-5,ok,2,0,0.002,8,0.59,-0.08,10.30,49,0.076,8.20
8.3795,-0.01222,0.02967,0.66497,0.00000,0.00000,0.00000,56,15,16,9,61,11,42,-4,ok,2,0,0.002,8,0.59,-0.08,10.30,49,0.089,8.20
8.3922,-0.01222,0.02967,0.66497,0.00000,0.00000,0.00000,56,16,18,8,61,12,40,-4,ok,2,0,0.002,8,0.59,-0.08,10.30,49,0.102,8.20
8.4123,-0.01222,0.02967,0.66497,0.00000,0.00000,0.00000,56,16,19,8,61,12,37,-3,ok,2,0,0.002,8,0.59,-0.08,10.30,49,0.114,8.20
8.4172,-0.01222,0.02967,0.66497,0.00000,0.00000,0.00000,56,17,21,7,62,13,35,-3,ok,2,0,0.002,8,0.59,-0.08,10.30,49,0.127,8.20
8.4297,-0.01222,0.02967,0.66497,0.00000,0.00000,0.00000,56,18,21,7,62,14,31,-1,ok,2,0,0.002,8,0.59,-0.08,10.30,49,0.139,8.20
8.4524,-0.01222,0.02967,0.66497,0.00000,0.00000,0.00000,58,19,23,6,63,14,30,0,ok,2,0,0.002,8,0.59,-0.08,10.30,49,0.152,8.20
8.4555,-0.01222,0.02967,0.66497,0.00000,0.00000,0.00000,58,20,24,5,63,15,27,1,ok,2,0,0.002,8,0.59,-0.08,10.30,49,0.165,8.20
8.4682,-0.01222,0.02967,0.66497,0.00000,0.00000,0.00000,58,21,24,5,63,16,25,5,ok,2,0,0.002,8,0.59,-0.08,10.30,49,0.178,8.20
8.4884,-0.01222,0.02967,0.66497,0.00000,0.00000,0.00000,58,22,25,4,63,17,24,7,ok,2,0,0.002,8,0.59,-0.08,10.30,49,0.190,8.20
8.4935,-0.08203,0.10996,0.66323,0.00000,0.00000,0.00000,58,23,26,3,64,17,23,11,ok,2,0,0.002,8,2.05,-2.66,11.07,50,0.000,8.20
8.5058,-0.08203,0.10996,0.66323,0.00000,0.00000,0.00000,57,26,27,3,63,18,22,13,ok,2,0,0.002,8,2.05,-2.66,11.07,50,0.013,8.20
8.5283,-0.08203,0.10996,0.66323,0.00000,0.00000,0.00000,57,26,28,2,63,19,25,12,ok,2,0,0.002,8,2.05,-2.66,11.07,50,0.025,8.20
8.5317,-0.08203,0.10996,0.66323,0.00000,0.00000,0.00000,58,25,29,2,64,20,25,12,ok,2,0,0.002,8,2.05,-2.66,11.07,50,0.038,8.20
8.5442,-0.08203,0.10996,0.66323,0.00000,0.00000,0.00000,58,21,29,2,64,22,26,10,ok,2,0,0.002,8,2.05,-2.66,11.07,50,0.051,8.20
8.5643,-0.08203,0.10996,0.66323,0.00000,0.00000,0.00000,60,17,31,2,64,23,27,10,ok,2,0,0.002,8,2.05,-2.66,11.07,50,0.064,8.20
8.5692,-0.08203,0.10996,0.66323,0.00000,0.00000,0.00000,60,12,32,2,64,24,28,10,ok,2,0,0.002,8,2.05,-2.66,11.07,50,0.076,8.20
8.5817,-0.08203,0.10996,0.66323,0.00000,0.00000,0.00000,60,10,33,2,65,25,29,10,ok,2,0,0.002,8,2.05,-2.66,11.07,50,0.088,8.20
8.6043,-0.08203,0.10996,0.66323,0.00000,0.00000,0.00000,60,10,35,2,64,27,30,9,ok,2,0,0.002,8,2.05,-2.66,11.07,50,0.101,8.20
8.6078,-0.08203,0.10996,0.66323,0.00000,0.00000,0.00000,60,6,36,2,64,29,33,9,ok,2,0,0.002,8,2.05,-2.66,11.07,50,0.114,8.20
8.6202,-0.08203,0.10996,0.66323,0.00000,0.00000,0.00000,60,4,38,3,64,30,33,9,ok,2,0,0.002,8,2.05,-2.66,11.07,50,0.127,8.20
8.6403,-0.08203,0.10996,0.66323,0.00000,0.00000,0.00000,59,1,39,3,64,32,35,9,ok,2,0,0.002,8,2.05,-2.66,11.07,50,0.139,8.20
8.6453,-0.08203,0.10996,0.66323,0.00000,0.00000,0.00000,59,-1,41,3,64,33,36,9,ok,2,0,0.002,9,2.05,-2.66,11.07,50,0.152,8.20
8.6578,-0.08203,0.10996,0.66323,0.00000,0.00000,0.00000,58,-3,42,2,64,35,37,9,ok,2,0,0.002,9,2.05,-2.66,11.07,50,0.165,8.20
8.6804,-0.08203,0.10996,0.66323,0.00000,0.00000,0.00000,58,-4,43,2,65,35,38,8,ok,2,0,0.002,9,2.05,-2.66,11.07,50,0.177,8.20
8.6836,-0.08203,0.10996,0.66323,0.00000,0.00000,0.00000,56,-5,43,2,66,35,39,8,ok,2,0,0.002,9,2.05,-2.66,11.07,50,0.190,8.20
8.6965,-0.02967,0.02793,0.68766,0.00000,0.00000,0.00000,56,-6,45,3,68,33,41,7,ok,2,0,0.002,9,1.20,0.77,10.95,51,0.000,8.20
8.7163,-0.02967,0.02793,0.68766,0.00000,0.00000,0.00000,56,-8,46,2,70,29,42,7,ok,2,0,0.002,9,1.20,0.77,10.95,51,0.013,8.20
8.7212,-0.02967,0.02793,0.68766,0.00000,0.00000,0.00000,54,-9,47,3,72,24,44,7,ok,2,0,0.002,9,1.20,0.77,10.95,51,0.025,8.20
8.7339,-0.02967,0.02793,0.68766,0.00000,0.00000,0.00000,53,-10,49,3,73,22,44,7,ok,2,0,0.002,9,1.20,0.77,10.95,51,0.037,8.20
8.7564,-0.02967,0.02793,0.68766,0.00000,0.00000,0.00000,52,-10,49,3,74,21,45,7,ok,2,0,0.002,9,1.20,0.77,10.95,51,0.050,8.20
8.7596,-0.02967,0.02793,0.68766,0.00000,0.00000,0.00000,51,-11,49,5,74,19,46,7,ok,2,0,0.002,9,1.20,0.77,10.95,51,0.063,8.20
8.7724,-0.02967,0.02793,0.68766,0.00000,0.00000,0.00000,50,-11,51,6,74,15,47,8,ok,2,0,0.002,9,1.20,0.77,10.95,51,0.076,8.20
8.7923,-0.02967,0.02793,0.68766,0.00000,0.00000,0.00000,48,-10,52,5,73,12,48,8,ok,2,0,0.002,9,1.20,0.77,10.95,51,0.088,8.20
8.7971,-0.02967,0.02793,0.68766,0.00000,0.00000,0.00000,47,-10,53,6,73,10,49,8,ok,2,0,0.002,9,1.20,0.77,10.95,51,0.101,8.20
8.8101,-0.02967,0.02793,0.68766,0.00000,0.00000,0.00000,46,-10,53,7,72,6,49,8,ok,2,0,0.002,9,1.20,0.77,10.95,51,0.114,8.20
8.8324,-0.02967,0.02793,0.68766,0.00000,0.00000,0.00000,44,-11,55,7,72,5,50,8,ok,2,0,0.002,9,1.20,0.77,10.95,51,0.126,8.20
8.8358,-0.02967,0.02793,0.68766,0.00000,0.00000,0.00000,43,-10,56,7,71,4,51,9,ok,2,0,0.002,9,1.20,0.77,10.95,51,0.139,8.20
8.8482,-0.02967,0.02793,0.68766,0.00000,0.00000,0.00000,42,-9,57,7,69,1,52,8,ok,2,0,0.002,9,1.20,0.77,10.95,51,0.152,8.20
8.8683,-0.02967,0.02793,0.68766,0.00000,0.00000,0.00000,40,-7,57,8,66,1,52,8,ok,2,0,0.002,9,1.20,0.77,10.95,51,0.165,8.20
8.8732,-0.02967,0.02793,0.68766,0.00000,0.00000,0.00000,38,-6,57,8,65,-1,53,8,ok,2,0,0.002,9,1.20,0.77,10.95,51,0.177,8.20
8.8857,-0.02967,0.02793,0.68766,0.00000,0.00000,0.00000,37,-4,58,8,64,-3,54,9,ok,2,0,0.002,9,1.20,0.77,10.95,51,0.190,8.20
8.9084,0.04712,0.00175,0.70686,0.00000,0.00000,0.00000,35,-2,59,9,61,-4,55,9,ok,2,0,0.002,9,0.68,0.01,10.68,52,0.000,8.20
8.9115,0.04712,0.00175,0.70686,0.00000,0.00000,0.00000,34,-1,60,10,61,-5,54,8,ok,2,0,0.002,9,0.68,0.01,10.68,52,0.013,8.20
8.9241,0.04712,0.00175,0.70686,0.00000,0.00000,0.00000,34,0,60,10,59,-5,56,6,ok,2,0,0.002,9,0.68,0.01,10.68,52,0.026,8.20
8.9443,0.04712,0.00175,0.70686,0.00000,0.00000,0.00000,33,2,61,11,56,-6,57,7,ok,2,0,0.002,9,0.68,0.01,10.68,52,0.038,8.20
8.9491,0.04712,0.00175,0.70686,0.00000,0.00000,0.00000,32,5,61,10,54,-7,58,8,ok,2,0,0.002,9,0.68,0.01,10.68,52,0.051,8.20
8.9619,0.04712,0.00175,0.70686,0.00000,0.00000,0.00000,32,9,61,11,51,-6,58,9,ok,2,0,0.002,9,0.68,0.01,10.68,52,0.063,8.20
8.9843,0.04712,0.00175,0.70686,0.00000,0.00000,0.00000,31,11,61,11,48,-6,59,9,ok,2,0,0.002,9,0.68,0.01,10.68,52,0.076,8.20
8.9876,0.04712,0.00175,0.70686,0.00000,0.00000,0.00000,32,12,62,12,46,-6,60,10,ok,2,0,0.002,9,0.68,0.01,10.68,52,0.089,8.20
9.0003,0.04712,0.00175,0.70686,0.00000,0.00000,0.00000,32,12,61,13,43,-5,60,10,ok,2,0,0.002,9,0.68,0.01,10.68,52,0.102,8.20
9.0204,0.04712,0.00175,0.70686,0.00000,0.00000,0.00000,33,10,62,13,40,-5,60,11,ok,2,0,0.002,9,0.68,0.01,10.68,52,0.114,8.20
9.0252,0.04712,0.00175,0.70686,0.00000,0.00000,0.00000,34,9,62,14,37,-4,61,11,ok,2,0,0.002,9,0.68,0.01,10.68,52,0.127,8.20
9.0377,0.04712,0.00175,0.70686,0.00000,0.00000,0.00000,34,9,62,15,35,-3,61,13,ok,2,0,0.002,9,0.68,0.01,10.68,52,0.139,8.20
9.0604,0.04712,0.00175,0.70686,0.00000,0.00000,0.00000,35,7,63,15,32,-2,61,13,ok,2,0,0.002,9,0.68,0.01,10.68,52,0.152,8.20
9.0636,0.04712,0.00175,0.70686,0.00000,0.00000,0.00000,36,7,63,17,30,0,62,14,ok,2,0,0.002,9,0.68,0.01,10.68,52,0.165,8.20
9.0764,0.04712,0.00175,0.70686,0.00000,0.00000,0.00000,36,6,64,18,28,1,62,15,ok,2,0,0.002,9,0.68,0.01,10.68,52,0.178,8.20
9.0964,0.04712,0.00175,0.70686,0.00000,0.00000,0.00000,37,5,64,19,25,5,63,15,ok,2,0,0.002,9,0.68,0.01,10.68,52,0.191,8.20
9.1015,-0.05411,0.04712,0.67719,0.00000,0.00000,0.00000,38,5,64,20,24,8,63,16,ok,2,0,0.002,9,-0.39,0.98,9.13,53,0.000,8.20
9.1139,-0.05411,0.04712,0.67719,0.00000,0.00000,0.00000,38,4,64,22,23,11,63,17,ok,2,0,0.002,9,-0.39,0.98,9.13,53,0.013,8.20
9.1363,-0.05411,0.04712,0.67719,0.00000,0.00000,0.00000,38,3,64,23,22,14,64,18,ok,2,0,0.002,9,-0.39,0.98,9.13,53,0.025,8.20
9.1396,-0.05411,0.04712,0.67719,0.00000,0.00000,0.00000,39,3,63,26,24,13,64,19,ok,2,0,0.002,9,-0.39,0.98,9.13,53,0.038,8.20
9.1521,-0.05411,0.04712,0.67719,0.00000,0.00000,0.00000,40,2,63,27,24,13,64,19,ok,2,0,0.002,9,-0.39,0.98,9.13,53,0.051,8.20
9.1723,-0.05411,0.04712,0.67719,0.00000,0.00000,0.00000,40,1,64,26,25,11,64,21,ok,2,0,0.002,9,-0.39,0.98,9.13,53,0.063,8.20
9.1771,-0.05411,0.04712,0.67719,0.00000,0.00000,0.00000,40,1,67,23,26,10,65,21,ok,2,0,0.002,9,-0.39,0.98,9.13,53,0.076,8.20
9.1898,-0.05411,0.04712,0.67719,0.00000,0.00000,0.00000,41,0,69,20,28,10,65,23,ok,2,0,0.002,9,-0.39,0.98,9.13,53,0.088,8.20
9.2124,-0.05411,0.04712,0.67719,0.00000,0.00000,0.00000,42,0,70,16,29,10,64,24,ok,2,0,0.002,9,-0.39,0.98,9.13,53,0.101,8.20
9.2156,-0.05411,0.04712,0.67719,0.00000,0.00000,0.00000,42,0,71,13,30,9,64,26,ok,2,0,0.002,9,-0.39,0.98,9.13,53,0.114,8.20
9.2283,-0.05411,0.04712,0.67719,0.00000,0.00000,0.00000,44,1,70,12,33,9,65,27,ok,2,0,0.002,9,-0.39,0.98,9.13,53,0.127,8.20
9.2483,-0.05411,0.04712,0.67719,0.00000,0.00000,0.00000,44,1,70,9,33,9,64,29,ok,2,0,0.002,9,-0.39,0.98,9.13,53,0.139,8.20
9.2533,-0.05411,0.04712,0.67719,0.00000,0.00000,0.00000,45,2,69,6,35,9,64,30,ok,2,0,0.002,9,-0.39,0.98,9.13,53,0.152,8.20
9.2657,-0.05411,0.04712,0.67719,0.00000,0.00000,0.00000,46,2,68,3,36,8,64,31,ok,2,0,0.002,9,-0.39,0.98,9.13,53,0.164,8.20
9.2883,-0.05411,0.04712,0.67719,0.00000,0.00000,0.00000,46,2,67,0,38,8,64,33,ok,2,0,0.002,9,-0.39,0.98,9.13,53,0.177,8.20
9.2917,-0.05411,0.04712,0.67719,0.00000,0.00000,0.00000,47,2,66,-2,39,8,64,34,ok,2,0,0.002,9,-0.39,0.98,9.13,53,0.190,8.20
9.3046,-0.14137,0.03840,0.71733,0.00000,0.00000,0.00000,48,3,64,-3,40,8,63,36,ok,2,0,0.002,9,0.55,-1.71,8.13,54,0.000,8.20
9.3243,-0.14137,0.03840,0.71733,0.00000,0.00000,0.00000,48,2,62,-4,41,6,65,36,ok,2,0,0.002,9,0.55,-1.71,8.13,54,0.013,8.20
9.3292,-0.14137,0.03840,0.71733,0.00000,0.00000,0.00000,48,3,61,-5,42,6,66,35,ok,2,0,0.002,9,0.55,-1.71,8.13,54,0.025,8.20
9.3418,-0.14137,0.03840,0.71733,0.00000,0.00000,0.00000,49,3,60,-8,43,6,68,33,ok,2,0,0.002,9,0.55,-1.71,8.13,54,0.037,8.20
9.3644,-0.14137,0.03840,0.71733,0.00000,0.00000,0.00000,50,3,58,-8,44,7,70,27,ok,2,0,0.002,9,0.55,-1.71,8.13,54,0.050,8.20
9.3676,-0.14137,0.03840,0.71733,0.00000,0.00000,0.00000,50,3,55,-9,45,7,71,24,ok,2,0,0.002,9,0.55,-1.71,8.13,54,0.063,8.20
9.3804,-0.14137,0.03840,0.71733,0.00000,0.00000,0.00000,50,2,53,-9,46,7,73,21,ok,2,0,0.002,9,0.55,-1.71,8.13,54,0.076,8.20
9.4003,-0.14137,0.03840,0.71733,0.00000,0.00000,0.00000,50,4,51,-10,47,7,73,21,ok,2,0,0.002,9,0.55,-1.71,8.13,54,0.088,8.20
9.4051,-0.14137,0.03840,0.71733,0.00000,0.00000,0.00000,51,5,48,-10,48,7,73,19,ok,2,0,0.002,9,0.55,-1.71,8.13,54,0.101,8.20
9.4179,-0.14137,0.03840,0.71733,0.00000,0.00000,0.00000,52,5,46,-10,49,7,73,15,ok,2,0,0.002,9,0.55,-1.71,8.13,54,0.113,8.20
9.4403,-0.14137,0.03840,0.71733,0.00000,0.00000,0.00000,52,6,44,-9,49,7,72,12,ok,2,0,0.002,9,0.55,-1.71,8.13,54,0.126,8.20
9.4436,-0.14137,0.03840,0.71733,0.00000,0.00000,0.00000,52,7,41,-10,50,7,72,11,ok,2,0,0.002,9,0.55,-1.71,8.13,54,0.139,8.20
9.4562,-0.14137,0.03840,0.71733,0.00000,0.00000,0.00000,53,7,39,-10,51,7,71,7,ok,2,0,0.002,9,0.55,-1.71,8.13,54,0.152,8.20
9.4763,-0.14137,0.03840,0.71733,0.00000,0.00000,0.00000,54,7,36,-9,52,6,71,6,ok,2,0,0.002,9,0.55,-1.71,8.13,54,0.164,8.20
9.4812,-0.14137,0.03840,0.71733,0.00000,0.00000,0.00000,54,7,33,-9,52,7,70,4,ok,2,0,0.002,9,0.55,-1.71,8.13,54,0.177,8.20
9.4939,-0.14137,0.03840,0.71733,0.00000,0.00000,0.00000,54,8,30,-7,53,7,68,2,ok,2,0,0.003,9,0.55,-1.71,8.13,54,0.189,8.20
9.5164,-0.04014,0.02618,0.68417,0.00000,0.00000,0.00000,54,8,27,-6,54,8,66,2,ok,2,0,0.003,9,0.62,-0.22,9.98,55,0.000,8.20
9.5195,-0.04014,0.02618,0.68417,0.00000,0.00000,0.00000,54,9,24,-5,55,8,65,0,ok,2,0,0.003,9,0.62,-0.22,9.98,55,0.013,8.20
9.5323,-0.04014,0.02618,0.68417,0.00000,0.00000,0.00000,55,10,20,-3,56,8,64,-2,ok,2,0,0.003,9,0.62,-0.22,9.98,55,0.026,8.20
9.5524,-0.04014,0.02618,0.68417,0.00000,0.00000,0.00000,55,10,19,-1,58,6,61,-3,ok,2,0,0.003,9,0.62,-0.22,9.98,55,0.039,8.20
9.5573,-0.04014,0.02618,0.68417,0.00000,0.00000,0.00000,56,10,18,0,58,7,59,-4,ok,2,0,0.003,9,0.62,-0.22,9.98,55,0.051,8.20
9.5698,-0.04014,0.02618,0.68417,0.00000,0.00000,0.00000,56,11,16,2,59,8,57,-5,ok,2,0,0.003,9,0.62,-0.22,9.98,55,0.064,8.20
9.5924,-0.04014,0.02618,0.68417,0.00000,0.00000,0.00000,56,11,15,5,59,8,55,-5,ok,2,0,0.003,9,0.62,-0.22,9.98,55,0.076,8.20
9.5956,-0.04014,0.02618,0.68417,0.00000,0.00000,0.00000,56,13,13,8,60,9,53,-6,ok,2,0,0.003,9,0.62,-0.22,9.98,55,0.089,8.20
9.6082,-0.04014,0.02618,0.68417,0.00000,0.00000,0.00000,56,13,12,11,60,9,50,-5,ok,2,0,0.003,9,0.62,-0.22,9.98,55,0.102,8.20
9.6283,-0.04014,0.02618,0.68417,0.00000,0.00000,0.00000,56,14,14,11,60,9,48,-5,ok,2,0,0.003,9,0.62,-0.22,9.98,55,0.115,8.20
9.6333,-0.04014,0.02618,0.68417,0.00000,0.00000,0.00000,56,14,15,11,61,10,46,-5,ok,2,0,0.003,9,0.62,-0.22,9.98,55,0.127,8.20
9.6459,-0.04014,0.02618,0.68417,0.00000,0.00000,0.00000,56,14,16,10,61,11,42,-4,ok,2,0,0.003,9,0.62,-0.22,9.98,55,0.140,8.20
9.6683,-0.04014,0.02618,0.68417,0.00000,0.00000,0.00000,56,15,18,9,61,12,40,-4,ok,2,0,0.003,9,0.62,-0.22,9.98,55,0.152,8.20
9.6717,-0.04014,0.02618,0.68417,0.00000,0.00000,0.00000,56,15,19,9,61,12,37,-3,ok,2,0,0.003,10,0.62,-0.22,9.98,55,0.165,8.20
9.6843,-0.04014,0.02618,0.68417,0.00000,0.00000,0.00000,56,16,21,8,62,13,35,-3,ok,2,0,0.003,10,0.62,-0.22,9.98,55,0.178,8.20
9.7044,-0.04014,0.02618,0.68417,0.00000,0.00000,0.00000,56,17,21,7,62,14,31,-1,ok,2,0,0.003,10,0.62,-0.22,9.98,55,0.191,8.20
9.7094,-0.04014,0.02618,0.68417,0.00000,0.00000,0.00000,58,19,23,6,63,14,30,0,ok,2,0,0.003,10,0.62,-0.22,9.98,55,0.203,8.20
9.7221,-0.02618,0.05760,0.67195,0.00000,0.00000,0.00000,58,20,24,5,63,15,27,2,ok,2,0,0.003,10,0.49,-0.06,9.31,56,0.000,8.20
9.7443,-0.02618,0.05760,0.67195,0.00000,0.00000,0.00000,58,21,24,5,63,16,25,5,ok,2,0,0.003,10,0.49,-0.06,9.31,56,0.013,8.20
9.7476,-0.02618,0.05760,0.67195,0.00000,0.00000,0.00000,58,22,25,4,63,17,24,7,ok,2,0,0.003,10,0.49,-0.06,9.31,56,0.026,8.20
9.7601,-0.02618,0.05760,0.67195,0.00000,0.00000,0.00000,58,23,26,3,64,17,23,11,ok,2,0,0.003,10,0.49,-0.06,9.31,56,0.038,8.20
9.7803,-0.02618,0.05760,0.67195,0.00000,0.00000,0.00000,57,26,27,3,64,18,22,13,ok,2,0,0.003,10,0.49,-0.06,9.31,56,0.051,8.20
9.7852,-0.02618,0.05760,0.67195,0.00000,0.00000,0.00000,57,27,27,2,64,20,24,12,ok,2,0,0.003,10,0.49,-0.06,9.31,56,0.063,8.20
9.7979,-0.02618,0.05760,0.67195,0.00000,0.00000,0.00000,58,25,29,2,64,21,25,12,ok,2,0,0.003,10,0.49,-0.06,9.31,56,0.076,8.20
9.8204,-0.02618,0.05760,0.67195,0.00000,0.00000,0.00000,58,21,30,2,65,22,25,10,ok,2,0,0.003,10,0.49,-0.06,9.31,56,0.088,8.20
9.8235,-0.02618,0.05760,0.67195,0.00000,0.00000,0.00000,60,18,31,1,64,23,27,10,ok,2,0,0.003,10,0.49,-0.06,9.31,56,0.102,8.20
9.8361,-0.02618,0.05760,0.67195,0.00000,0.00000,0.00000,60,13,32,2,64,25,28,10,ok,2,0,0.003,10,0.49,-0.06,9.31,56,0.114,8.20
9.8563,-0.02618,0.05760,0.67195,0.00000,0.00000,0.00000,60,11,33,2,65,25,29,9,ok,2,0,0.003,10,0.49,-0.06,9.31,56,0.127,8.20
9.8612,-0.02618,0.05760,0.67195,0.00000,0.00000,0.00000,60,11,35,2,64,28,30,9,ok,2,0,0.003,10,0.49,-0.06,9.31,56,0.139,8.20
9.8738,-0.02618,0.05760,0.67195,0.00000,0.00000,0.00000,60,7,36,2,64,29,32,9,ok,2,0,0.003,10,0.49,-0.06,9.31,56,0.152,8.20
9.8964,-0.02618,0.05760,0.67195,0.00000,0.00000,0.00000,60,5,38,3,64,30,33,9,ok,2,0,0.003,10,0.49,-0.06,9.31,56,0.164,8.20
9.8996,-0.02618,0.05760,0.67195,0.00000,0.00000,0.00000,60,2,39,3,64,32,35,9,ok,2,0,0.003,10,0.49,-0.06,9.31,56,0.178,8.20
9.9127,-0.11170,0.03491,0.70337,0.00000,0.00000,0.00000,59,-1,41,3,64,34,36,9,ok,2,0,0.003,10,-0.72,-0.48,9.70,57,0.000,8.20
9.9323,-0.11170,0.03491,0.70337,0.00000,0.00000,0.00000,58,-3,42,2,64,34,37,9,ok,2,0,0.003,10,-0.72,-0.48,9.70,57,0.013,8.20
9.9372,-0.11170,0.03491,0.70337,0.00000,0.00000,0.00000,58,-4,44,3,64,35,38,8,ok,2,0,0.003,10,-0.72,-0.48,9.70,57,0.025,8.20
9.9497,-0.11170,0.03491,0.70337,0.00000,0.00000,0.00000,56,-5,44,3,66,35,40,8,ok,2,0,0.003,10,-0.72,-0.48,9.70,57,0.037,8.20
9.9723,-0.11170,0.03491,0.70337,0.00000,0.00000,0.00000,56,-7,45,3,67,33,41,7,ok,2,0,0.003,10,-0.72,-0.48,9.70,57,0.050,8.20
9.9757,-0.11170,0.03491,0.70337,0.00000,0.00000,0.00000,56,-9,46,3,69,28,42,7,ok,2,0,0.003,10,-0.72,-0.48,9.70,57,0.063,8.20
9.9882,-0.11170,0.03491,0.70337,0.00000,0.00000,0.00000,54,-9,48,4,71,24,44,7,ok,2,0,0.003,10,-0.72,-0.48,9.70,57,0.076,8.20
10.0083,-0.11170,0.03491,0.70337,0.00000,0.00000,0.00000,54,-11,49,4,73,21,44,7,ok,2,0,0.003,10,-0.72,-0.48,9.70,57,0.088,8.20
10.0132,-0.11170,0.03491,0.70337,0.00000,0.00000,0.00000,52,-11,49,4,74,20,45,8,ok,2,0,0.003,10,-0.72,-0.48,9.70,57,0.101,8.20
10.0323,-0.11170,0.03491,0.70337,0.00000,0.00000,0.00000,51,-12,49,6,74,18,46,8,ok,2,0,0.003,10,-0.72,-0.48,9.70,57,0.113,8.20
10.0484,-0.11170,0.03491,0.70337,0.00000,0.00000,0.00000,50,-11,51,7,74,14,47,8,ok,2,0,0.003,10,-0.72,-0.48,9.70,57,0.126,8.20
10.0516,-0.11170,0.03491,0.70337,0.00000,0.00000,0.00000,48,-11,52,6,73,11,48,8,ok,2,0,0.003,10,-0.72,-0.48,9.70,57,0.139,8.20
10.0642,-0.11170,0.03491,0.70337,0.00000,0.00000,0.00000,47,-10,53,6,73,9,49,8,ok,2,0,0.003,10,-0.72,-0.48,9.70,57,0.152,8.20
10.0843,-0.11170,0.03491,0.70337,0.00000,0.00000,0.00000,46,-10,53,7,72,6,50,9,ok,2,0,0.003,10,-0.72,-0.48,9.70,57,0.164,8.20
10.0892,-0.11170,0.03491,0.70337,0.00000,0.00000,0.00000,44,-11,55,7,72,4,50,8,ok,2,0,0.003,10,-0.72,-0.48,9.70,57,0.177,8.20
10.1017,-0.11170,0.03491,0.70337,0.00000,0.00000,0.00000,43,-10,55,7,71,3,51,9,ok,2,0,0.003,10,-0.72,-0.48,9.70,57,0.189,8.20
10.1244,-0.11170,0.03491,0.70337,0.00000,0.00000,0.00000,42,-8,56,7,69,1,52,8,ok,2,0,0.003,10,-0.72,-0.48,9.70,57,0.202,8.20
10.1279,0.04363,-0.03316,0.70686,0.00000,0.00000,0.00000,40,-7,57,8,66,1,52,9,ok,2,0,0.003,10,0.35,0.55,10.71,58,0.000,8.20
10.1402,0.04363,-0.03316,0.70686,0.00000,0.00000,0.00000,38,-5,57,7,65,-1,52,9,ok,2,0,0.003,10,0.35,0.55,10.71,58,0.013,8.20
10.1603,0.04363,-0.03316,0.70686,0.00000,0.00000,0.00000,37,-4,58,8,64,-2,54,9,ok,2,0,0.003,10,0.35,0.55,10.71,58,0.025,8.20
10.1654,0.04363,-0.03316,0.70686,0.00000,0.00000,0.00000,35,-1,59,8,62,-4,54,9,ok,2,0,0.003,10,0.35,0.55,10.71,58,0.038,8.20
10.1778,0.04363,-0.03316,0.70686,0.00000,0.00000,0.00000,34,-1,60,10,61,-5,54,8,ok,2,0,0.003,10,0.35,0.55,10.71,58,0.050,8.20
10.2003,0.04363,-0.03316,0.70686,0.00000,0.00000,0.00000,34,1,61,9,59,-5,56,6,ok,2,0,0.003,10,0.35,0.55,10.71,58,0.063,8.20
10.2035,0.04363,-0.03316,0.70686,0.00000,0.00000,0.00000,34,3,61,10,56,-6,56,7,ok,2,0,0.003,10,0.35,0.55,10.71,58,0.076,8.20
10.2163,0.04363,-0.03316,0.70686,0.00000,0.00000,0.00000,32,7,61,10,54,-7,57,8,ok,2,0,0.003,10,0.35,0.55,10.71,58,0.089,8.20
10.2363,0.04363,-0.03316,0.70686,0.00000,0.00000,0.00000,32,10,61,11,51,-7,58,8,ok,2,0,0.003,10,0.35,0.55,10.71,58,0.101,8.20
10.2412,0.04363,-0.03316,0.70686,0.00000,0.00000,0.00000,32,12,62,11,48,-6,58,8,ok,2,0,0.003,10,0.35,0.55,10.71,58,0.114,8.20
10.2537,0.04363,-0.03316,0.70686,0.00000,0.00000,0.00000,32,12,62,12,46,-6,59,9,ok,2,0,0.003,10,0.35,0.55,10.71,58,0.126,8.20
10.2764,0.04363,-0.03316,0.70686,0.00000,0.00000,0.00000,32,11,62,13,43,-5,59,10,ok,2,0,0.003,10,0.35,0.55,10.71,58,0.139,8.20
10.2796,0.04363,-0.03316,0.70686,0.00000,0.00000,0.00000,33,10,62,14,40,-5,60,11,ok,2,0,0.003,10,0.35,0.55,10.71,58,0.152,8.20
10.2924,0.04363,-0.03316,0.70686,0.00000,0.00000,0.00000,34,9,62,14,37,-4,60,12,ok,2,0,0.003,10,0.35,0.55,10.71,58,0.165,8.20
10.3123,0.04363,-0.03316,0.70686,0.00000,0.00000,0.00000,34,8,63,15,34,-3,61,13,ok,2,0,0.003,10,0.35,0.55,10.71,58,0.177,8.20
10.3172,0.04363,-0.03316,0.70686,0.00000,0.00000,0.00000,36,7,63,16,31,-2,61,13,ok,2,0,0.003,10,0.35,0.55,10.71,58,0.190,8.20
10.3301,-0.06632,0.01920,0.72606,0.00000,0.00000,0.00000,36,7,63,17,29,0,62,14,ok,2,0,0.003,10,1.69,0.83,9.87,59,0.000,8.20
10.3523,-0.06632,0.01920,0.72606,0.00000,0.00000,0.00000,36,6,64,19,27,1,62,15,ok,2,0,0.003,10,1.69,0.83,9.87,59,0.013,8.20
10.3556,-0.06632,0.01920,0.72606,0.00000,0.00000,0.00000,37,5,64,20,25,4,63,15,ok,2,0,0.003,10,1.69,0.83,9.87,59,0.026,8.20
10.3683,-0.06632,0.01920,0.72606,0.00000,0.00000,0.00000,38,4,64,21,24,7,63,17,ok,2,0,0.003,10,1.69,0.83,9.87,59,0.039,8.20
10.3883,-0.06632,0.01920,0.72606,0.00000,0.00000,0.00000,38,3,64,22,22,10,63,18,ok,2,0,0.003,10,1.69,0.83,9.87,59,0.051,8.20
10.3932,-0.06632,0.01920,0.72606,0.00000,0.00000,0.00000,38,3,64,24,22,13,64,18,ok,2,0,0.003,10,1.69,0.83,9.87,59,0.064,8.20
10.4057,-0.06632,0.01920,0.72606,0.00000,0.00000,0.00000,39,2,63,26,24,13,64,19,ok,2,0,0.003,10,1.69,0.83,9.87,59,0.076,8.20
10.4284,-0.06632,0.01920,0.72606,0.00000,0.00000,0.00000,40,1,63,28,24,13,64,20,ok,2,0,0.003,10,1.69,0.83,9.87,59,0.089,8.20
10.4318,-0.06632,0.01920,0.72606,0.00000,0.00000,0.00000,40,1,64,27,25,11,64,21,ok,2,0,0.003,10,1.69,0.83,9.87,59,0.102,8.20
10.4442,-0.06632,0.01920,0.72606,0.00000,0.00000,0.00000,40,1,67,23,26,10,65,22,ok,2,0,0.003,10,1.69,0.83,9.87,59,0.115,8.20
10.4643,-0.06632,0.01920,0.72606,0.00000,0.00000,0.00000,41,0,69,19,28,10,65,23,ok,2,0,0.003,10,1.69,0.83,9.87,59,0.127,8.20
10.4692,-0.06632,0.01920,0.72606,0.00000,0.00000,0.00000,42,1,70,15,29,10,64,24,ok,2,0,0.003,10,1.69,0.83,9.87,59,0.140,8.20
10.4819,-0.06632,0.01920,0.72606,0.00000,0.00000,0.00000,42,1,71,12,30,8,64,26,ok,2,0,0.003,10,1.69,0.83,9.87,59,0.152,8.20
10.5043,-0.06632,0.01920,0.72606,0.00000,0.00000,0.00000,44,2,70,12,33,9,65,27,ok,2,0,0.003,10,1.69,0.83,9.87,59,0.165,8.20
10.5075,-0.06632,0.01920,0.72606,0.00000,0.00000,0.00000,44,2,70,9,33,9,64,29,ok,2,0,0.003,10,1.69,0.83,9.87,59,0.178,8.20
10.5201,-0.06632,0.01920,0.72606,0.00000,0.00000,0.00000,45,3,69,6,35,9,64,30,ok,2,0,0.003,10,1.69,0.83,9.87,59,0.191,8.20
10.5403,-0.16232,-0.01745,0.77667,0.00000,0.00000,0.00000,46,3,69,3,37,8,64,31,ok,2,0,0.003,10,-0.49,-2.35,10.49,60,0.000,8.20
10.5452,-0.16232,-0.01745,0.77667,0.00000,0.00000,0.00000,46,2,67,0,37,8,64,33,ok,2,0,0.003,10,-0.49,-2.35,10.49,60,0.012,8.20
10.5577,-0.16232,-0.01745,0.77667,0.00000,0.00000,0.00000,47,2,66,-1,39,7,64,35,ok,2,0,0.003,10,-0.49,-2.35,10.49,60,0.025,8.20
10.5804,-0.16232,-0.01745,0.77667,0.00000,0.00000,0.00000,48,2,64,-3,39,7,64,36,ok,2,0,0.003,10,-0.49,-2.35,10.49,60,0.038,8.20
10.5838,-0.16232,-0.01745,0.77667,0.00000,0.00000,0.00000,48,2,62,-4,40,6,65,36,ok,2,0,0.003,10,-0.49,-2.35,10.49,60,0.051,8.20
10.5962,-0.16232,-0.01745,0.77667,0.00000,0.00000,0.00000,48,2,61,-5,42,6,66,35,ok,2,0,0.003,10,-0.49,-2.35,10.49,60,0.064,8.20
10.6163,-0.16232,-0.01745,0.77667,0.00000,0.00000,0.00000,49,2,60,-7,43,6,68,33,ok,2,0,0.003,10,-0.49,-2.35,10.49,60,0.076,8.20
10.6212,-0.16232,-0.01745,0.77667,0.00000,0.00000,0.00000,50,3,58,-7,44,7,69,28,ok,2,0,0.003,10,-0.49,-2.35,10.49,60,0.089,8.20
10.6340,-0.16232,-0.01745,0.77667,0.00000,0.00000,0.00000,50,3,56,-9,45,7,71,24,ok,2,0,0.003,10,-0.49,-2.35,10.49,60,0.101,8.20
10.6563,-0.16232,-0.01745,0.77667,0.00000,0.00000,0.00000,50,3,53,-9,46,7,72,21,ok,2,0,0.003,10,-0.49,-2.35,10.49,60,0.114,8.20
10.6596,-0.16232,-0.01745,0.77667,0.00000,0.00000,0.00000,50,5,51,-10,47,7,72,21,ok,2,0,0.003,10,-0.49,-2.35,10.49,60,0.127,8.20
10.6723,-0.16232,-0.01745,0.77667,0.00000,0.00000,0.00000,51,6,49,-10,47,7,72,19,ok,2,0,0.003,10,-0.49,-2.35,10.49,60,0.140,8.20
10.6923,-0.16232,-0.01745,0.77667,0.00000,0.00000,0.00000,52,6,46,-10,48,7,72,15,ok,2,0,0.003,11,-0.49,-2.35,10.49,60,0.152,8.20
10.6972,-0.16232,-0.01745,0.77667,0.00000,0.00000,0.00000,52,6,44,-10,49,7,72,13,ok,2,0,0.003,11,-0.49,-2.35,10.49,60,0.165,8.20
10.7098,-0.16232,-0.01745,0.77667,0.00000,0.00000,0.00000,52,7,41,-10,50,7,71,11,ok,2,0,0.003,11,-0.49,-2.35,10.49,60,0.177,8.20
10.7324,-0.16232,-0.01745,0.77667,0.00000,0.00000,0.00000,54,7,39,-10,50,7,71,8,ok,2,0,0.003,11,-0.49,-2.35,10.49,60,0.190,8.20
10.7357,-0.16232,-0.01745,0.77667,0.00000,0.00000,0.00000,54,7,37,-9,52,6,70,6,ok,2,0,0.003,11,-0.49,-2.35,10.49,60,0.203,8.20
10.7486,-0.14661,0.06283,0.79063,0.00000,0.00000,0.00000,54,7,33,-9,52,7,70,5,ok,2,0,0.003,11,1.33,-1.89,10.93,61,0.000,8.20
10.7683,-0.14661,0.06283,0.79063,0.00000,0.00000,0.00000,54,8,31,-7,52,7,68,2,ok,2,0,0.003,11,1.33,-1.89,10.93,61,0.012,8.20
10.7732,-0.14661,0.06283,0.79063,0.00000,0.00000,0.00000,54,8,27,-6,53,7,66,2,ok,2,0,0.003,11,1.33,-1.89,10.93,61,0.025,8.20
10.7858,-0.14661,0.06283,0.79063,0.00000,0.00000,0.00000,55,9,24,-4,54,7,64,0,ok,2,0,0.003,11,1.33,-1.89,10.93,61,0.037,8.20
10.8083,-0.14661,0.06283,0.79063,0.00000,0.00000,0.00000,56,10,20,-2,56,7,64,-1,ok,2,0,0.003,11,1.33,-1.89,10.93,61,0.050,8.20
10.8115,-0.14661,0.06283,0.79063,0.00000,0.00000,0.00000,56,10,19,-1,58,5,61,-3,ok,2,0,0.003,11,1.33,-1.89,10.93,61,0.063,8.20
10.8242,-0.14661,0.06283,0.79063,0.00000,0.00000,0.00000,56,10,18,1,58,7,59,-4,ok,2,0,0.003,11,1.33,-1.89,10.93,61,0.076,8.20
10.8443,-0.14661,0.06283,0.79063,0.00000,0.00000,0.00000,56,10,16,3,59,8,58,-4,ok,2,0,0.003,11,1.33,-1.89,10.93,61,0.088,8.20
10.8492,-0.14661,0.06283,0.79063,0.00000,0.00000,0.00000,56,11,14,6,59,8,55,-5,ok,2,0,0.003,11,1.33,-1.89,10.93,61,0.101,8.20
10.8617,-0.14661,0.06283,0.79063,0.00000,0.00000,0.00000,56,12,12,9,60,8,54,-6,ok,2,0,0.003,11,1.33,-1.89,10.93,61,0.113,8.20
10.8844,-0.14661,0.06283,0.79063,0.00000,0.00000,0.00000,56,12,12,12,60,9,50,-5,ok,2,0,0.003,11,1.33,-1.89,10.93,61,0.126,8.20
10.8878,-0.14661,0.06283,0.79063,0.00000,0.00000,0.00000,56,13,14,12,61,9,48,-4,ok,2,0,0.003,11,1.33,-1.89,10.93,61,0.139,8.20
10.9002,-0.14661,0.06283,0.79063,0.00000,0.00000,0.00000,56,13,15,11,61,10,46,-5,ok,2,0,0.003,11,1.33,-1.89,10.93,61,0.152,8.20
10.9203,-0.14661,0.06283,0.79063,0.00000,0.00000,0.00000,56,14,16,10,62,10,43,-4,ok,2,0,0.003,11,1.33,-1.89,10.93,61,0.164,8.20
10.9252,-0.14661,0.06283,0.79063,0.00000,0.00000,0.00000,56,15,18,9,62,11,41,-4,ok,2,0,0.003,11,1.33,-1.89,10.93,61,0.177,8.20
10.9381,-0.04538,0.08378,0.80460,0.00000,0.00000,0.00000,56,15,19,9,62,12,37,-3,ok,2,0,0.003,11,0.57,-0.21,8.41,62,0.000,8.20
10.9603,-0.04538,0.08378,0.80460,0.00000,0.00000,0.00000,56,16,20,7,62,13,35,-3,ok,2,0,0.003,11,0.57,-0.21,8.41,62,0.013,8.20
10.9635,-0.04538,0.08378,0.80460,0.00000,0.00000,0.00000,56,17,21,7,62,14,31,-1,ok,2,0,0.003,11,0.57,-0.21,8.41,62,0.026,8.20
10.9762,-0.04538,0.08378,0.80460,0.00000,0.00000,0.00000,57,19,22,6,63,14,30,0,ok,2,0,0.003,11,0.57,-0.21,8.41,62,0.038,8.20
10.9963,-0.04538,0.08378,0.80460,0.00000,0.00000,0.00000,57,20,23,5,63,15,27,2,ok,2,0,0.003,11,0.57,-0.21,8.41,62,0.051,8.20
11.0012,-0.04538,0.08378,0.80460,0.00000,0.00000,0.00000,58,21,24,4,63,16,25,5,ok,2,0,0.003,11,0.57,-0.21,8.41,62,0.063,8.20
11.0139,-0.04538,0.08378,0.80460,0.00000,0.00000,0.00000,58,22,25,4,64,16,24,7,ok,2,0,0.003,11,0.57,-0.21,8.41,62,0.076,8.20
11.0364,-0.04538,0.08378,0.80460,0.00000,0.00000,0.00000,58,23,25,2,64,17,23,11,ok,2,0,0.003,11,0.57,-0.21,8.41,62,0.088,8.20
11.0396,-0.04538,0.08378,0.80460,0.00000,0.00000,0.00000,57,26,26,2,64,18,22,13,ok,2,0,0.003,11,0.57,-0.21,8.41,62,0.102,8.20
11.0522,-0.04538,0.08378,0.80460,0.00000,0.00000,0.00000,57,27,27,1,64,19,25,12,ok,2,0,0.003,11,0.57,-0.21,8.41,62,0.114,8.20
11.0723,-0.04538,0.08378,0.80460,0.00000,0.00000,0.00000,58,25,28,1,64,21,25,12,ok,2,0,0.003,11,0.57,-0.21,8.41,62,0.127,8.20
11.0772,-0.04538,0.08378,0.80460,0.00000,0.00000,0.00000,58,22,29,2,65,22,25,10,ok,2,0,0.003,11,0.57,-0.21,8.41,62,0.139,8.20
11.0898,-0.04538,0.08378,0.80460,0.00000,0.00000,0.00000,60,18,30,1,65,23,27,10,ok,2,0,0.003,11,0.57,-0.21,8.41,62,0.152,8.20
11.1123,-0.04538,0.08378,0.80460,0.00000,0.00000,0.00000,60,13,32,2,65,25,28,10,ok,2,0,0.003,11,0.57,-0.21,8.41,62,0.164,8.20
11.1156,-0.04538,0.08378,0.80460,0.00000,0.00000,0.00000,60,11,33,2,65,25,29,10,ok,2,0,0.003,11,0.57,-0.21,8.41,62,0.178,8.20
11.1281,-0.04538,0.08378,0.80460,0.00000,0.00000,0.00000,60,10,35,2,64,27,30,9,ok,2,0,0.003,11,0.57,-0.21,8.41,62,0.190,8.20
11.1483,-0.07505,0.00524,0.82903,0.00000,0.00000,0.00000,60,7,36,2,64,29,32,9,ok,2,0,0.003,11,0.97,-0.85,11.65,63,0.000,8.20
11.1532,-0.07505,0.00524,0.82903,0.00000,0.00000,0.00000,60,4,38,3,65,30,33,9,ok,2,0,0.003,11,0.97,-0.85,11.65,63,0.012,8.20
11.1659,-0.07505,0.00524,0.82903,0.00000,0.00000,0.00000,60,2,39,3,65,32,35,9,ok,2,0,0.003,11,0.97,-0.85,11.65,63,0.025,8.20
11.1884,-0.07505,0.00524,0.82903,0.00000,0.00000,0.00000,59,-1,41,2,64,33,36,9,ok,2,0,0.003,11,0.97,-0.85,11.65,63,0.038,8.20
11.1916,-0.07505,0.00524,0.82903,0.00000,0.00000,0.00000,58,-3,42,2,64,35,37,9,ok,2,0,0.003,11,0.97,-0.85,11.65,63,0.051,8.20
11.2041,-0.07505,0.00524,0.82903,0.00000,0.00000,0.00000,58,-4,44,3,65,35,38,8,ok,2,0,0.003,11,0.97,-0.85,11.65,63,0.064,8.20
11.2243,-0.07505,0.00524,0.82903,0.00000,0.00000,0.00000,56,-5,44,3,66,35,39,8,ok,2,0,0.003,11,0.97,-0.85,11.65,63,0.076,8.20
11.2293,-0.07505,0.00524,0.82903,0.00000,0.00000,0.00000,56,-6,45,3,68,33,41,7,ok,2,0,0.003,11,0.97,-0.85,11.65,63,0.089,8.20
11.2418,-0.07505,0.00524,0.82903,0.00000,0.00000,0.00000,56,-8,47,3,70,28,42,7,ok,2,0,0.003,11,0.97,-0.85,11.65,63,0.101,8.20
11.2643,-0.07505,0.00524,0.82903,0.00000,0.00000,0.00000,54,-9,48,4,71,24,43,7,ok,2,0,0.003,11,0.97,-0.85,11.65,63,0.114,8.20
11.2675,-0.07505,0.00524,0.82903,0.00000,0.00000,0.00000,54,-10,49,3,73,21,44,7,ok,2,0,0.003,11,0.97,-0.85,11.65,63,0.127,8.20
11.2801,-0.07505,0.00524,0.82903,0.00000,0.00000,0.00000,52,-10,50,3,74,20,45,8,ok,2,0,0.003,11,0.97,-0.85,11.65,63,0.140,8.20
11.3003,-0.07505,0.00524,0.82903,0.00000,0.00000,0.00000,51,-11,50,6,74,18,46,8,ok,2,0,0.003,11,0.97,-0.85,11.65,63,0.152,8.20
11.3052,-0.07505,0.00524,0.82903,0.00000,0.00000,0.00000,50,-11,51,6,74,14,47,8,ok,2,0,0.003,11,0.97,-0.85,11.65,63,0.164,8.20
11.3178,-0.07505,0.00524,0.82903,0.00000,0.00000,0.00000,48,-11,52,6,73,11,48,8,ok,2,0,0.003,11,0.97,-0.85,11.65,63,0.177,8.20
11.3404,-0.07505,0.00524,0.82903,0.00000,0.00000,0.00000,48,-10,53,6,73,9,49,8,ok,2,0,0.003,11,0.97,-0.85,11.65,63,0.190,8.20
11.3437,-0.07505,0.00524,0.82903,0.00000,0.00000,0.00000,46,-11,53,7,72,6,49,9,ok,2,0,0.003,11,0.97,-0.85,11.65,63,0.203,8.20
11.3565,-0.01222,-0.01222,0.84474,0.00000,0.00000,0.00000,44,-11,56,7,72,4,50,8,ok,2,0,0.003,11,-0.12,-0.07,10.02,64,0.000,8.20
11.3763,-0.01222,-0.01222,0.84474,0.00000,0.00000,0.00000,43,-10,56,7,71,4,51,9,ok,2,0,0.003,11,-0.12,-0.07,10.02,64,0.012,8.20
11.3811,-0.01222,-0.01222,0.84474,0.00000,0.00000,0.00000,42,-8,57,7,69,1,51,8,ok,2,0,0.003,11,-0.12,-0.07,10.02,64,0.025,8.20
11.3937,-0.01222,-0.01222,0.84474,0.00000,0.00000,0.00000,40,-7,57,8,66,1,52,9,ok,2,0,0.003,11,-0.12,-0.07,10.02,64,0.037,8.20
11.4163,-0.01222,-0.01222,0.84474,0.00000,0.00000,0.00000,38,-5,58,7,65,-1,52,9,ok,2,0,0.003,11,-0.12,-0.07,10.02,64,0.050,8.20
11.4197,-0.01222,-0.01222,0.84474,0.00000,0.00000,0.00000,37,-3,59,8,64,-3,54,9,ok,2,0,0.003,11,-0.12,-0.07,10.02,64,0.063,8.20
11.4322,-0.01222,-0.01222,0.84474,0.00000,0.00000,0.00000,35,-1,59,9,62,-4,55,9,ok,2,0,0.003,11,-0.12,-0.07,10.02,64,0.076,8.20
11.4523,-0.01222,-0.01222,0.84474,0.00000,0.00000,0.00000,35,-1,60,10,61,-5,54,8,ok,2,0,0.003,11,-0.12,-0.07,10.02,64,0.089,8.20
11.4572,-0.01222,-0.01222,0.84474,0.00000,0.00000,0.00000,34,0,61,10,59,-6,56,6,ok,2,0,0.003,11,-0.12,-0.07,10.02,64,0.101,8.20
11.4699,-0.01222,-0.01222,0.84474,0.00000,0.00000,0.00000,34,3,61,11,56,-7,57,7,ok,2,0,0.003,11,-0.12,-0.07,10.02,64,0.114,8.20
11.4923,-0.01222,-0.01222,0.84474,0.00000,0.00000,0.00000,32,6,61,11,54,-7,58,8,ok,2,0,0.003,11,-0.12,-0.07,10.02,64,0.126,8.20
11.4956,-0.01222,-0.01222,0.84474,0.00000,0.00000,0.00000,32,9,61,12,51,-7,58,9,ok,2,0,0.003,11,-0.12,-0.07,10.02,64,0.139,8.20
11.5082,-0.01222,-0.01222,0.84474,0.00000,0.00000,0.00000,31,11,61,12,48,-6,59,9,ok,2,0,0.003,11,-0.12,-0.07,10.02,64,0.152,8.20
11.5283,-0.01222,-0.01222,0.84474,0.00000,0.00000,0.00000,32,11,62,13,46,-6,60,10,ok,2,0,0.003,11,-0.12,-0.07,10.02,64,0.164,8.20
11.5331,-0.01222,-0.01222,0.84474,0.00000,0.00000,0.00000,32,11,61,14,43,-5,59,10,ok,2,0,0.003,11,-0.12,-0.07,10.02,64,0.177,8.20
11.5461,-0.06458,0.05760,0.86743,0.00000,0.00000,0.00000,33,10,62,14,40,-5,60,11,ok,2,0,0.003,11,0.02,-0.59,9.63,65,0.000,8.20
11.5683,-0.06458,0.05760,0.86743,0.00000,0.00000,0.00000,34,9,62,15,37,-4,61,12,ok,2,0,0.003,11,0.02,-0.59,9.63,65,0.013,8.20
11.5716,-0.06458,0.05760,0.86743,0.00000,0.00000,0.00000,34,8,62,15,34,-4,61,13,ok,2,0,0.003,11,0.02,-0.59,9.63,65,0.026,8.20
11.5841,-0.06458,0.05760,0.86743,0.00000,0.00000,0.00000,36,7,63,16,31,-2,61,13,ok,2,0,0.003,11,0.02,-0.59,9.63,65,0.039,8.20
11.6043,-0.06458,0.05760,0.86743,0.00000,0.00000,0.00000,36,7,62,17,29,-1,62,14,ok,2,0,0.003,11,0.02,-0.59,9.63,65,0.051,8.20
11.6092,-0.06458,0.05760,0.86743,0.00000,0.00000,0.00000,36,5,64,18,28,1,62,15,ok,2,0,0.003,11,0.02,-0.59,9.63,65,0.063,8.20
11.6217,-0.06458,0.05760,0.86743,0.00000,0.00000,0.00000,37,4,64,20,25,4,63,16,ok,2,0,0.003,11,0.02,-0.59,9.63,65,0.076,8.20
11.6444,-0.06458,0.05760,0.86743,0.00000,0.00000,0.00000,37,4,64,21,24,7,63,17,ok,2,0,0.003,11,0.02,-0.59,9.63,65,0.089,8.20
11.6476,-0.06458,0.05760,0.86743,0.00000,0.00000,0.00000,38,3,63,22,23,11,63,18,ok,2,0,0.003,11,0.02,-0.59,9.63,65,0.102,8.20
11.6603,-0.06458,0.05760,0.86743,0.00000,0.00000,0.00000,38,3,64,23,22,14,64,18,ok,2,0,0.003,11,0.02,-0.59,9.63,65,0.115,8.20
11.6803,-0.06458,0.05760,0.86743,0.00000,0.00000,0.00000,39,3,63,26,24,13,64,19,ok,2,0,0.003,11,0.02,-0.59,9.63,65,0.127,8.20
11.6853,-0.06458,0.05760,0.86743,0.00000,0.00000,0.00000,39,2,63,27,24,13,64,20,ok,2,0,0.003,11,0.02,-0.59,9.63,65,0.140,8.20
11.6977,-0.06458,0.05760,0.86743,0.00000,0.00000,0.00000,40,2,64,26,26,11,64,21,ok,2,0,0.003,12,0.02,-0.59,9.63,65,0.152,8.20
11.7204,-0.06458,0.05760,0.86743,0.00000,0.00000,0.00000,40,1,66,22,27,10,65,22,ok,2,0,0.003,12,0.02,-0.59,9.63,65,0.165,8.20
11.7238,-0.06458,0.05760,0.86743,0.00000,0.00000,0.00000,41,1,69,19,28,10,65,23,ok,2,0,0.003,12,0.02,-0.59,9.63,65,0.178,8.20
11.7363,-0.06458,0.05760,0.86743,0.00000,0.00000,0.00000,42,1,70,15,29,10,65,24,ok,2,0,0.003,12,0.02,-0.59,9.63,65,0.191,8.20
11.7563,-0.06458,0.05760,0.86743,0.00000,0.00000,0.00000,42,1,70,12,30,9,65,26,ok,2,0,0.003,12,0.02,-0.59,9.63,65,0.203,8.20
11.7615,-0.08727,0.01920,0.91281,0.00000,0.00000,0.00000,44,1,70,12,33,9,65,27,ok,2,0,0.003,12,0.03,-1.28,8.31,66,0.000,8.20
11.7738,-0.08727,0.01920,0.91281,0.00000,0.00000,0.00000,44,1,70,8,33,9,64,29,ok,2,0,0.003,12,0.03,-1.28,8.31,66,0.013,8.20
11.7964,-0.08727,0.01920,0.91281,0.00000,0.00000,0.00000,45,2,69,6,35,9,64,30,ok,2,0,0.003,12,0.03,-1.28,8.31,66,0.025,8.20
11.7997,-0.08727,0.01920,0.91281,0.00000,0.00000,0.00000,46,2,68,3,37,8,64,31,ok,2,0,0.003,12,0.03,-1.28,8.31,66,0.038,8.20
11.8121,-0.08727,0.01920,0.91281,0.00000,0.00000,0.00000,46,2,67,0,38,8,64,33,ok,2,0,0.003,12,0.03,-1.28,8.31,66,0.051,8.20
11.8323,-0.08727,0.01920,0.91281,0.00000,0.00000,0.00000,47,2,66,-2,39,8,64,35,ok,2,0,0.003,12,0.03,-1.28,8.31,66,0.063,8.20
11.8372,-0.08727,0.01920,0.91281,0.00000,0.00000,0.00000,48,2,64,-3,40,8,63,36,ok,2,0,0.003,12,0.03,-1.28,8.31,66,0.076,8.20
11.8497,-0.08727,0.01920,0.91281,0.00000,0.00000,0.00000,48,2,62,-4,41,7,64,36,ok,2,0,0.003,12,0.03,-1.28,8.31,66,0.088,8.20
11.8723,-0.08727,0.01920,0.91281,0.00000,0.00000,0.00000,48,3,61,-6,42,7,65,35,ok,2,0,0.003,12,0.03,-1.28,8.31,66,0.101,8.20
11.8757,-0.08727,0.01920,0.91281,0.00000,0.00000,0.00000,49,3,60,-8,43,7,67,33,ok,2,0,0.003,12,0.03,-1.28,8.31,66,0.114,8.20
11.8881,-0.08727,0.01920,0.91281,0.00000,0.00000,0.00000,50,3,58,-8,44,7,69,27,ok,2,0,0.003,12,0.03,-1.28,8.31,66,0.127,8.20
11.9084,-0.08727,0.01920,0.91281,0.00000,0.00000,0.00000,50,3,55,-9,45,7,70,24,ok,2,0,0.003,12,0.03,-1.28,8.31,66,0.139,8.20
11.9132,-0.08727,0.01920,0.91281,0.00000,0.00000,0.00000,50,3,53,-9,46,7,72,21,ok,2,0,0.003,12,0.03,-1.28,8.31,66,0.152,8.20
11.9257,-0.08727,0.01920,0.91281,0.00000,0.00000,0.00000,50,5,51,-10,47,7,72,21,ok,2,0,0.003,12,0.03,-1.28,8.31,66,0.164,8.20
11.9483,-0.08727,0.01920,0.91281,0.00000,0.00000,0.00000,51,6,49,-10,47,7,72,19,ok,2,0,0.003,12,0.03,-1.28,8.31,66,0.177,8.20
11.9519,-0.08727,0.01920,0.91281,0.00000,0.00000,0.00000,52,5,46,-10,49,7,72,15,ok,2,0,0.003,12,0.03,-1.28,8.31,66,0.190,8.20
11.9645,-0.08203,0.02793,0.93375,0.00000,0.00000,0.00000,52,6,44,-10,49,7,72,13,ok,2,0,0.003,12,-1.60,-0.92,11.39,67,0.000,8.20
11.9843,-0.08203,0.02793,0.93375,0.00000,0.00000,0.00000,52,7,41,-10,50,7,71,11,ok,2,0,0.003,12,-1.60,-0.92,11.39,67,0.013,8.20
11.9893,-0.08203,0.02793,0.93375,0.00000,0.00000,0.00000,53,7,39,-10,51,7,71,7,ok,2,0,0.003,12,-1.60,-0.92,11.39,67,0.025,8.20
12.0018,-0.08203,0.02793,0.93375,0.00000,0.00000,0.00000,54,7,36,-9,52,6,70,6,ok,2,0,0.003,12,-1.60,-0.92,11.39,67,0.038,8.20
12.0243,-0.08203,0.02793,0.93375,0.00000,0.00000,0.00000,54,7,33,-9,52,7,70,4,ok,2,0,0.003,12,-1.60,-0.92,11.39,67,0.050,8.20
12.0275,-0.08203,0.02793,0.93375,0.00000,0.00000,0.00000,54,8,30,-7,53,7,68,2,ok,2,0,0.003,12,-1.60,-0.92,11.39,67,0.063,8.20
12.0400,-0.08203,0.02793,0.93375,0.00000,0.00000,0.00000,54,8,27,-6,54,8,66,2,ok,2,0,0.003,12,-1.60,-0.92,11.39,67,0.076,8.20
12.0603,-0.08203,0.02793,0.93375,0.00000,0.00000,0.00000,54,9,24,-4,55,8,65,0,ok,2,0,0.003,12,-1.60,-0.92,11.39,67,0.088,8.20
12.0653,-0.08203,0.02793,0.93375,0.00000,0.00000,0.00000,55,10,20,-2,56,8,64,-2,ok,2,0,0.003,12,-1.60,-0.92,11.39,67,0.101,8.20
12.0777,-0.08203,0.02793,0.93375,0.00000,0.00000,0.00000,55,10,19,-1,58,6,62,-3,ok,2,0,0.003,12,-1.60,-0.92,11.39,67,0.113,8.20
12.1003,-0.08203,0.02793,0.93375,0.00000,0.00000,0.00000,56,10,18,1,58,7,60,-4,ok,2,0,0.003,12,-1.60,-0.92,11.39,67,0.126,8.20
12.1035,-0.08203,0.02793,0.93375,0.00000,0.00000,0.00000,56,10,16,3,59,8,58,-4,ok,2,0,0.003,12,-1.60,-0.92,11.39,67,0.139,8.20
12.1163,-0.08203,0.02793,0.93375,0.00000,0.00000,0.00000,56,11,15,6,59,8,55,-5,ok,2,0,0.003,12,-1.60,-0.92,11.39,67,0.152,8.20
12.1363,-0.08203,0.02793,0.93375,0.00000,0.00000,0.00000,56,12,13,9,60,9,53,-6,ok,2,0,0.003,12,-1.60,-0.92,11.39,67,0.164,8.20
12.1412,-0.08203,0.02793,0.93375,0.00000,0.00000,0.00000,56,12,12,11,60,9,50,-5,ok,2,0,0.003,12,-1.60,-0.92,11.39,67,0.177,8.20
12.1537,-0.08203,0.02793,0.93375,0.00000,0.00000,0.00000,56,13,14,12,60,9,48,-5,ok,2,0,0.003,12,-1.60,-0.92,11.39,67,0.189,8.20
12.1763,0.00873,0.04712,0.90408,0.00000,0.00000,0.00000,56,13,15,11,61,10,46,-5,ok,2,0,0.003,12,0.53,0.66,10.10,68,0.000,8.20
12.1795,0.00873,0.04712,0.90408,0.00000,0.00000,0.00000,56,14,16,10,61,11,42,-4,ok,2,0,0.003,12,0.53,0.66,10.10,68,0.013,8.20
12.1922,0.00873,0.04712,0.90408,0.00000,0.00000,0.00000,56,15,18,9,62,12,40,-4,ok,2,0,0.003,12,0.53,0.66,10.10,68,0.026,8.20
12.2123,0.00873,0.04712,0.90408,0.00000,0.00000,0.00000,56,16,19,8,62,12,37,-3,ok,2,0,0.003,12,0.53,0.66,10.10,68,0.039,8.20
12.2171,0.00873,0.04712,0.90408,0.00000,0.00000,0.00000,56,17,21,7,62,13,34,-3,ok,2,0,0.003,12,0.53,0.66,10.10,68,0.051,8.20
12.2297,0.00873,0.04712,0.90408,0.00000,0.00000,0.00000,56,18,21,7,62,14,30,-1,ok,2,0,0.003,12,0.53,0.66,10.10,68,0.064,8.20
