# run_gait log  cmd_fwd=0.100 hz=80.0 fw_balance=off policy_yaw_sign=-1
t,roll,pitch,yaw,gx,gy,gz,j0,j1,j2,j3,j4,j5,j6,j7,guard_state,hottest_j,hottest_tier,hottest_frac,duty_s,ax,ay,az,imu_n,imu_age_s,volt
0.0491,-0.01571,0.00524,0.00000,0.00000,0.00000,0.00000,22,0,57,10,60,-3,54,8,ok,3,0,0.000,0,0.04,-0.05,9.99,11,0.036,nan
0.0543,-0.01571,0.00524,0.00000,0.00000,0.00000,0.00000,19,1,59,10,59,-4,56,6,ok,0,0,0.000,0,0.04,-0.05,9.99,11,0.062,nan
0.0673,-0.01571,0.00524,0.00000,0.00000,0.00000,0.00000,17,4,59,11,56,-5,56,8,ok,0,0,0.000,0,0.04,-0.05,9.99,11,0.075,8.36
0.0889,-0.01571,0.00524,0.00000,0.00000,0.00000,0.00000,16,6,60,12,55,-6,57,8,ok,0,0,0.000,0,0.04,-0.05,9.99,11,0.087,8.36
0.0929,-0.01571,0.00524,0.00000,0.00000,0.00000,0.00000,14,10,60,13,52,-5,57,9,ok,4,0,0.000,0,0.04,-0.05,9.99,11,0.102,8.36
0.1054,-0.01571,0.00524,0.00000,0.00000,0.00000,0.00000,12,12,60,13,50,-5,58,10,ok,4,0,0.000,0,0.04,-0.05,9.99,11,0.114,8.36
0.1289,-0.01571,0.00524,0.00000,0.00000,0.00000,0.00000,14,13,60,14,47,-5,59,11,ok,4,0,0.000,0,0.04,-0.05,9.99,11,0.127,8.36
0.1331,-0.01571,0.00524,0.00000,0.00000,0.00000,0.00000,14,13,60,15,44,-4,59,11,ok,4,0,0.000,0,0.04,-0.05,9.99,11,0.142,8.36
0.1458,-0.02269,-0.00000,-0.00873,0.00000,0.00000,0.00000,16,12,61,15,42,-4,60,12,ok,4,0,0.000,0,-0.77,0.21,9.14,12,0.000,8.36
0.1689,-0.02269,-0.00000,-0.00873,0.00000,0.00000,0.00000,17,11,61,16,39,-3,60,12,ok,4,0,0.000,0,-0.77,0.21,9.14,12,0.013,8.36
0.1724,-0.02269,-0.00000,-0.00873,0.00000,0.00000,0.00000,17,11,61,17,36,-2,61,13,ok,4,0,0.000,0,-0.77,0.21,9.14,12,0.027,8.36
0.1848,-0.02269,-0.00000,-0.00873,0.00000,0.00000,0.00000,19,9,61,18,32,-1,61,14,ok,4,0,0.000,0,-0.77,0.21,9.14,12,0.040,8.36
0.2048,-0.02269,-0.00000,-0.00873,0.00000,0.00000,0.00000,19,9,61,19,30,0,62,15,ok,4,0,0.000,0,-0.77,0.21,9.14,12,0.052,8.36
0.2097,-0.02269,-0.00000,-0.00873,0.00000,0.00000,0.00000,22,8,62,20,27,2,62,16,ok,4,0,0.000,0,-0.77,0.21,9.14,12,0.065,8.36
0.2225,-0.02269,-0.00000,-0.00873,0.00000,0.00000,0.00000,23,7,62,21,25,5,63,16,ok,4,0,0.000,0,-0.77,0.21,9.14,12,0.077,8.36
0.2448,-0.02269,-0.00000,-0.00873,0.00000,0.00000,0.00000,24,7,62,21,23,8,63,17,ok,4,0,0.000,0,-0.77,0.21,9.14,12,0.090,8.36
0.2479,-0.02269,-0.00000,-0.00873,0.00000,0.00000,0.00000,25,6,62,23,22,11,63,18,ok,4,0,0.000,0,-0.77,0.21,9.14,12,0.103,8.36
0.2605,-0.02269,-0.00000,-0.00873,0.00000,0.00000,0.00000,26,6,62,23,21,14,64,18,ok,4,0,0.000,0,-0.77,0.21,9.14,12,0.116,8.36
0.2808,-0.02269,-0.00000,-0.00873,0.00000,0.00000,0.00000,28,5,61,26,23,13,65,19,ok,4,0,0.000,0,-0.77,0.21,9.14,12,0.128,8.36
0.2855,-0.02269,-0.00000,-0.00873,0.00000,0.00000,0.00000,28,4,62,28,23,14,65,20,ok,4,0,0.000,0,-0.77,0.21,9.14,12,0.141,8.36
0.2981,-0.02269,-0.00000,-0.00873,0.00000,0.00000,0.00000,29,4,63,26,24,12,65,21,ok,4,0,0.000,0,-0.77,0.21,9.14,12,0.153,8.36
0.3208,-0.02269,-0.00000,-0.00873,0.00000,0.00000,0.00000,31,4,66,23,25,11,66,23,ok,4,0,0.000,0,-0.77,0.21,9.14,12,0.166,8.36
0.3240,-0.02269,-0.00000,-0.00873,0.00000,0.00000,0.00000,32,3,68,20,26,11,66,24,ok,4,0,0.000,0,-0.77,0.21,9.14,12,0.179,8.36
0.3370,-0.08552,-0.04014,0.01571,0.00000,0.00000,0.00000,34,3,70,16,27,11,65,25,ok,4,0,0.000,0,0.25,-1.15,9.75,13,0.000,8.36
0.3568,-0.08552,-0.04014,0.01571,0.00000,0.00000,0.00000,35,3,70,14,28,9,65,27,ok,4,0,0.000,0,0.25,-1.15,9.75,13,0.013,8.36
0.3615,-0.08552,-0.04014,0.01571,0.00000,0.00000,0.00000,37,2,71,13,31,10,66,28,ok,4,0,0.000,0,0.25,-1.15,9.75,13,0.025,8.36
0.3741,-0.08552,-0.04014,0.01571,0.00000,0.00000,0.00000,38,2,71,10,31,10,65,30,ok,4,0,0.000,0,0.25,-1.15,9.75,13,0.038,8.36
0.3968,-0.08552,-0.04014,0.01571,0.00000,0.00000,0.00000,40,3,70,7,32,10,65,31,ok,4,0,0.000,0,0.25,-1.15,9.75,13,0.050,8.36
0.3999,-0.08552,-0.04014,0.01571,0.00000,0.00000,0.00000,41,3,69,4,34,9,66,32,ok,4,0,0.000,0,0.25,-1.15,9.75,13,0.063,8.36
0.4125,-0.08552,-0.04014,0.01571,0.00000,0.00000,0.00000,42,2,69,2,35,9,65,33,ok,4,0,0.000,0,0.25,-1.15,9.75,13,0.076,8.36
0.4328,-0.08552,-0.04014,0.01571,0.00000,0.00000,0.00000,43,2,67,0,37,8,65,35,ok,4,0,0.000,0,0.25,-1.15,9.75,13,0.089,8.36
0.4375,-0.08552,-0.04014,0.01571,0.00000,0.00000,0.00000,45,2,67,-1,38,8,64,36,ok,4,0,0.000,0,0.25,-1.15,9.75,13,0.101,8.36
0.4503,-0.08552,-0.04014,0.01571,0.00000,0.00000,0.00000,45,3,64,-3,39,7,65,36,ok,4,0,0.000,0,0.25,-1.15,9.75,13,0.114,8.36
0.4728,-0.08552,-0.04014,0.01571,0.00000,0.00000,0.00000,47,3,63,-5,41,7,66,34,ok,4,0,0.000,0,0.25,-1.15,9.75,13,0.126,8.36
0.4760,-0.08552,-0.04014,0.01571,0.00000,0.00000,0.00000,48,4,62,-7,42,7,68,32,ok,4,0,0.000,0,0.25,-1.15,9.75,13,0.139,8.36
0.4886,-0.08552,-0.04014,0.01571,0.00000,0.00000,0.00000,50,5,59,-8,44,6,70,27,ok,4,0,0.000,0,0.25,-1.15,9.75,13,0.152,8.36
0.5088,-0.08552,-0.04014,0.01571,0.00000,0.00000,0.00000,52,4,57,-9,44,6,71,23,ok,4,0,0.000,0,0.25,-1.15,9.75,13,0.165,8.36
0.5136,-0.08552,-0.04014,0.01571,0.00000,0.00000,0.00000,52,4,54,-10,46,6,73,20,ok,4,0,0.000,0,0.25,-1.15,9.75,13,0.177,8.36
0.5261,-0.08552,-0.04014,0.01571,0.00000,0.00000,0.00000,52,6,52,-11,47,6,73,20,ok,4,0,0.000,0,0.25,-1.15,9.75,13,0.190,8.36
0.5488,-0.08552,-0.04014,0.01571,0.00000,0.00000,0.00000,53,6,50,-10,48,7,73,17,ok,4,0,0.000,1,0.25,-1.15,9.75,13,0.202,8.36
0.5523,-0.04887,0.03665,0.07156,0.00000,0.00000,0.00000,54,6,47,-10,49,7,73,14,ok,4,0,0.000,1,-0.64,-1.15,8.09,14,0.000,8.36
0.5647,-0.04887,0.03665,0.07156,0.00000,0.00000,0.00000,55,6,46,-10,50,7,72,11,ok,4,0,0.000,1,-0.64,-1.15,8.09,14,0.013,8.36
0.5849,-0.04887,0.03665,0.07156,0.00000,0.00000,0.00000,55,7,43,-10,50,7,72,10,ok,4,0,0.000,1,-0.64,-1.15,8.09,14,0.025,8.36
0.5896,-0.04887,0.03665,0.07156,0.00000,0.00000,0.00000,57,7,40,-11,51,7,71,6,ok,4,0,0.000,1,-0.64,-1.15,8.09,14,0.038,8.36
0.6021,-0.04887,0.03665,0.07156,0.00000,0.00000,0.00000,57,7,37,-10,53,6,71,4,ok,4,0,0.000,1,-0.64,-1.15,8.09,14,0.050,8.36
0.6248,-0.04887,0.03665,0.07156,0.00000,0.00000,0.00000,58,7,34,-9,53,7,70,2,ok,4,0,0.000,1,-0.64,-1.15,8.09,14,0.063,8.36
0.6281,-0.04887,0.03665,0.07156,0.00000,0.00000,0.00000,58,8,31,-7,53,7,68,0,ok,4,0,0.000,1,-0.64,-1.15,8.09,14,0.076,8.36
0.6405,-0.04887,0.03665,0.07156,0.00000,0.00000,0.00000,59,8,27,-6,54,8,66,0,ok,4,0,0.000,1,-0.64,-1.15,8.09,14,0.089,8.36
0.6608,-0.04887,0.03665,0.07156,0.00000,0.00000,0.00000,59,9,24,-5,55,8,65,-2,ok,2,0,0.000,1,-0.64,-1.15,8.09,14,0.101,8.36
0.6655,-0.04887,0.03665,0.07156,0.00000,0.00000,0.00000,60,10,20,-2,56,9,64,-3,ok,2,0,0.000,1,-0.64,-1.15,8.09,14,0.114,8.36
0.6781,-0.04887,0.03665,0.07156,0.00000,0.00000,0.00000,60,10,18,-1,58,7,62,-5,ok,2,0,0.000,1,-0.64,-1.15,8.09,14,0.126,8.36
0.7008,-0.04887,0.03665,0.07156,0.00000,0.00000,0.00000,61,10,17,1,58,8,60,-5,ok,2,0,0.000,1,-0.64,-1.15,8.09,14,0.139,8.36
0.7041,-0.04887,0.03665,0.07156,0.00000,0.00000,0.00000,61,10,15,3,59,9,58,-6,ok,2,0,0.000,1,-0.64,-1.15,8.09,14,0.152,8.36
0.7165,-0.04887,0.03665,0.07156,0.00000,0.00000,0.00000,61,10,14,6,59,9,55,-6,ok,2,0,0.000,1,-0.64,-1.15,8.09,14,0.165,8.36
0.7368,-0.04887,0.03665,0.07156,0.00000,0.00000,0.00000,61,12,12,10,60,10,54,-7,ok,2,0,0.000,1,-0.64,-1.15,8.09,14,0.177,8.36
0.7418,-0.04887,0.03665,0.07156,0.00000,0.00000,0.00000,62,12,12,12,60,10,50,-6,ok,2,0,0.000,1,-0.64,-1.15,8.09,14,0.190,8.36
0.7544,-0.00524,0.02967,0.09250,0.00000,0.00000,0.00000,62,13,13,12,60,10,48,-6,ok,2,0,0.000,1,1.15,0.16,10.53,15,0.000,8.36
0.7769,-0.00524,0.02967,0.09250,0.00000,0.00000,0.00000,61,13,14,11,61,11,46,-6,ok,2,0,0.000,1,1.15,0.16,10.53,15,0.013,8.36
0.7799,-0.00524,0.02967,0.09250,0.00000,0.00000,0.00000,62,14,16,10,61,11,43,-5,ok,2,0,0.000,1,1.15,0.16,10.53,15,0.026,8.36
0.7925,-0.00524,0.02967,0.09250,0.00000,0.00000,0.00000,62,15,18,9,61,12,41,-5,ok,2,0,0.000,1,1.15,0.16,10.53,15,0.039,8.36
0.8128,-0.00524,0.02967,0.09250,0.00000,0.00000,0.00000,63,15,19,8,61,13,37,-4,ok,2,0,0.000,1,1.15,0.16,10.53,15,0.051,8.36
0.8176,-0.00524,0.02967,0.09250,0.00000,0.00000,0.00000,63,16,21,7,62,13,35,-3,ok,2,0,0.000,1,1.15,0.16,10.53,15,0.064,8.36
0.8301,-0.00524,0.02967,0.09250,0.00000,0.00000,0.00000,63,17,21,7,62,14,31,-1,ok,2,0,0.000,1,1.15,0.16,10.53,15,0.076,8.36
0.8528,-0.00524,0.02967,0.09250,0.00000,0.00000,0.00000,65,19,23,6,63,14,30,0,ok,2,0,0.000,1,1.15,0.16,10.53,15,0.089,8.36
0.8560,-0.00524,0.02967,0.09250,0.00000,0.00000,0.00000,65,20,24,5,63,15,28,1,ok,2,0,0.000,1,1.15,0.16,10.53,15,0.102,8.36
0.8685,-0.00524,0.02967,0.09250,0.00000,0.00000,0.00000,65,21,24,4,63,16,25,4,ok,2,0,0.000,1,1.15,0.16,10.53,15,0.115,8.36
0.8888,-0.00524,0.02967,0.09250,0.00000,0.00000,0.00000,65,22,25,4,63,17,24,7,ok,2,0,0.000,1,1.15,0.16,10.53,15,0.127,8.36
0.8935,-0.00524,0.02967,0.09250,0.00000,0.00000,0.00000,65,23,26,3,64,18,23,10,ok,2,0,0.000,1,1.15,0.16,10.53,15,0.139,8.36
0.9062,-0.00524,0.02967,0.09250,0.00000,0.00000,0.00000,64,26,27,2,64,19,22,12,ok,2,0,0.000,1,1.15,0.16,10.53,15,0.152,8.36
0.9288,-0.00524,0.02967,0.09250,0.00000,0.00000,0.00000,64,26,28,2,64,20,25,12,ok,2,0,0.000,1,1.15,0.16,10.53,15,0.165,8.36
0.9319,-0.00524,0.02967,0.09250,0.00000,0.00000,0.00000,65,25,29,2,64,21,25,11,ok,2,0,0.000,1,1.15,0.16,10.53,15,0.178,8.36
0.9448,-0.04887,0.10996,0.16057,0.00000,0.00000,0.00000,67,21,30,2,65,22,26,9,ok,2,0,0.000,1,-0.47,-1.62,9.10,16,0.000,8.36
0.9648,-0.04887,0.10996,0.16057,0.00000,0.00000,0.00000,70,18,31,1,64,23,27,9,ok,2,0,0.000,1,-0.47,-1.62,9.10,16,0.013,8.36
0.9695,-0.04887,0.10996,0.16057,0.00000,0.00000,0.00000,71,13,33,2,64,25,28,10,ok,2,0,0.000,1,-0.47,-1.62,9.10,16,0.025,8.36
0.9821,-0.04887,0.10996,0.16057,0.00000,0.00000,0.00000,71,11,34,2,64,25,29,9,ok,2,0,0.000,1,-0.47,-1.62,9.10,16,0.038,8.36
1.0048,-0.04887,0.10996,0.16057,0.00000,0.00000,0.00000,70,10,35,2,63,27,30,8,ok,2,0,0.000,1,-0.47,-1.62,9.10,16,0.050,8.36
1.0080,-0.04887,0.10996,0.16057,0.00000,0.00000,0.00000,70,7,36,2,63,29,32,8,ok,2,0,0.000,1,-0.47,-1.62,9.10,16,0.063,8.36
1.0205,-0.04887,0.10996,0.16057,0.00000,0.00000,0.00000,69,4,38,3,64,30,33,9,ok,2,0,0.000,1,-0.47,-1.62,9.10,16,0.076,8.36
1.0408,-0.04887,0.10996,0.16057,0.00000,0.00000,0.00000,69,1,39,3,64,32,35,8,ok,2,0,0.000,1,-0.47,-1.62,9.10,16,0.089,8.36
1.0455,-0.04887,0.10996,0.16057,0.00000,0.00000,0.00000,68,-1,41,3,64,34,36,8,ok,2,0,0.000,1,-0.47,-1.62,9.10,16,0.101,8.36
1.0583,-0.04887,0.10996,0.16057,0.00000,0.00000,0.00000,66,-3,42,2,64,35,37,8,ok,2,0,0.000,1,-0.47,-1.62,9.10,16,0.113,8.36
1.0808,-0.04887,0.10996,0.16057,0.00000,0.00000,0.00000,65,-4,43,3,64,35,38,8,ok,2,0,0.000,1,-0.47,-1.62,9.10,16,0.126,8.36
1.0840,-0.04887,0.10996,0.16057,0.00000,0.00000,0.00000,63,-5,44,3,66,35,40,7,ok,2,0,0.000,1,-0.47,-1.62,9.10,16,0.139,8.36
1.0965,-0.04887,0.10996,0.16057,0.00000,0.00000,0.00000,62,-6,45,3,68,33,41,6,ok,2,0,0.000,1,-0.47,-1.62,9.10,16,0.152,8.36
1.1168,-0.04887,0.10996,0.16057,0.00000,0.00000,0.00000,61,-8,46,3,70,28,42,6,ok,2,0,0.000,1,-0.47,-1.62,9.10,16,0.165,8.36
1.1216,-0.04887,0.10996,0.16057,0.00000,0.00000,0.00000,58,-9,48,4,71,24,44,6,ok,2,0,0.000,1,-0.47,-1.62,9.10,16,0.177,8.36
1.1343,-0.04887,0.10996,0.16057,0.00000,0.00000,0.00000,56,-10,49,4,73,21,44,6,ok,2,0,0.000,1,-0.47,-1.62,9.10,16,0.190,8.36
1.1568,0.10297,0.07156,0.15882,0.00000,0.00000,0.00000,54,-10,49,3,74,21,45,7,ok,2,0,0.000,1,0.40,1.17,9.00,17,0.000,8.36
1.1599,0.10297,0.07156,0.15882,0.00000,0.00000,0.00000,51,-11,49,5,74,19,46,7,ok,2,0,0.000,1,0.40,1.17,9.00,17,0.013,8.36
1.1726,0.10297,0.07156,0.15882,0.00000,0.00000,0.00000,48,-11,50,6,74,15,47,7,ok,2,0,0.000,1,0.40,1.17,9.00,17,0.026,8.36
1.1928,0.10297,0.07156,0.15882,0.00000,0.00000,0.00000,46,-11,52,5,74,12,48,7,ok,2,0,0.000,1,0.40,1.17,9.00,17,0.039,8.36
1.1975,0.10297,0.07156,0.15882,0.00000,0.00000,0.00000,43,-10,53,5,73,11,49,7,ok,2,0,0.000,1,0.40,1.17,9.00,17,0.051,8.36
1.2103,0.10297,0.07156,0.15882,0.00000,0.00000,0.00000,41,-10,53,6,72,7,49,8,ok,2,0,0.000,1,0.40,1.17,9.00,17,0.064,8.36
1.2328,0.10297,0.07156,0.15882,0.00000,0.00000,0.00000,38,-10,55,6,72,5,50,7,ok,2,0,0.000,1,0.40,1.17,9.00,17,0.076,8.36
1.2360,0.10297,0.07156,0.15882,0.00000,0.00000,0.00000,36,-9,56,6,71,4,51,8,ok,2,0,0.000,1,0.40,1.17,9.00,17,0.089,8.36
1.2485,0.10297,0.07156,0.15882,0.00000,0.00000,0.00000,32,-8,57,6,69,1,52,6,ok,2,0,0.000,1,0.40,1.17,9.00,17,0.102,8.36
1.2688,0.10297,0.07156,0.15882,0.00000,0.00000,0.00000,30,-6,57,7,66,2,52,7,ok,2,0,0.000,1,0.40,1.17,9.00,17,0.115,8.36
1.2735,0.10297,0.07156,0.15882,0.00000,0.00000,0.00000,26,-5,57,7,65,0,53,7,ok,2,0,0.000,1,0.40,1.17,9.00,17,0.127,8.36
1.2863,0.10297,0.07156,0.15882,0.00000,0.00000,0.00000,23,-4,58,8,64,-2,54,8,ok,0,0,0.000,1,0.40,1.17,9.00,17,0.140,8.36
1.3088,0.10297,0.07156,0.15882,0.00000,0.00000,0.00000,19,-2,59,9,61,-3,55,8,ok,0,0,0.000,1,0.40,1.17,9.00,17,0.152,8.36
1.3119,0.10297,0.07156,0.15882,0.00000,0.00000,0.00000,19,-2,60,10,60,-5,55,7,ok,0,0,0.000,1,0.40,1.17,9.00,17,0.165,8.36
1.3245,0.10297,0.07156,0.15882,0.00000,0.00000,0.00000,18,-1,60,10,58,-5,57,5,ok,0,0,0.000,1,0.40,1.17,9.00,17,0.178,8.36
1.3448,0.10297,0.07156,0.15882,0.00000,0.00000,0.00000,16,1,61,11,55,-6,57,6,ok,0,0,0.000,1,0.40,1.17,9.00,17,0.191,8.36
1.3498,0.08901,-0.04014,0.15882,0.00000,0.00000,0.00000,14,4,61,11,54,-6,58,7,ok,0,0,0.000,1,0.13,0.64,10.35,18,0.000,8.36
1.3623,0.08901,-0.04014,0.15882,0.00000,0.00000,0.00000,12,8,61,12,51,-6,59,8,ok,0,0,0.000,1,0.13,0.64,10.35,18,0.013,8.36
1.3848,0.08901,-0.04014,0.15882,0.00000,0.00000,0.00000,12,10,61,12,48,-5,59,8,ok,0,0,0.000,1,0.13,0.64,10.35,18,0.025,8.36
1.3880,0.08901,-0.04014,0.15882,0.00000,0.00000,0.00000,13,10,62,12,46,-5,60,9,ok,0,0,0.000,1,0.13,0.64,10.35,18,0.038,8.36
1.4004,0.08901,-0.04014,0.15882,0.00000,0.00000,0.00000,14,10,61,13,43,-4,60,9,ok,0,0,0.000,1,0.13,0.64,10.35,18,0.051,8.36
1.4208,0.08901,-0.04014,0.15882,0.00000,0.00000,0.00000,15,9,62,14,40,-4,61,10,ok,0,0,0.000,1,0.13,0.64,10.35,18,0.064,8.36
1.4255,0.08901,-0.04014,0.15882,0.00000,0.00000,0.00000,17,9,62,14,37,-3,61,11,ok,0,0,0.000,1,0.13,0.64,10.35,18,0.076,8.36
1.4381,0.08901,-0.04014,0.15882,0.00000,0.00000,0.00000,18,8,63,15,34,-3,62,12,ok,4,0,0.000,1,0.13,0.64,10.35,18,0.089,8.36
1.4608,0.08901,-0.04014,0.15882,0.00000,0.00000,0.00000,20,7,63,15,31,-1,61,12,ok,4,0,0.000,1,0.13,0.64,10.35,18,0.101,8.36
1.4641,0.08901,-0.04014,0.15882,0.00000,0.00000,0.00000,21,7,63,17,29,0,62,13,ok,4,0,0.000,1,0.13,0.64,10.35,18,0.114,8.36
1.4765,0.08901,-0.04014,0.15882,0.00000,0.00000,0.00000,23,6,65,18,28,2,62,14,ok,4,0,0.000,1,0.13,0.64,10.35,18,0.127,8.36
1.4968,0.08901,-0.04014,0.15882,0.00000,0.00000,0.00000,24,5,65,19,25,5,63,14,ok,4,0,0.000,1,0.13,0.64,10.35,18,0.140,8.36
1.5016,0.08901,-0.04014,0.15882,0.00000,0.00000,0.00000,25,5,64,20,24,8,63,16,ok,4,0,0.000,1,0.13,0.64,10.35,18,0.152,8.36
1.5141,0.08901,-0.04014,0.15882,0.00000,0.00000,0.00000,26,4,64,22,23,12,63,17,ok,4,0,0.000,1,0.13,0.64,10.35,18,0.165,8.36
1.5368,0.08901,-0.04014,0.15882,0.00000,0.00000,0.00000,27,4,65,23,22,15,64,17,ok,4,0,0.000,1,0.13,0.64,10.35,18,0.177,8.36
1.5400,0.08901,-0.04014,0.15882,0.00000,0.00000,0.00000,28,4,64,26,24,14,64,18,ok,4,0,0.000,1,0.13,0.64,10.35,18,0.190,8.36
1.5528,-0.09250,0.08901,0.17104,0.00000,0.00000,0.00000,29,3,64,27,24,14,64,19,ok,4,0,0.000,1,1.35,-3.01,13.78,19,0.000,8.36
1.5728,-0.09250,0.08901,0.17104,0.00000,0.00000,0.00000,30,2,65,26,24,11,64,20,ok,4,0,0.000,2,1.35,-3.01,13.78,19,0.013,8.36
1.5775,-0.09250,0.08901,0.17104,0.00000,0.00000,0.00000,31,2,68,23,25,10,65,21,ok,4,0,0.000,2,1.35,-3.01,13.78,19,0.025,8.36
1.5901,-0.09250,0.08901,0.17104,0.00000,0.00000,0.00000,32,1,70,20,26,10,65,22,ok,4,0,0.000,2,1.35,-3.01,13.78,19,0.038,8.36
1.6128,-0.09250,0.08901,0.17104,0.00000,0.00000,0.00000,34,0,70,16,28,10,65,23,ok,4,0,0.000,2,1.35,-3.01,13.78,19,0.050,8.36
1.6161,-0.09250,0.08901,0.17104,0.00000,0.00000,0.00000,35,0,71,14,29,8,65,25,ok,4,0,0.000,2,1.35,-3.01,13.78,19,0.063,8.36
1.6286,-0.09250,0.08901,0.17104,0.00000,0.00000,0.00000,36,0,70,13,32,9,66,26,ok,4,0,0.000,2,1.35,-3.01,13.78,19,0.076,8.36
1.6488,-0.09250,0.08901,0.17104,0.00000,0.00000,0.00000,38,0,70,10,32,9,65,28,ok,4,0,0.000,2,1.35,-3.01,13.78,19,0.089,8.36
1.6536,-0.09250,0.08901,0.17104,0.00000,0.00000,0.00000,39,1,69,7,35,9,64,30,ok,4,0,0.001,2,1.35,-3.01,13.78,19,0.101,8.36
1.6661,-0.09250,0.08901,0.17104,0.00000,0.00000,0.00000,40,1,68,4,36,8,65,31,ok,4,0,0.001,2,1.35,-3.01,13.78,19,0.114,8.36
1.6888,-0.09250,0.08901,0.17104,0.00000,0.00000,0.00000,42,1,67,1,37,9,64,33,ok,4,0,0.001,2,1.35,-3.01,13.78,19,0.126,8.36
1.6922,-0.09250,0.08901,0.17104,0.00000,0.00000,0.00000,43,1,66,-1,38,8,64,34,ok,4,0,0.001,2,1.35,-3.01,13.78,19,0.139,8.36
1.7046,-0.09250,0.08901,0.17104,0.00000,0.00000,0.00000,44,2,64,-3,39,8,64,35,ok,4,0,0.001,2,1.35,-3.01,13.78,19,0.152,8.36
1.7248,-0.09250,0.08901,0.17104,0.00000,0.00000,0.00000,44,2,62,-4,41,7,65,35,ok,4,0,0.001,2,1.35,-3.01,13.78,19,0.165,8.36
1.7296,-0.09250,0.08901,0.17104,0.00000,0.00000,0.00000,46,3,61,-6,42,7,66,34,ok,4,0,0.001,2,1.35,-3.01,13.78,19,0.177,8.36
1.7424,-0.09250,0.08901,0.17104,0.00000,0.00000,0.00000,47,3,60,-8,43,7,68,32,ok,4,0,0.001,2,1.35,-3.01,13.78,19,0.190,8.36
1.7648,-0.06981,0.06458,0.20944,0.00000,0.00000,0.00000,49,3,57,-8,44,7,70,27,ok,4,0,0.001,2,0.40,-1.37,8.48,20,0.000,8.36
1.7681,-0.06981,0.06458,0.20944,0.00000,0.00000,0.00000,50,3,55,-9,45,7,71,23,ok,4,0,0.001,2,0.40,-1.37,8.48,20,0.013,8.36
1.7805,-0.06981,0.06458,0.20944,0.00000,0.00000,0.00000,50,3,53,-10,46,7,73,20,ok,4,0,0.001,2,0.40,-1.37,8.48,20,0.026,8.36
1.8008,-0.06981,0.06458,0.20944,0.00000,0.00000,0.00000,50,5,51,-11,47,7,73,20,ok,4,0,0.001,2,0.40,-1.37,8.48,20,0.038,8.36
1.8055,-0.06981,0.06458,0.20944,0.00000,0.00000,0.00000,51,6,48,-10,48,7,73,18,ok,4,0,0.001,2,0.40,-1.37,8.48,20,0.051,8.36
1.8181,-0.06981,0.06458,0.20944,0.00000,0.00000,0.00000,52,5,46,-10,49,7,73,14,ok,4,0,0.001,2,0.40,-1.37,8.48,20,0.063,8.36
1.8408,-0.06981,0.06458,0.20944,0.00000,0.00000,0.00000,53,6,44,-10,49,8,72,12,ok,4,0,0.001,2,0.40,-1.37,8.48,20,0.076,8.36
1.8441,-0.06981,0.06458,0.20944,0.00000,0.00000,0.00000,53,7,41,-10,50,7,72,10,ok,4,0,0.001,2,0.40,-1.37,8.48,20,0.089,8.36
1.8565,-0.06981,0.06458,0.20944,0.00000,0.00000,0.00000,56,7,39,-11,51,8,71,7,ok,4,0,0.001,2,0.40,-1.37,8.48,20,0.102,8.36
1.8768,-0.06981,0.06458,0.20944,0.00000,0.00000,0.00000,56,7,36,-10,52,7,71,5,ok,4,0,0.001,2,0.40,-1.37,8.48,20,0.114,8.36
1.8815,-0.06981,0.06458,0.20944,0.00000,0.00000,0.00000,57,7,33,-9,52,7,70,3,ok,2,0,0.001,2,0.40,-1.37,8.48,20,0.127,8.36
1.8943,-0.06981,0.06458,0.20944,0.00000,0.00000,0.00000,57,8,30,-8,53,8,68,1,ok,2,0,0.001,2,0.40,-1.37,8.48,20,0.140,8.36
1.9208,-0.06981,0.06458,0.20944,0.00000,0.00000,0.00000,58,8,27,-6,54,8,66,1,ok,2,0,0.001,2,0.40,-1.37,8.48,20,0.152,8.36
1.9241,-0.06981,0.06458,0.20944,0.00000,0.00000,0.00000,59,8,24,-4,55,8,65,-1,ok,2,0,0.001,2,0.40,-1.37,8.48,20,0.169,8.36
1.9364,-0.06981,0.06458,0.20944,0.00000,0.00000,0.00000,60,9,20,-2,55,8,64,-2,ok,2,0,0.001,2,0.40,-1.37,8.48,20,0.182,8.36
1.9568,-0.04014,-0.01047,0.23038,0.00000,0.00000,0.00000,60,10,19,-1,58,6,62,-4,ok,2,0,0.001,2,-0.16,-0.43,9.31,21,0.000,8.36
1.9615,-0.04014,-0.01047,0.23038,0.00000,0.00000,0.00000,60,9,18,0,58,8,60,-5,ok,2,0,0.001,2,-0.16,-0.43,9.31,21,0.012,8.36
1.9741,-0.04014,-0.01047,0.23038,0.00000,0.00000,0.00000,61,10,16,3,59,9,58,-5,ok,2,0,0.001,2,-0.16,-0.43,9.31,21,0.025,8.36
1.9968,-0.04014,-0.01047,0.23038,0.00000,0.00000,0.00000,61,11,15,5,59,9,56,-6,ok,2,0,0.001,2,-0.16,-0.43,9.31,21,0.037,8.36
2.0001,-0.04014,-0.01047,0.23038,0.00000,0.00000,0.00000,61,12,13,9,60,9,54,-7,ok,2,0,0.001,2,-0.16,-0.43,9.31,21,0.051,8.36
2.0124,-0.04014,-0.01047,0.23038,0.00000,0.00000,0.00000,62,12,13,11,60,10,51,-6,ok,2,0,0.001,2,-0.16,-0.43,9.31,21,0.063,8.36
2.0328,-0.04014,-0.01047,0.23038,0.00000,0.00000,0.00000,62,13,15,12,60,10,48,-5,ok,2,0,0.001,2,-0.16,-0.43,9.31,21,0.076,8.36
2.0375,-0.04014,-0.01047,0.23038,0.00000,0.00000,0.00000,61,14,15,11,61,11,46,-5,ok,2,0,0.001,2,-0.16,-0.43,9.31,21,0.088,8.36
2.0501,-0.04014,-0.01047,0.23038,0.00000,0.00000,0.00000,62,14,17,10,61,11,43,-5,ok,2,0,0.001,2,-0.16,-0.43,9.31,21,0.101,8.36
2.0728,-0.04014,-0.01047,0.23038,0.00000,0.00000,0.00000,62,15,19,9,61,12,41,-5,ok,2,0,0.001,2,-0.16,-0.43,9.31,21,0.113,8.36
2.0759,-0.04014,-0.01047,0.23038,0.00000,0.00000,0.00000,63,16,20,8,61,13,37,-4,ok,2,0,0.001,2,-0.16,-0.43,9.31,21,0.127,8.36
2.0887,-0.04014,-0.01047,0.23038,0.00000,0.00000,0.00000,63,16,21,7,61,13,35,-3,ok,2,0,0.001,2,-0.16,-0.43,9.31,21,0.139,8.36
2.1088,-0.04014,-0.01047,0.23038,0.00000,0.00000,0.00000,63,18,22,7,61,14,31,-1,ok,2,0,0.001,2,-0.16,-0.43,9.31,21,0.152,8.36
2.1135,-0.04014,-0.01047,0.23038,0.00000,0.00000,0.00000,65,19,23,6,63,14,30,0,ok,2,0,0.001,2,-0.16,-0.43,9.31,21,0.164,8.36
2.1261,-0.04014,-0.01047,0.23038,0.00000,0.00000,0.00000,65,20,24,5,63,15,28,1,ok,2,0,0.001,2,-0.16,-0.43,9.31,21,0.177,8.36
2.1488,-0.04014,-0.01047,0.23038,0.00000,0.00000,0.00000,65,21,25,5,62,16,25,5,ok,2,0,0.001,2,-0.16,-0.43,9.31,21,0.189,8.36
2.1522,0.00873,0.09948,0.30892,0.00000,0.00000,0.00000,65,22,26,4,63,17,24,7,ok,2,0,0.001,2,2.69,-0.65,10.77,22,0.000,8.36
2.1647,0.00873,0.09948,0.30892,0.00000,0.00000,0.00000,65,23,26,3,63,18,23,11,ok,2,0,0.001,2,2.69,-0.65,10.77,22,0.013,8.36
2.1848,0.00873,0.09948,0.30892,0.00000,0.00000,0.00000,64,26,27,3,63,19,22,13,ok,2,0,0.001,2,2.69,-0.65,10.77,22,0.025,8.36
2.1896,0.00873,0.09948,0.30892,0.00000,0.00000,0.00000,64,27,28,2,64,20,24,12,ok,2,0,0.001,2,2.69,-0.65,10.77,22,0.038,8.36
2.2021,0.00873,0.09948,0.30892,0.00000,0.00000,0.00000,65,25,29,2,64,21,24,12,ok,2,0,0.001,2,2.69,-0.65,10.77,22,0.050,8.36
2.2248,0.00873,0.09948,0.30892,0.00000,0.00000,0.00000,67,22,30,2,65,22,25,10,ok,2,0,0.001,2,2.69,-0.65,10.77,22,0.063,8.36
2.2279,0.00873,0.09948,0.30892,0.00000,0.00000,0.00000,69,18,31,1,64,23,26,9,ok,2,0,0.001,2,2.69,-0.65,10.77,22,0.076,8.36
2.2405,0.00873,0.09948,0.30892,0.00000,0.00000,0.00000,70,13,32,2,64,25,28,10,ok,2,0,0.001,2,2.69,-0.65,10.77,22,0.089,8.36
2.2608,0.00873,0.09948,0.30892,0.00000,0.00000,0.00000,70,11,33,2,65,26,29,9,ok,2,0,0.001,2,2.69,-0.65,10.77,22,0.101,8.36
2.2655,0.00873,0.09948,0.30892,0.00000,0.00000,0.00000,70,11,35,2,64,28,30,8,ok,2,0,0.001,2,2.69,-0.65,10.77,22,0.114,8.36
2.2781,0.00873,0.09948,0.30892,0.00000,0.00000,0.00000,70,7,36,2,64,29,32,8,ok,2,0,0.001,2,2.69,-0.65,10.77,22,0.126,8.36
2.3008,0.00873,0.09948,0.30892,0.00000,0.00000,0.00000,69,5,38,3,64,30,33,9,ok,2,0,0.001,2,2.69,-0.65,10.77,22,0.139,8.36
2.3039,0.00873,0.09948,0.30892,0.00000,0.00000,0.00000,68,2,39,3,64,32,35,8,ok,2,0,0.001,2,2.69,-0.65,10.77,22,0.152,8.36
2.3166,0.00873,0.09948,0.30892,0.00000,0.00000,0.00000,67,-1,41,3,64,34,36,8,ok,2,0,0.001,2,2.69,-0.65,10.77,22,0.165,8.36
2.3368,0.00873,0.09948,0.30892,0.00000,0.00000,0.00000,66,-3,42,2,64,35,37,8,ok,2,0,0.001,2,2.69,-0.65,10.77,22,0.177,8.36
2.3416,0.00873,0.09948,0.30892,0.00000,0.00000,0.00000,65,-4,44,3,64,36,38,7,ok,2,0,0.001,2,2.69,-0.65,10.77,22,0.190,8.36
2.3543,0.09076,0.06807,0.34732,0.00000,0.00000,0.00000,63,-5,44,3,66,35,39,7,ok,2,0,0.001,2,0.40,1.59,9.71,23,0.000,8.36
2.3768,0.09076,0.06807,0.34732,0.00000,0.00000,0.00000,61,-6,45,3,68,34,41,6,ok,2,0,0.001,2,0.40,1.59,9.71,23,0.013,8.36
2.3799,0.09076,0.06807,0.34732,0.00000,0.00000,0.00000,60,-8,46,3,70,29,42,6,ok,2,0,0.001,2,0.40,1.59,9.71,23,0.026,8.36
2.3924,0.09076,0.06807,0.34732,0.00000,0.00000,0.00000,58,-9,48,4,72,25,43,6,ok,2,0,0.001,2,0.40,1.59,9.71,23,0.039,8.36
2.4128,0.09076,0.06807,0.34732,0.00000,0.00000,0.00000,56,-10,49,3,73,22,44,6,ok,2,0,0.001,2,0.40,1.59,9.71,23,0.051,8.36
2.4175,0.09076,0.06807,0.34732,0.00000,0.00000,0.00000,54,-10,49,3,74,21,45,7,ok,2,0,0.001,2,0.40,1.59,9.71,23,0.064,8.36
2.4301,0.09076,0.06807,0.34732,0.00000,0.00000,0.00000,52,-11,50,5,74,19,46,7,ok,2,0,0.001,2,0.40,1.59,9.71,23,0.076,8.36
2.4528,0.09076,0.06807,0.34732,0.00000,0.00000,0.00000,49,-10,51,6,74,15,47,7,ok,2,0,0.001,2,0.40,1.59,9.71,23,0.089,8.36
2.4559,0.09076,0.06807,0.34732,0.00000,0.00000,0.00000,46,-11,52,5,73,12,48,7,ok,2,0,0.001,2,0.40,1.59,9.71,23,0.102,8.36
2.4684,0.09076,0.06807,0.34732,0.00000,0.00000,0.00000,44,-10,53,6,73,10,49,7,ok,2,0,0.001,2,0.40,1.59,9.71,23,0.115,8.36
2.4888,0.09076,0.06807,0.34732,0.00000,0.00000,0.00000,41,-11,53,7,72,7,49,8,ok,2,0,0.001,2,0.40,1.59,9.71,23,0.127,8.36
2.4935,0.09076,0.06807,0.34732,0.00000,0.00000,0.00000,38,-11,55,7,72,5,50,7,ok,2,0,0.001,2,0.40,1.59,9.71,23,0.140,8.36
2.5061,0.09076,0.06807,0.34732,0.00000,0.00000,0.00000,36,-10,56,7,70,4,51,8,ok,2,0,0.001,2,0.40,1.59,9.71,23,0.152,8.36
2.5288,0.09076,0.06807,0.34732,0.00000,0.00000,0.00000,32,-9,57,7,69,2,52,7,ok,2,0,0.001,2,0.40,1.59,9.71,23,0.165,8.36
2.5319,0.09076,0.06807,0.34732,0.00000,0.00000,0.00000,30,-8,57,8,66,2,52,8,ok,2,0,0.001,2,0.40,1.59,9.71,23,0.178,8.36
2.5448,0.09076,0.06807,0.34732,0.00000,0.00000,0.00000,26,-6,58,8,65,0,53,8,ok,2,0,0.001,2,0.40,1.59,9.71,23,0.191,8.36
2.5648,0.05934,-0.04363,0.36303,0.00000,0.00000,0.00000,23,-4,58,8,63,-2,54,8,ok,0,0,0.001,2,-0.71,0.76,9.06,24,0.000,8.36
2.5696,0.05934,-0.04363,0.36303,0.00000,0.00000,0.00000,20,-2,59,9,62,-3,55,8,ok,0,0,0.001,3,-0.71,0.76,9.06,24,0.012,8.36
2.5822,0.05934,-0.04363,0.36303,0.00000,0.00000,0.00000,19,-2,60,10,61,-5,55,7,ok,0,0,0.001,3,-0.71,0.76,9.06,24,0.025,8.36
2.6049,0.05934,-0.04363,0.36303,0.00000,0.00000,0.00000,18,-1,61,10,59,-5,57,5,ok,0,0,0.001,3,-0.71,0.76,9.06,24,0.038,8.36
2.6080,0.05934,-0.04363,0.36303,0.00000,0.00000,0.00000,16,2,61,11,55,-6,57,7,ok,0,0,0.001,3,-0.71,0.76,9.06,24,0.051,8.36
2.6205,0.05934,-0.04363,0.36303,0.00000,0.00000,0.00000,15,5,61,11,54,-7,58,7,ok,0,0,0.001,3,-0.71,0.76,9.06,24,0.064,8.36
2.6408,0.05934,-0.04363,0.36303,0.00000,0.00000,0.00000,13,8,61,12,51,-6,59,8,ok,0,0,0.001,3,-0.71,0.76,9.06,24,0.076,8.36
2.6456,0.05934,-0.04363,0.36303,0.00000,0.00000,0.00000,12,11,62,12,48,-5,59,8,ok,0,0,0.001,3,-0.71,0.76,9.06,24,0.089,8.36
2.6581,0.05934,-0.04363,0.36303,0.00000,0.00000,0.00000,14,11,62,13,45,-5,60,9,ok,0,0,0.001,3,-0.71,0.76,9.06,24,0.101,8.36
2.6808,0.05934,-0.04363,0.36303,0.00000,0.00000,0.00000,14,11,62,13,42,-5,60,9,ok,0,0,0.001,3,-0.71,0.76,9.06,24,0.114,8.36
2.6839,0.05934,-0.04363,0.36303,0.00000,0.00000,0.00000,16,10,63,14,40,-4,60,10,ok,0,0,0.001,3,-0.71,0.76,9.06,24,0.127,8.36
2.6965,0.05934,-0.04363,0.36303,0.00000,0.00000,0.00000,18,9,62,14,37,-3,61,11,ok,0,0,0.001,3,-0.71,0.76,9.06,24,0.140,8.36
2.7168,0.05934,-0.04363,0.36303,0.00000,0.00000,0.00000,18,9,63,15,34,-3,61,12,ok,0,0,0.001,3,-0.71,0.76,9.06,24,0.152,8.36
2.7217,0.05934,-0.04363,0.36303,0.00000,0.00000,0.00000,20,8,63,16,31,-1,61,13,ok,0,0,0.001,3,-0.71,0.76,9.06,24,0.164,8.36
2.7341,0.05934,-0.04363,0.36303,0.00000,0.00000,0.00000,21,7,63,17,29,0,62,13,ok,0,0,0.001,3,-0.71,0.76,9.06,24,0.177,8.36
2.7568,0.05934,-0.04363,0.36303,0.00000,0.00000,0.00000,23,6,65,18,27,2,62,14,ok,0,0,0.001,3,-0.71,0.76,9.06,24,0.190,8.36
2.7602,-0.02967,0.04363,0.39444,0.00000,0.00000,0.00000,24,5,65,19,25,5,63,15,ok,0,0,0.001,3,1.05,-0.80,10.81,25,0.000,8.36
2.7725,-0.02967,0.04363,0.39444,0.00000,0.00000,0.00000,25,5,65,21,23,8,63,16,ok,4,0,0.001,3,1.05,-0.80,10.81,25,0.013,8.36
2.7928,-0.02967,0.04363,0.39444,0.00000,0.00000,0.00000,26,4,65,22,22,11,63,17,ok,4,0,0.001,3,1.05,-0.80,10.81,25,0.025,8.36
2.7975,-0.02967,0.04363,0.39444,0.00000,0.00000,0.00000,27,3,64,23,21,14,64,18,ok,4,0,0.001,3,1.05,-0.80,10.81,25,0.038,8.36
2.8101,-0.02967,0.04363,0.39444,0.00000,0.00000,0.00000,28,3,63,26,23,13,64,18,ok,4,0,0.001,3,1.05,-0.80,10.81,25,0.050,8.36
2.8328,-0.02967,0.04363,0.39444,0.00000,0.00000,0.00000,28,2,63,28,23,13,64,19,ok,4,0,0.001,3,1.05,-0.80,10.81,25,0.063,8.36
2.8359,-0.02967,0.04363,0.39444,0.00000,0.00000,0.00000,29,2,65,26,25,11,64,20,ok,4,0,0.001,3,1.05,-0.80,10.81,25,0.076,8.36
2.8484,-0.02967,0.04363,0.39444,0.00000,0.00000,0.00000,31,1,67,23,26,11,65,21,ok,4,0,0.001,3,1.05,-0.80,10.81,25,0.089,8.36
2.8688,-0.02967,0.04363,0.39444,0.00000,0.00000,0.00000,32,0,69,20,27,11,65,22,ok,4,0,0.001,3,1.05,-0.80,10.81,25,0.101,8.36
2.8737,-0.02967,0.04363,0.39444,0.00000,0.00000,0.00000,34,0,70,15,29,10,64,24,ok,4,0,0.001,3,1.05,-0.80,10.81,25,0.114,8.36
2.8861,-0.02967,0.04363,0.39444,0.00000,0.00000,0.00000,35,1,71,13,30,9,65,26,ok,4,0,0.001,3,1.05,-0.80,10.81,25,0.126,8.36
2.9088,-0.02967,0.04363,0.39444,0.00000,0.00000,0.00000,37,1,70,12,32,9,65,26,ok,4,0,0.001,3,1.05,-0.80,10.81,25,0.139,8.36
2.9119,-0.02967,0.04363,0.39444,0.00000,0.00000,0.00000,38,1,70,8,33,9,64,28,ok,4,0,0.001,3,1.05,-0.80,10.81,25,0.152,8.36
2.9244,-0.02967,0.04363,0.39444,0.00000,0.00000,0.00000,40,2,69,6,35,9,64,30,ok,4,0,0.001,3,1.05,-0.80,10.81,25,0.165,8.36
2.9448,-0.02967,0.04363,0.39444,0.00000,0.00000,0.00000,41,2,69,3,36,8,64,31,ok,4,0,0.001,3,1.05,-0.80,10.81,25,0.177,8.36
2.9496,-0.02967,0.04363,0.39444,0.00000,0.00000,0.00000,42,2,67,0,37,9,64,32,ok,4,0,0.001,3,1.05,-0.80,10.81,25,0.190,8.36
2.9623,0.00175,0.05411,0.38746,0.00000,0.00000,0.00000,43,2,66,-2,38,8,64,34,ok,4,0,0.001,3,0.82,-0.81,11.15,26,0.000,8.36
2.9848,0.00175,0.05411,0.38746,0.00000,0.00000,0.00000,45,3,64,-3,39,8,63,35,ok,4,0,0.001,3,0.82,-0.81,11.15,26,0.013,8.36
2.9881,0.00175,0.05411,0.38746,0.00000,0.00000,0.00000,45,3,62,-4,41,7,64,35,ok,4,0,0.001,3,0.82,-0.81,11.15,26,0.026,8.36
3.0005,0.00175,0.05411,0.38746,0.00000,0.00000,0.00000,46,3,61,-6,42,7,66,34,ok,4,0,0.001,3,0.82,-0.81,11.15,26,0.039,8.36
3.0208,0.00175,0.05411,0.38746,0.00000,0.00000,0.00000,47,3,60,-8,43,7,67,32,ok,4,0,0.001,3,0.82,-0.81,11.15,26,0.051,8.36
3.0255,0.00175,0.05411,0.38746,0.00000,0.00000,0.00000,49,3,58,-8,44,7,69,27,ok,4,0,0.001,3,0.82,-0.81,11.15,26,0.064,8.36
3.0381,0.00175,0.05411,0.38746,0.00000,0.00000,0.00000,50,3,55,-9,45,7,71,23,ok,4,0,0.001,3,0.82,-0.81,11.15,26,0.076,8.36
3.0608,0.00175,0.05411,0.38746,0.00000,0.00000,0.00000,50,3,53,-9,46,7,72,20,ok,4,0,0.001,3,0.82,-0.81,11.15,26,0.089,8.36
3.0641,0.00175,0.05411,0.38746,0.00000,0.00000,0.00000,50,5,51,-10,47,7,72,20,ok,4,0,0.001,3,0.82,-0.81,11.15,26,0.102,8.36
3.0764,0.00175,0.05411,0.38746,0.00000,0.00000,0.00000,51,6,49,-10,47,7,73,18,ok,4,0,0.001,3,0.82,-0.81,11.15,26,0.115,8.36
3.0968,0.00175,0.05411,0.38746,0.00000,0.00000,0.00000,52,5,46,-10,48,7,73,14,ok,4,0,0.001,3,0.82,-0.81,11.15,26,0.127,8.36
3.1016,0.00175,0.05411,0.38746,0.00000,0.00000,0.00000,53,6,44,-10,49,8,72,12,ok,4,0,0.001,3,0.82,-0.81,11.15,26,0.140,8.36
3.1143,0.00175,0.05411,0.38746,0.00000,0.00000,0.00000,53,7,41,-10,50,8,72,10,ok,2,0,0.001,3,0.82,-0.81,11.15,26,0.152,8.36
3.1368,0.00175,0.05411,0.38746,0.00000,0.00000,0.00000,56,7,39,-10,51,8,71,6,ok,0,0,0.001,3,0.82,-0.81,11.15,26,0.165,8.36
3.1399,0.00175,0.05411,0.38746,0.00000,0.00000,0.00000,56,7,36,-9,52,7,71,5,ok,2,0,0.001,3,0.82,-0.81,11.15,26,0.178,8.36
3.1525,0.00175,0.05411,0.38746,0.00000,0.00000,0.00000,57,7,33,-9,52,8,70,3,ok,2,0,0.001,3,0.82,-0.81,11.15,26,0.191,8.36
3.1728,-0.10297,-0.02443,0.45553,0.00000,0.00000,0.00000,57,8,30,-7,52,8,68,1,ok,2,0,0.001,3,0.46,-1.09,10.58,27,0.000,8.36
3.1775,-0.10297,-0.02443,0.45553,0.00000,0.00000,0.00000,58,7,27,-6,54,8,66,1,ok,2,0,0.001,3,0.46,-1.09,10.58,27,0.013,8.36
3.1901,-0.10297,-0.02443,0.45553,0.00000,0.00000,0.00000,59,8,24,-4,54,8,65,-1,ok,2,0,0.001,3,0.46,-1.09,10.58,27,0.025,8.36
3.2128,-0.10297,-0.02443,0.45553,0.00000,0.00000,0.00000,60,9,21,-2,55,8,65,-2,ok,2,0,0.001,3,0.46,-1.09,10.58,27,0.038,8.36
3.2161,-0.10297,-0.02443,0.45553,0.00000,0.00000,0.00000,60,9,19,-1,57,6,63,-4,ok,2,0,0.001,3,0.46,-1.09,10.58,27,0.051,8.36
3.2285,-0.10297,-0.02443,0.45553,0.00000,0.00000,0.00000,61,9,18,1,57,7,61,-5,ok,2,0,0.001,3,0.46,-1.09,10.58,27,0.063,8.36
3.2488,-0.10297,-0.02443,0.45553,0.00000,0.00000,0.00000,61,10,16,3,58,8,59,-5,ok,2,0,0.001,3,0.46,-1.09,10.58,27,0.076,8.36
3.2537,-0.10297,-0.02443,0.45553,0.00000,0.00000,0.00000,62,10,15,6,59,9,56,-6,ok,2,0,0.001,3,0.46,-1.09,10.58,27,0.088,8.36
3.2661,-0.10297,-0.02443,0.45553,0.00000,0.00000,0.00000,62,11,13,10,59,9,54,-6,ok,2,0,0.001,3,0.46,-1.09,10.58,27,0.101,8.36
3.2888,-0.10297,-0.02443,0.45553,0.00000,0.00000,0.00000,62,11,13,12,60,10,51,-5,ok,2,0,0.001,3,0.46,-1.09,10.58,27,0.113,8.36
3.2919,-0.10297,-0.02443,0.45553,0.00000,0.00000,0.00000,62,13,15,12,60,10,48,-5,ok,2,0,0.001,3,0.46,-1.09,10.58,27,0.127,8.36
3.3044,-0.10297,-0.02443,0.45553,0.00000,0.00000,0.00000,62,13,16,11,61,10,46,-5,ok,2,0,0.001,3,0.46,-1.09,10.58,27,0.139,8.36
3.3248,-0.10297,-0.02443,0.45553,0.00000,0.00000,0.00000,63,14,17,10,61,11,42,-4,ok,2,0,0.001,3,0.46,-1.09,10.58,27,0.152,8.36
3.3295,-0.10297,-0.02443,0.45553,0.00000,0.00000,0.00000,62,15,19,9,61,12,41,-4,ok,2,0,0.001,3,0.46,-1.09,10.58,27,0.164,8.36
3.3423,-0.10297,-0.02443,0.45553,0.00000,0.00000,0.00000,63,16,20,9,61,12,37,-3,ok,2,0,0.001,3,0.46,-1.09,10.58,27,0.177,8.36
3.3648,-0.10297,-0.02443,0.45553,0.00000,0.00000,0.00000,64,17,21,8,61,13,35,-3,ok,2,0,0.001,3,0.46,-1.09,10.58,27,0.189,8.36
3.3682,-0.00000,0.09774,0.48520,0.00000,0.00000,0.00000,63,18,22,7,62,14,31,-1,ok,2,0,0.001,3,1.06,-0.83,9.23,28,0.000,8.36
3.3804,-0.00000,0.09774,0.48520,0.00000,0.00000,0.00000,65,20,23,6,62,14,29,0,ok,2,0,0.001,3,1.06,-0.83,9.23,28,0.013,8.36
3.4008,-0.00000,0.09774,0.48520,0.00000,0.00000,0.00000,65,21,24,5,62,15,27,1,ok,2,0,0.001,3,1.06,-0.83,9.23,28,0.025,8.36
3.4055,-0.00000,0.09774,0.48520,0.00000,0.00000,0.00000,65,22,24,5,62,16,25,5,ok,2,0,0.001,3,1.06,-0.83,9.23,28,0.038,8.36
3.4183,-0.00000,0.09774,0.48520,0.00000,0.00000,0.00000,65,23,25,4,63,17,24,7,ok,2,0,0.001,3,1.06,-0.83,9.23,28,0.050,8.36
3.4408,-0.00000,0.09774,0.48520,0.00000,0.00000,0.00000,65,24,26,3,64,18,22,11,ok,2,0,0.001,3,1.06,-0.83,9.23,28,0.063,8.36
3.4439,-0.00000,0.09774,0.48520,0.00000,0.00000,0.00000,64,26,26,2,64,19,22,13,ok,2,0,0.001,3,1.06,-0.83,9.23,28,0.076,8.36
3.4566,-0.00000,0.09774,0.48520,0.00000,0.00000,0.00000,64,27,27,1,64,20,24,12,ok,2,0,0.001,3,1.06,-0.83,9.23,28,0.089,8.36
3.4768,-0.00000,0.09774,0.48520,0.00000,0.00000,0.00000,65,26,28,1,64,21,25,11,ok,2,0,0.001,3,1.06,-0.83,9.23,28,0.101,8.36
3.4815,-0.00000,0.09774,0.48520,0.00000,0.00000,0.00000,67,22,29,1,65,22,25,10,ok,2,0,0.001,3,1.06,-0.83,9.23,28,0.114,8.36
3.4943,-0.00000,0.09774,0.48520,0.00000,0.00000,0.00000,69,18,30,1,64,24,27,9,ok,2,0,0.001,3,1.06,-0.83,9.23,28,0.126,8.36
3.5168,-0.00000,0.09774,0.48520,0.00000,0.00000,0.00000,70,13,32,2,64,25,28,10,ok,2,0,0.001,3,1.06,-0.83,9.23,28,0.139,8.36
3.5199,-0.00000,0.09774,0.48520,0.00000,0.00000,0.00000,70,11,33,2,65,26,29,9,ok,2,0,0.001,3,1.06,-0.83,9.23,28,0.152,8.36
3.5325,-0.00000,0.09774,0.48520,0.00000,0.00000,0.00000,70,10,35,2,64,28,30,8,ok,2,0,0.001,3,1.06,-0.83,9.23,28,0.165,8.36
3.5528,-0.00000,0.09774,0.48520,0.00000,0.00000,0.00000,70,7,36,2,64,29,32,8,ok,2,0,0.001,3,1.06,-0.83,9.23,28,0.177,8.36
3.5577,-0.00000,0.09774,0.48520,0.00000,0.00000,0.00000,69,4,38,3,64,30,33,9,ok,2,0,0.001,3,1.06,-0.83,9.23,28,0.190,8.36
3.5704,0.07330,0.04014,0.55152,0.00000,0.00000,0.00000,68,2,39,3,64,32,35,8,ok,2,0,0.001,3,0.56,1.49,10.38,29,0.000,8.36
3.5928,0.07330,0.04014,0.55152,0.00000,0.00000,0.00000,67,-1,41,2,64,34,36,8,ok,2,0,0.001,4,0.56,1.49,10.38,29,0.013,8.36
3.5959,0.07330,0.04014,0.55152,0.00000,0.00000,0.00000,66,-3,42,2,64,35,37,8,ok,2,0,0.001,4,0.56,1.49,10.38,29,0.026,8.36
3.6085,0.07330,0.04014,0.55152,0.00000,0.00000,0.00000,65,-4,44,2,65,36,38,7,ok,2,0,0.001,4,0.56,1.49,10.38,29,0.039,8.36
3.6288,0.07330,0.04014,0.55152,0.00000,0.00000,0.00000,63,-5,44,2,66,36,39,7,ok,2,0,0.001,4,0.56,1.49,10.38,29,0.051,8.36
3.6337,0.07330,0.04014,0.55152,0.00000,0.00000,0.00000,62,-6,45,2,68,34,41,6,ok,2,0,0.001,4,0.56,1.49,10.38,29,0.064,8.36
3.6461,0.07330,0.04014,0.55152,0.00000,0.00000,0.00000,61,-8,47,2,70,29,42,6,ok,2,0,0.001,4,0.56,1.49,10.38,29,0.076,8.36
3.6688,0.07330,0.04014,0.55152,0.00000,0.00000,0.00000,59,-8,48,3,71,25,43,6,ok,2,0,0.001,4,0.56,1.49,10.38,29,0.089,8.36
3.6719,0.07330,0.04014,0.55152,0.00000,0.00000,0.00000,56,-10,49,3,73,22,44,6,ok,2,0,0.001,4,0.56,1.49,10.38,29,0.102,8.36
3.6844,0.07330,0.04014,0.55152,0.00000,0.00000,0.00000,54,-10,50,3,73,21,45,6,ok,2,0,0.001,4,0.56,1.49,10.38,29,0.115,8.36
3.7048,0.07330,0.04014,0.55152,0.00000,0.00000,0.00000,52,-11,50,5,73,19,46,6,ok,2,0,0.001,4,0.56,1.49,10.38,29,0.127,8.36
3.7097,0.07330,0.04014,0.55152,0.00000,0.00000,0.00000,49,-11,51,6,73,15,47,7,ok,2,0,0.001,4,0.56,1.49,10.38,29,0.139,8.36
3.7221,0.07330,0.04014,0.55152,0.00000,0.00000,0.00000,47,-11,52,6,73,12,48,7,ok,2,0,0.001,4,0.56,1.49,10.38,29,0.152,8.36
3.7448,0.07330,0.04014,0.55152,0.00000,0.00000,0.00000,44,-11,53,6,72,10,49,7,ok,2,0,0.001,4,0.56,1.49,10.38,29,0.165,8.36
3.7479,0.07330,0.04014,0.55152,0.00000,0.00000,0.00000,41,-11,53,7,72,7,49,8,ok,2,0,0.001,4,0.56,1.49,10.38,29,0.178,8.36
3.7609,0.09425,-0.04014,0.54629,0.00000,0.00000,0.00000,38,-11,56,7,72,5,50,7,ok,2,0,0.001,4,-0.89,1.17,10.02,30,0.000,8.36
3.7808,0.09425,-0.04014,0.54629,0.00000,0.00000,0.00000,36,-10,56,7,71,4,51,8,ok,2,0,0.001,4,-0.89,1.17,10.02,30,0.013,8.36
3.7855,0.09425,-0.04014,0.54629,0.00000,0.00000,0.00000,32,-9,57,7,69,2,52,7,ok,2,0,0.001,4,-0.89,1.17,10.02,30,0.025,8.36
3.7986,0.09425,-0.04014,0.54629,0.00000,0.00000,0.00000,30,-8,57,8,66,2,52,8,ok,2,0,0.001,4,-0.89,1.17,10.02,30,0.038,8.36
3.8209,0.09425,-0.04014,0.54629,0.00000,0.00000,0.00000,26,-6,58,7,65,0,53,8,ok,0,0,0.001,4,-0.89,1.17,10.02,30,0.050,8.36
3.8241,0.09425,-0.04014,0.54629,0.00000,0.00000,0.00000,24,-4,59,8,63,-2,54,8,ok,0,0,0.001,4,-0.89,1.17,10.02,30,0.063,8.36
3.8370,0.09425,-0.04014,0.54629,0.00000,0.00000,0.00000,20,-1,60,9,61,-3,55,8,ok,0,0,0.001,4,-0.89,1.17,10.02,30,0.076,8.36
3.8568,0.09425,-0.04014,0.54629,0.00000,0.00000,0.00000,19,-1,61,10,60,-5,55,7,ok,0,0,0.001,4,-0.89,1.17,10.02,30,0.089,8.36
3.8616,0.09425,-0.04014,0.54629,0.00000,0.00000,0.00000,18,0,61,10,58,-5,56,5,ok,0,0,0.001,4,-0.89,1.17,10.02,30,0.101,8.36
3.8742,0.09425,-0.04014,0.54629,0.00000,0.00000,0.00000,16,2,62,11,55,-6,57,7,ok,0,0,0.001,4,-0.89,1.17,10.02,30,0.114,8.36
3.8968,0.09425,-0.04014,0.54629,0.00000,0.00000,0.00000,15,5,62,11,54,-7,58,7,ok,0,0,0.001,4,-0.89,1.17,10.02,30,0.126,8.36
3.8999,0.09425,-0.04014,0.54629,0.00000,0.00000,0.00000,13,9,62,12,51,-6,58,8,ok,0,0,0.001,4,-0.89,1.17,10.02,30,0.139,8.36
3.9124,0.09425,-0.04014,0.54629,0.00000,0.00000,0.00000,12,11,62,12,48,-5,59,8,ok,0,0,0.001,4,-0.89,1.17,10.02,30,0.152,8.36
3.9328,0.09425,-0.04014,0.54629,0.00000,0.00000,0.00000,14,11,62,13,45,-5,60,9,ok,0,0,0.001,4,-0.89,1.17,10.02,30,0.165,8.36
3.9375,0.09425,-0.04014,0.54629,0.00000,0.00000,0.00000,14,11,62,13,42,-5,59,10,ok,0,0,0.001,4,-0.89,1.17,10.02,30,0.177,8.36
3.9503,0.09425,-0.04014,0.54629,0.00000,0.00000,0.00000,16,10,63,14,40,-4,60,10,ok,0,0,0.001,4,-0.89,1.17,10.02,30,0.190,8.36
3.9728,0.09425,-0.04014,0.54629,0.00000,0.00000,0.00000,18,9,62,14,37,-3,61,11,ok,0,0,0.001,4,-0.89,1.17,10.02,30,0.202,8.36
3.9762,-0.00000,0.06109,0.60039,0.00000,0.00000,0.00000,18,8,63,15,34,-3,61,12,ok,0,0,0.001,4,0.93,-0.81,10.57,31,0.000,8.36
3.9884,-0.00000,0.06109,0.60039,0.00000,0.00000,0.00000,21,7,63,16,30,-2,61,13,ok,0,0,0.001,4,0.93,-0.81,10.57,31,0.013,8.36
4.0088,-0.00000,0.06109,0.60039,0.00000,0.00000,0.00000,21,7,63,17,29,0,62,14,ok,0,0,0.001,4,0.93,-0.81,10.57,31,0.025,8.36
4.0137,-0.00000,0.06109,0.60039,0.00000,0.00000,0.00000,23,6,64,19,27,1,62,15,ok,0,0,0.001,4,0.93,-0.81,10.57,31,0.038,8.36
4.0261,-0.00000,0.06109,0.60039,0.00000,0.00000,0.00000,24,5,64,20,25,4,63,15,ok,0,0,0.001,4,0.93,-0.81,10.57,31,0.050,8.36
4.0488,-0.00000,0.06109,0.60039,0.00000,0.00000,0.00000,24,4,64,21,24,7,63,16,ok,0,0,0.001,4,0.93,-0.81,10.57,31,0.063,8.36
4.0519,-0.00000,0.06109,0.60039,0.00000,0.00000,0.00000,25,3,64,22,23,11,63,17,ok,0,0,0.001,4,0.93,-0.81,10.57,31,0.076,8.36
4.0644,-0.00000,0.06109,0.60039,0.00000,0.00000,0.00000,26,2,64,24,22,14,64,18,ok,0,0,0.001,4,0.93,-0.81,10.57,31,0.089,8.36
4.0848,-0.00000,0.06109,0.60039,0.00000,0.00000,0.00000,27,2,63,27,24,14,64,19,ok,0,0,0.001,4,0.93,-0.81,10.57,31,0.101,8.36
4.0895,-0.00000,0.06109,0.60039,0.00000,0.00000,0.00000,28,1,63,28,24,14,64,19,ok,0,0,0.001,4,0.93,-0.81,10.57,31,0.114,8.36
4.1023,-0.00000,0.06109,0.60039,0.00000,0.00000,0.00000,29,1,64,26,25,11,64,20,ok,0,0,0.001,4,0.93,-0.81,10.57,31,0.126,8.36
4.1248,-0.00000,0.06109,0.60039,0.00000,0.00000,0.00000,30,1,67,23,26,11,65,21,ok,0,0,0.001,4,0.93,-0.81,10.57,31,0.139,8.36
4.1279,-0.00000,0.06109,0.60039,0.00000,0.00000,0.00000,31,1,69,19,28,11,65,22,ok,0,0,0.001,4,0.93,-0.81,10.57,31,0.152,8.36
4.1408,-0.00000,0.06109,0.60039,0.00000,0.00000,0.00000,34,1,70,15,29,10,65,23,ok,0,0,0.001,4,0.93,-0.81,10.57,31,0.165,8.36
4.1608,-0.00000,0.06109,0.60039,0.00000,0.00000,0.00000,35,1,70,12,30,9,65,25,ok,0,0,0.001,4,0.93,-0.81,10.57,31,0.177,8.36
4.1655,-0.00000,0.06109,0.60039,0.00000,0.00000,0.00000,37,1,70,12,32,9,65,26,ok,0,0,0.001,4,0.93,-0.81,10.57,31,0.190,8.36
4.1784,0.00175,0.05585,0.62134,0.00000,0.00000,0.00000,38,1,70,8,33,9,64,28,ok,0,0,0.001,4,-0.51,-0.23,9.56,32,0.000,8.36
4.2008,0.00175,0.05585,0.62134,0.00000,0.00000,0.00000,40,2,69,5,35,9,64,29,ok,0,0,0.001,4,-0.51,-0.23,9.56,32,0.013,8.36
4.2041,0.00175,0.05585,0.62134,0.00000,0.00000,0.00000,41,2,69,3,36,9,64,31,ok,0,0,0.001,4,-0.51,-0.23,9.56,32,0.026,8.36
4.2166,0.00175,0.05585,0.62134,0.00000,0.00000,0.00000,42,2,67,0,37,9,64,32,ok,0,0,0.001,4,-0.51,-0.23,9.56,32,0.039,8.36
4.2368,0.00175,0.05585,0.62134,0.00000,0.00000,0.00000,43,2,66,-2,38,8,64,34,ok,0,0,0.001,4,-0.51,-0.23,9.56,32,0.051,8.36
4.2415,0.00175,0.05585,0.62134,0.00000,0.00000,0.00000,45,2,64,-3,39,8,63,35,ok,0,0,0.001,4,-0.51,-0.23,9.56,32,0.064,8.36
4.2541,0.00175,0.05585,0.62134,0.00000,0.00000,0.00000,45,2,62,-4,41,7,65,35,ok,0,0,0.001,4,-0.51,-0.23,9.56,32,0.076,8.36
4.2768,0.00175,0.05585,0.62134,0.00000,0.00000,0.00000,46,3,61,-6,42,7,66,34,ok,0,0,0.001,4,-0.51,-0.23,9.56,32,0.089,8.36
4.2800,0.00175,0.05585,0.62134,0.00000,0.00000,0.00000,47,3,60,-8,43,7,68,32,ok,0,0,0.001,4,-0.51,-0.23,9.56,32,0.102,8.36
4.2924,0.00175,0.05585,0.62134,0.00000,0.00000,0.00000,49,3,58,-8,44,7,69,27,ok,0,0,0.001,4,-0.51,-0.23,9.56,32,0.115,8.36
4.3128,0.00175,0.05585,0.62134,0.00000,0.00000,0.00000,50,3,55,-9,45,7,71,23,ok,0,0,0.001,4,-0.51,-0.23,9.56,32,0.127,8.36
4.3175,0.00175,0.05585,0.62134,0.00000,0.00000,0.00000,50,3,53,-9,46,7,72,20,ok,0,0,0.001,4,-0.51,-0.23,9.56,32,0.140,8.36
4.3301,0.00175,0.05585,0.62134,0.00000,0.00000,0.00000,50,5,51,-10,47,7,72,20,ok,0,0,0.001,4,-0.51,-0.23,9.56,32,0.152,8.36
4.3528,0.00175,0.05585,0.62134,0.00000,0.00000,0.00000,51,5,49,-10,47,8,73,18,ok,0,0,0.001,4,-0.51,-0.23,9.56,32,0.165,8.36
4.3559,0.00175,0.05585,0.62134,0.00000,0.00000,0.00000,52,5,46,-10,48,8,73,14,ok,0,0,0.001,4,-0.51,-0.23,9.56,32,0.178,8.36
4.3685,0.00175,0.05585,0.62134,0.00000,0.00000,0.00000,53,6,44,-10,49,8,72,12,ok,0,0,0.001,4,-0.51,-0.23,9.56,32,0.191,8.36
4.3888,0.00175,0.05585,0.62134,0.00000,0.00000,0.00000,53,7,41,-10,49,8,72,10,ok,0,0,0.001,4,-0.51,-0.23,9.56,32,0.203,8.36
4.3938,-0.10647,-0.00873,0.68242,0.00000,0.00000,0.00000,56,7,39,-10,50,8,71,7,ok,0,0,0.001,4,-0.81,-0.95,9.84,33,0.000,8.36
4.4061,-0.10647,-0.00873,0.68242,0.00000,0.00000,0.00000,56,7,36,-9,52,7,71,5,ok,0,0,0.001,4,-0.81,-0.95,9.84,33,0.013,8.36
4.4288,-0.10647,-0.00873,0.68242,0.00000,0.00000,0.00000,57,7,33,-8,52,7,70,3,ok,0,0,0.001,4,-0.81,-0.95,9.84,33,0.025,8.36
4.4319,-0.10647,-0.00873,0.68242,0.00000,0.00000,0.00000,58,7,30,-7,52,8,69,1,ok,2,0,0.001,4,-0.81,-0.95,9.84,33,0.038,8.36
4.4445,-0.10647,-0.00873,0.68242,0.00000,0.00000,0.00000,58,7,27,-6,53,8,67,1,ok,2,0,0.001,4,-0.81,-0.95,9.84,33,0.051,8.36
4.4648,-0.10647,-0.00873,0.68242,0.00000,0.00000,0.00000,59,8,24,-4,54,8,66,-1,ok,2,0,0.001,4,-0.81,-0.95,9.84,33,0.064,8.36
4.4695,-0.10647,-0.00873,0.68242,0.00000,0.00000,0.00000,60,9,21,-2,55,8,65,-2,ok,2,0,0.001,4,-0.81,-0.95,9.84,33,0.076,8.36
4.4821,-0.10647,-0.00873,0.68242,0.00000,0.00000,0.00000,60,9,19,0,57,6,62,-4,ok,2,0,0.001,4,-0.81,-0.95,9.84,33,0.088,8.36
4.5048,-0.10647,-0.00873,0.68242,0.00000,0.00000,0.00000,61,9,18,1,58,7,60,-5,ok,2,0,0.001,4,-0.81,-0.95,9.84,33,0.101,8.36
4.5081,-0.10647,-0.00873,0.68242,0.00000,0.00000,0.00000,61,10,16,3,58,8,58,-5,ok,2,0,0.001,4,-0.81,-0.95,9.84,33,0.114,8.36
4.5205,-0.10647,-0.00873,0.68242,0.00000,0.00000,0.00000,61,10,15,6,59,8,56,-6,ok,2,0,0.001,4,-0.81,-0.95,9.84,33,0.127,8.36
4.5408,-0.10647,-0.00873,0.68242,0.00000,0.00000,0.00000,61,12,13,9,59,9,54,-6,ok,2,0,0.001,4,-0.81,-0.95,9.84,33,0.140,8.36
4.5455,-0.10647,-0.00873,0.68242,0.00000,0.00000,0.00000,62,12,13,11,60,9,50,-5,ok,2,0,0.001,4,-0.81,-0.95,9.84,33,0.152,8.36
4.5581,-0.10647,-0.00873,0.68242,0.00000,0.00000,0.00000,62,13,14,12,60,10,48,-5,ok,2,0,0.001,4,-0.81,-0.95,9.84,33,0.165,8.36
4.5808,-0.10647,-0.00873,0.68242,0.00000,0.00000,0.00000,62,14,15,11,61,11,46,-5,ok,2,0,0.001,4,-0.81,-0.95,9.84,33,0.177,8.36
4.5840,-0.10647,-0.00873,0.68242,0.00000,0.00000,0.00000,62,14,17,10,61,11,43,-4,ok,2,0,0.001,4,-0.81,-0.95,9.84,33,0.190,8.36
4.5968,0.04538,0.08203,0.69464,0.00000,0.00000,0.00000,62,15,19,9,61,12,41,-4,ok,2,0,0.001,5,0.48,0.88,8.31,34,0.000,8.36
4.6168,0.04538,0.08203,0.69464,0.00000,0.00000,0.00000,62,16,19,9,61,13,37,-3,ok,2,0,0.001,5,0.48,0.88,8.31,34,0.013,8.36
4.6215,0.04538,0.08203,0.69464,0.00000,0.00000,0.00000,63,17,21,7,61,13,34,-3,ok,2,0,0.001,5,0.48,0.88,8.31,34,0.025,8.36
4.6342,0.04538,0.08203,0.69464,0.00000,0.00000,0.00000,63,18,21,7,62,15,30,-1,ok,2,0,0.001,5,0.48,0.88,8.31,34,0.038,8.36
4.6568,0.04538,0.08203,0.69464,0.00000,0.00000,0.00000,64,20,23,6,63,14,29,0,ok,2,0,0.001,5,0.48,0.88,8.31,34,0.050,8.36
4.6600,0.04538,0.08203,0.69464,0.00000,0.00000,0.00000,64,21,24,5,63,16,27,1,ok,2,0,0.001,5,0.48,0.88,8.31,34,0.063,8.36
4.6728,0.04538,0.08203,0.69464,0.00000,0.00000,0.00000,65,22,24,4,63,16,25,4,ok,2,0,0.001,5,0.48,0.88,8.31,34,0.076,8.36
4.6928,0.04538,0.08203,0.69464,0.00000,0.00000,0.00000,65,23,25,3,63,17,24,7,ok,2,0,0.001,5,0.48,0.88,8.31,34,0.089,8.36
4.6975,0.04538,0.08203,0.69464,0.00000,0.00000,0.00000,65,24,25,2,64,18,23,10,ok,2,0,0.001,5,0.48,0.88,8.31,34,0.101,8.36
4.7102,0.04538,0.08203,0.69464,0.00000,0.00000,0.00000,64,27,26,2,64,19,22,12,ok,2,0,0.001,5,0.48,0.88,8.31,34,0.114,8.36
4.7328,0.04538,0.08203,0.69464,0.00000,0.00000,0.00000,64,27,27,2,64,20,24,11,ok,2,0,0.001,5,0.48,0.88,8.31,34,0.126,8.36
4.7359,0.04538,0.08203,0.69464,0.00000,0.00000,0.00000,65,25,28,1,64,21,25,11,ok,2,0,0.001,5,0.48,0.88,8.31,34,0.139,8.36
4.7485,0.04538,0.08203,0.69464,0.00000,0.00000,0.00000,67,21,29,2,65,23,26,9,ok,2,0,0.001,5,0.48,0.88,8.31,34,0.152,8.36
4.7688,0.04538,0.08203,0.69464,0.00000,0.00000,0.00000,69,17,31,1,64,24,27,9,ok,2,0,0.001,5,0.48,0.88,8.31,34,0.164,8.36
4.7736,0.04538,0.08203,0.69464,0.00000,0.00000,0.00000,70,13,32,2,64,25,28,9,ok,2,0,0.001,5,0.48,0.88,8.31,34,0.177,8.36
4.7865,0.04538,0.08203,0.69464,0.00000,0.00000,0.00000,70,11,33,2,65,26,29,9,ok,2,0,0.001,5,0.48,0.88,8.31,34,0.189,8.36
4.8088,-0.01222,0.04014,0.76620,0.00000,0.00000,0.00000,70,10,35,2,64,28,30,8,ok,2,0,0.001,5,-0.42,-0.06,9.13,35,0.000,8.36
4.8119,-0.01222,0.04014,0.76620,0.00000,0.00000,0.00000,70,7,37,2,64,29,33,8,ok,2,0,0.001,5,-0.42,-0.06,9.13,35,0.013,8.36
4.8245,-0.01222,0.04014,0.76620,0.00000,0.00000,0.00000,69,4,39,3,64,30,33,8,ok,2,0,0.001,5,-0.42,-0.06,9.13,35,0.026,8.36
4.8448,-0.01222,0.04014,0.76620,0.00000,0.00000,0.00000,69,1,40,3,64,32,35,8,ok,2,0,0.001,5,-0.42,-0.06,9.13,35,0.039,8.36
4.8495,-0.01222,0.04014,0.76620,0.00000,0.00000,0.00000,68,-1,41,3,63,34,36,8,ok,2,0,0.001,5,-0.42,-0.06,9.13,35,0.051,8.36
4.8621,-0.01222,0.04014,0.76620,0.00000,0.00000,0.00000,66,-3,43,3,63,35,37,8,ok,2,0,0.001,5,-0.42,-0.06,9.13,35,0.064,8.36
4.8848,-0.01222,0.04014,0.76620,0.00000,0.00000,0.00000,65,-4,44,3,64,36,38,7,ok,2,0,0.001,5,-0.42,-0.06,9.13,35,0.076,8.36
4.8880,-0.01222,0.04014,0.76620,0.00000,0.00000,0.00000,63,-5,44,3,65,35,40,7,ok,2,0,0.001,5,-0.42,-0.06,9.13,35,0.089,8.36
4.9009,-0.01222,0.04014,0.76620,0.00000,0.00000,0.00000,62,-7,45,3,67,33,41,6,ok,2,0,0.001,5,-0.42,-0.06,9.13,35,0.102,8.36
4.9208,-0.01222,0.04014,0.76620,0.00000,0.00000,0.00000,61,-9,47,3,69,29,42,7,ok,2,0,0.001,5,-0.42,-0.06,9.13,35,0.115,8.36
4.9256,-0.01222,0.04014,0.76620,0.00000,0.00000,0.00000,59,-9,48,4,71,24,44,7,ok,2,0,0.001,5,-0.42,-0.06,9.13,35,0.127,8.36
4.9381,-0.01222,0.04014,0.76620,0.00000,0.00000,0.00000,56,-10,49,4,72,22,44,7,ok,2,0,0.001,5,-0.42,-0.06,9.13,35,0.140,8.36
4.9608,-0.01222,0.04014,0.76620,0.00000,0.00000,0.00000,54,-10,50,4,73,21,45,7,ok,2,0,0.001,5,-0.42,-0.06,9.13,35,0.152,8.36
4.9641,-0.01222,0.04014,0.76620,0.00000,0.00000,0.00000,52,-11,50,6,73,19,46,7,ok,2,0,0.001,5,-0.42,-0.06,9.13,35,0.165,8.36
4.9765,-0.01222,0.04014,0.76620,0.00000,0.00000,0.00000,49,-11,51,6,73,15,47,8,ok,2,0,0.001,5,-0.42,-0.06,9.13,35,0.178,8.36
4.9968,0.10123,0.01047,0.76620,0.00000,0.00000,0.00000,47,-11,52,6,73,12,48,8,ok,2,0,0.001,5,-0.59,1.19,9.73,36,0.000,8.36
5.0017,0.10123,0.01047,0.76620,0.00000,0.00000,0.00000,44,-10,53,6,73,11,49,8,ok,2,0,0.001,5,-0.59,1.19,9.73,36,0.013,8.36
5.0141,0.10123,0.01047,0.76620,0.00000,0.00000,0.00000,41,-11,53,7,72,7,49,8,ok,2,0,0.001,5,-0.59,1.19,9.73,36,0.025,8.36
5.0408,0.10123,0.01047,0.76620,0.00000,0.00000,0.00000,38,-11,56,7,72,6,49,7,ok,2,0,0.001,5,-0.59,1.19,9.73,36,0.038,8.36
5.0439,0.10123,0.01047,0.76620,0.00000,0.00000,0.00000,36,-9,56,6,71,4,51,8,ok,2,0,0.001,5,-0.59,1.19,9.73,36,0.055,8.36
5.0566,0.10123,0.01047,0.76620,0.00000,0.00000,0.00000,33,-8,57,6,69,2,51,7,ok,2,0,0.001,5,-0.59,1.19,9.73,36,0.068,8.36
5.0768,0.10123,0.01047,0.76620,0.00000,0.00000,0.00000,30,-7,57,7,66,2,52,8,ok,0,0,0.001,5,-0.59,1.19,9.73,36,0.080,8.36
5.0817,0.10123,0.01047,0.76620,0.00000,0.00000,0.00000,27,-5,58,7,65,0,52,8,ok,0,0,0.001,5,-0.59,1.19,9.73,36,0.093,8.36
5.0941,0.10123,0.01047,0.76620,0.00000,0.00000,0.00000,24,-3,59,7,63,-2,54,8,ok,0,0,0.001,5,-0.59,1.19,9.73,36,0.105,8.36
5.1168,0.10123,0.01047,0.76620,0.00000,0.00000,0.00000,20,-1,59,8,61,-3,55,8,ok,0,0,0.001,5,-0.59,1.19,9.73,36,0.118,8.36
5.1200,0.10123,0.01047,0.76620,0.00000,0.00000,0.00000,19,-1,60,10,60,-5,54,7,ok,0,0,0.001,5,-0.59,1.19,9.73,36,0.131,8.36
5.1328,0.10123,0.01047,0.76620,0.00000,0.00000,0.00000,18,0,61,10,58,-5,56,5,ok,0,0,0.001,5,-0.59,1.19,9.73,36,0.144,8.36
5.1528,0.10123,0.01047,0.76620,0.00000,0.00000,0.00000,16,2,61,11,55,-6,57,7,ok,0,0,0.001,5,-0.59,1.19,9.73,36,0.156,8.36
5.1575,0.10123,0.01047,0.76620,0.00000,0.00000,0.00000,15,5,61,11,54,-7,58,7,ok,0,0,0.001,5,-0.59,1.19,9.73,36,0.168,8.36
5.1701,0.10123,0.01047,0.76620,0.00000,0.00000,0.00000,13,8,61,12,51,-6,58,8,ok,0,0,0.001,5,-0.59,1.19,9.73,36,0.181,8.36
5.1928,0.10123,0.01047,0.76620,0.00000,0.00000,0.00000,12,10,62,12,48,-5,59,8,ok,0,0,0.001,5,-0.59,1.19,9.73,36,0.194,8.36
5.1962,0.09774,0.06109,0.79238,0.00000,0.00000,0.00000,14,11,62,13,45,-5,60,9,ok,0,0,0.001,5,2.27,0.34,10.11,37,0.000,8.36
5.2085,0.09774,0.06109,0.79238,0.00000,0.00000,0.00000,14,11,61,14,42,-5,60,9,ok,0,0,0.001,5,2.27,0.34,10.11,37,0.013,8.36
5.2288,0.09774,0.06109,0.79238,0.00000,0.00000,0.00000,16,10,62,14,40,-4,60,10,ok,0,0,0.001,5,2.27,0.34,10.11,37,0.025,8.36
5.2335,0.09774,0.06109,0.79238,0.00000,0.00000,0.00000,17,9,62,15,37,-3,61,11,ok,0,0,0.001,5,2.27,0.34,10.11,37,0.038,8.36
5.2461,0.09774,0.06109,0.79238,0.00000,0.00000,0.00000,18,8,62,15,34,-3,61,12,ok,0,0,0.001,5,2.27,0.34,10.11,37,0.050,8.36
5.2688,0.09774,0.06109,0.79238,0.00000,0.00000,0.00000,20,7,63,16,31,-1,61,12,ok,0,0,0.001,5,2.27,0.34,10.11,37,0.063,8.36
5.2719,0.09774,0.06109,0.79238,0.00000,0.00000,0.00000,20,7,63,17,29,0,62,13,ok,0,0,0.001,5,2.27,0.34,10.11,37,0.076,8.36
5.2845,0.09774,0.06109,0.79238,0.00000,0.00000,0.00000,22,6,64,18,28,2,62,14,ok,0,0,0.001,5,2.27,0.34,10.11,37,0.089,8.36
5.3048,0.09774,0.06109,0.79238,0.00000,0.00000,0.00000,23,5,64,19,25,5,63,15,ok,0,0,0.001,5,2.27,0.34,10.11,37,0.101,8.36
5.3095,0.09774,0.06109,0.79238,0.00000,0.00000,0.00000,24,4,64,20,24,8,63,16,ok,0,0,0.001,5,2.27,0.34,10.11,37,0.114,8.36
5.3221,0.09774,0.06109,0.79238,0.00000,0.00000,0.00000,25,4,64,22,23,11,63,17,ok,0,0,0.001,5,2.27,0.34,10.11,37,0.126,8.36
5.3448,0.09774,0.06109,0.79238,0.00000,0.00000,0.00000,26,3,64,23,22,15,64,17,ok,0,0,0.001,5,2.27,0.34,10.11,37,0.139,8.36
5.3479,0.09774,0.06109,0.79238,0.00000,0.00000,0.00000,27,3,63,25,24,14,64,18,ok,0,0,0.001,5,2.27,0.34,10.11,37,0.152,8.36
5.3605,0.09774,0.06109,0.79238,0.00000,0.00000,0.00000,28,2,63,27,24,14,64,19,ok,0,0,0.001,5,2.27,0.34,10.11,37,0.165,8.36
5.3808,0.09774,0.06109,0.79238,0.00000,0.00000,0.00000,29,2,64,25,25,12,64,20,ok,0,0,0.001,5,2.27,0.34,10.11,37,0.177,8.36
5.3855,0.09774,0.06109,0.79238,0.00000,0.00000,0.00000,30,1,67,22,26,11,65,20,ok,0,0,0.001,5,2.27,0.34,10.11,37,0.190,8.36
5.3984,0.04363,0.11868,0.77667,0.00000,0.00000,0.00000,31,1,69,19,28,11,65,22,ok,0,0,0.001,5,0.18,0.34,8.86,38,0.000,8.36
5.4208,0.04363,0.11868,0.77667,0.00000,0.00000,0.00000,33,1,70,15,29,10,64,23,ok,0,0,0.001,5,0.18,0.34,8.86,38,0.013,8.36
5.4239,0.04363,0.11868,0.77667,0.00000,0.00000,0.00000,35,1,71,13,30,9,65,25,ok,0,0,0.001,5,0.18,0.34,8.86,38,0.026,8.36
5.4365,0.04363,0.11868,0.77667,0.00000,0.00000,0.00000,37,1,70,12,32,9,65,25,ok,0,0,0.001,5,0.18,0.34,8.86,38,0.039,8.36
5.4568,0.04363,0.11868,0.77667,0.00000,0.00000,0.00000,38,1,70,9,32,9,64,28,ok,0,0,0.001,5,0.18,0.34,8.86,38,0.051,8.36
5.4615,0.04363,0.11868,0.77667,0.00000,0.00000,0.00000,39,2,69,6,35,9,64,29,ok,0,0,0.001,5,0.18,0.34,8.86,38,0.063,8.36
5.4741,0.04363,0.11868,0.77667,0.00000,0.00000,0.00000,40,1,68,3,36,9,64,30,ok,0,0,0.001,5,0.18,0.34,8.86,38,0.076,8.36
5.4968,0.04363,0.11868,0.77667,0.00000,0.00000,0.00000,42,1,67,1,37,9,64,32,ok,0,0,0.001,5,0.18,0.34,8.86,38,0.088,8.36
5.5002,0.04363,0.11868,0.77667,0.00000,0.00000,0.00000,43,1,66,-1,39,8,64,34,ok,0,0,0.001,5,0.18,0.34,8.86,38,0.102,8.36
5.5126,0.04363,0.11868,0.77667,0.00000,0.00000,0.00000,44,1,64,-3,39,8,64,35,ok,0,0,0.001,5,0.18,0.34,8.86,38,0.115,8.36
5.5328,0.04363,0.11868,0.77667,0.00000,0.00000,0.00000,44,1,62,-4,41,7,65,35,ok,0,0,0.001,5,0.18,0.34,8.86,38,0.127,8.36
5.5376,0.04363,0.11868,0.77667,0.00000,0.00000,0.00000,45,2,61,-5,42,7,66,34,ok,0,0,0.001,5,0.18,0.34,8.86,38,0.140,8.36
5.5501,0.04363,0.11868,0.77667,0.00000,0.00000,0.00000,46,2,60,-8,43,7,68,32,ok,0,0,0.001,5,0.18,0.34,8.86,38,0.152,8.36
5.5729,0.04363,0.11868,0.77667,0.00000,0.00000,0.00000,48,3,57,-8,44,8,70,26,ok,0,0,0.002,5,0.18,0.34,8.86,38,0.165,8.36
5.5762,0.04363,0.11868,0.77667,0.00000,0.00000,0.00000,49,2,55,-9,45,8,71,23,ok,0,0,0.002,5,0.18,0.34,8.86,38,0.178,8.36
5.5886,0.04363,0.11868,0.77667,0.00000,0.00000,0.00000,50,2,53,-9,46,7,73,20,ok,0,0,0.002,5,0.18,0.34,8.86,38,0.191,8.36
5.6088,-0.08727,0.03316,0.86045,0.00000,0.00000,0.00000,50,4,51,-10,47,7,73,20,ok,0,0,0.002,5,0.39,-0.51,11.50,39,0.000,8.36
5.6136,-0.08727,0.03316,0.86045,0.00000,0.00000,0.00000,51,5,48,-10,48,7,73,18,ok,0,0,0.002,6,0.39,-0.51,11.50,39,0.012,8.36
5.6261,-0.08727,0.03316,0.86045,0.00000,0.00000,0.00000,52,4,46,-10,49,7,74,14,ok,0,0,0.002,6,0.39,-0.51,11.50,39,0.025,8.36
5.6488,-0.08727,0.03316,0.86045,0.00000,0.00000,0.00000,53,5,44,-10,49,8,73,11,ok,0,0,0.002,6,0.39,-0.51,11.50,39,0.038,8.36
5.6521,-0.08727,0.03316,0.86045,0.00000,0.00000,0.00000,53,6,41,-10,49,7,73,10,ok,0,0,0.002,6,0.39,-0.51,11.50,39,0.051,8.36
5.6645,-0.08727,0.03316,0.86045,0.00000,0.00000,0.00000,56,6,39,-10,50,8,72,6,ok,0,0,0.002,6,0.39,-0.51,11.50,39,0.063,8.36
5.6848,-0.08727,0.03316,0.86045,0.00000,0.00000,0.00000,56,6,37,-9,52,7,72,5,ok,0,0,0.002,6,0.39,-0.51,11.50,39,0.076,8.36
5.6896,-0.08727,0.03316,0.86045,0.00000,0.00000,0.00000,57,6,33,-8,52,8,70,3,ok,0,0,0.002,6,0.39,-0.51,11.50,39,0.088,8.36
5.7021,-0.08727,0.03316,0.86045,0.00000,0.00000,0.00000,58,7,30,-7,53,8,68,1,ok,2,0,0.002,6,0.39,-0.51,11.50,39,0.101,8.36
5.7248,-0.08727,0.03316,0.86045,0.00000,0.00000,0.00000,58,7,27,-6,54,8,66,1,ok,2,0,0.002,6,0.39,-0.51,11.50,39,0.113,8.36
5.7281,-0.08727,0.03316,0.86045,0.00000,0.00000,0.00000,59,8,24,-4,55,8,65,-1,ok,2,0,0.002,6,0.39,-0.51,11.50,39,0.127,8.36
5.7405,-0.08727,0.03316,0.86045,0.00000,0.00000,0.00000,60,9,21,-2,55,8,64,-2,ok,2,0,0.002,6,0.39,-0.51,11.50,39,0.139,8.36
5.7608,-0.08727,0.03316,0.86045,0.00000,0.00000,0.00000,60,10,19,-1,57,6,62,-3,ok,2,0,0.002,6,0.39,-0.51,11.50,39,0.152,8.36
5.7655,-0.08727,0.03316,0.86045,0.00000,0.00000,0.00000,61,10,18,1,58,7,60,-5,ok,2,0,0.002,6,0.39,-0.51,11.50,39,0.164,8.36
5.7781,-0.08727,0.03316,0.86045,0.00000,0.00000,0.00000,61,10,16,3,58,8,58,-5,ok,2,0,0.002,6,0.39,-0.51,11.50,39,0.177,8.36
5.8008,-0.08727,0.03316,0.86045,0.00000,0.00000,0.00000,61,11,15,6,59,9,56,-6,ok,2,0,0.002,6,0.39,-0.51,11.50,39,0.189,8.36
5.8042,-0.01047,0.03142,0.86394,0.00000,0.00000,0.00000,61,12,13,9,59,9,54,-6,ok,2,0,0.002,6,-0.22,0.96,8.48,40,0.000,8.36
5.8167,-0.01047,0.03142,0.86394,0.00000,0.00000,0.00000,61,12,12,11,60,10,50,-6,ok,2,0,0.002,6,-0.22,0.96,8.48,40,0.013,8.36
5.8368,-0.01047,0.03142,0.86394,0.00000,0.00000,0.00000,62,13,14,12,60,10,48,-5,ok,2,0,0.002,6,-0.22,0.96,8.48,40,0.025,8.36
5.8416,-0.01047,0.03142,0.86394,0.00000,0.00000,0.00000,61,14,15,11,61,11,45,-5,ok,2,0,0.002,6,-0.22,0.96,8.48,40,0.038,8.36
5.8541,-0.01047,0.03142,0.86394,0.00000,0.00000,0.00000,62,14,17,10,61,11,42,-4,ok,2,0,0.002,6,-0.22,0.96,8.48,40,0.050,8.36
5.8768,-0.01047,0.03142,0.86394,0.00000,0.00000,0.00000,62,15,19,9,61,12,40,-5,ok,2,0,0.002,6,-0.22,0.96,8.48,40,0.063,8.36
5.8799,-0.01047,0.03142,0.86394,0.00000,0.00000,0.00000,62,16,19,8,61,13,37,-4,ok,2,0,0.002,6,-0.22,0.96,8.48,40,0.076,8.36
5.8927,-0.01047,0.03142,0.86394,0.00000,0.00000,0.00000,63,17,21,7,62,13,35,-3,ok,2,0,0.002,6,-0.22,0.96,8.48,40,0.089,8.36
5.9128,-0.01047,0.03142,0.86394,0.00000,0.00000,0.00000,63,18,21,7,62,14,31,-2,ok,2,0,0.002,6,-0.22,0.96,8.48,40,0.101,8.36
5.9175,-0.01047,0.03142,0.86394,0.00000,0.00000,0.00000,64,19,23,6,63,14,30,-1,ok,2,0,0.002,6,-0.22,0.96,8.48,40,0.114,8.36
5.9301,-0.01047,0.03142,0.86394,0.00000,0.00000,0.00000,64,20,24,5,63,16,28,1,ok,2,0,0.002,6,-0.22,0.96,8.48,40,0.126,8.36
5.9528,-0.01047,0.03142,0.86394,0.00000,0.00000,0.00000,65,21,24,4,63,16,25,4,ok,2,0,0.002,6,-0.22,0.96,8.48,40,0.139,8.36
5.9559,-0.01047,0.03142,0.86394,0.00000,0.00000,0.00000,65,22,25,4,63,17,24,7,ok,2,0,0.002,6,-0.22,0.96,8.48,40,0.152,8.36
5.9687,-0.01047,0.03142,0.86394,0.00000,0.00000,0.00000,65,23,26,3,64,18,23,10,ok,2,0,0.002,6,-0.22,0.96,8.48,40,0.165,8.36
5.9888,-0.01047,0.03142,0.86394,0.00000,0.00000,0.00000,64,26,27,3,64,19,23,12,ok,2,0,0.002,6,-0.22,0.96,8.48,40,0.177,8.36
5.9938,-0.01047,0.03142,0.86394,0.00000,0.00000,0.00000,64,26,28,2,64,20,25,12,ok,2,0,0.002,6,-0.22,0.96,8.48,40,0.190,8.36
6.0063,0.02094,0.07505,0.95644,0.00000,0.00000,0.00000,65,25,29,2,64,21,25,11,ok,2,0,0.002,6,-0.56,-0.64,9.20,41,0.000,8.36
6.0288,0.02094,0.07505,0.95644,0.00000,0.00000,0.00000,67,22,30,2,65,22,25,10,ok,2,0,0.002,6,-0.56,-0.64,9.20,41,0.013,8.36
6.0319,0.02094,0.07505,0.95644,0.00000,0.00000,0.00000,69,18,31,1,64,24,27,9,ok,2,0,0.002,6,-0.56,-0.64,9.20,41,0.026,8.36
6.0445,0.02094,0.07505,0.95644,0.00000,0.00000,0.00000,70,13,32,2,64,25,28,10,ok,2,0,0.002,6,-0.56,-0.64,9.20,41,0.039,8.36
6.0648,0.02094,0.07505,0.95644,0.00000,0.00000,0.00000,70,11,34,2,65,26,29,9,ok,2,0,0.002,6,-0.56,-0.64,9.20,41,0.051,8.36
6.0695,0.02094,0.07505,0.95644,0.00000,0.00000,0.00000,70,11,35,2,64,28,30,8,ok,2,0,0.002,6,-0.56,-0.64,9.20,41,0.064,8.36
6.0821,0.02094,0.07505,0.95644,0.00000,0.00000,0.00000,70,8,37,2,64,29,32,8,ok,2,0,0.002,6,-0.56,-0.64,9.20,41,0.076,8.36
6.1048,0.02094,0.07505,0.95644,0.00000,0.00000,0.00000,69,5,38,3,64,31,33,8,ok,2,0,0.002,6,-0.56,-0.64,9.20,41,0.089,8.36
6.1079,0.02094,0.07505,0.95644,0.00000,0.00000,0.00000,69,2,40,3,64,32,35,8,ok,2,0,0.002,6,-0.56,-0.64,9.20,41,0.102,8.36
6.1204,0.02094,0.07505,0.95644,0.00000,0.00000,0.00000,67,0,41,3,63,34,36,8,ok,2,0,0.002,6,-0.56,-0.64,9.20,41,0.115,8.36
