# run_gait log  cmd_fwd=0.100 hz=80.0 fw_balance=off policy_yaw_sign=-1
t,roll,pitch,yaw,gx,gy,gz,j0,j1,j2,j3,j4,j5,j6,j7,guard_state,hottest_j,hottest_tier,hottest_frac,duty_s,ax,ay,az,imu_n,imu_age_s,volt
0.0381,-0.02269,0.01396,0.00000,0.00000,0.00000,0.00000,36,0,57,10,60,-3,54,8,ok,3,0,0.000,0,0.14,-0.20,10.00,2,0.000,nan
0.0429,-0.02269,0.01396,0.00000,0.00000,0.00000,0.00000,34,1,59,10,59,-4,56,6,ok,2,0,0.000,0,0.14,-0.20,10.00,2,0.023,nan
0.0558,-0.02269,0.01396,0.00000,0.00000,0.00000,0.00000,34,4,59,11,56,-5,56,8,ok,4,0,0.000,0,0.14,-0.20,10.00,2,0.036,7.99
0.0780,-0.02269,0.01396,0.00000,0.00000,0.00000,0.00000,33,6,60,12,55,-6,57,8,ok,4,0,0.000,0,0.14,-0.20,10.00,2,0.048,7.99
0.0826,-0.02269,0.01396,0.00000,0.00000,0.00000,0.00000,32,10,59,13,52,-5,57,9,ok,4,0,0.000,0,0.14,-0.20,10.00,2,0.063,7.99
0.0950,-0.02269,0.01396,0.00000,0.00000,0.00000,0.00000,31,12,60,13,50,-5,58,10,ok,4,0,0.000,0,0.14,-0.20,10.00,2,0.076,7.99
0.1180,-0.02269,0.01396,0.00000,0.00000,0.00000,0.00000,32,13,60,14,47,-5,59,11,ok,4,0,0.000,0,0.14,-0.20,10.00,2,0.088,7.99
0.1224,-0.02269,0.01396,0.00000,0.00000,0.00000,0.00000,32,13,60,15,44,-4,59,11,ok,4,0,0.000,0,0.14,-0.20,10.00,2,0.103,7.99
0.1339,-0.02269,0.01396,0.00000,0.00000,0.00000,0.00000,33,12,61,15,42,-4,60,12,ok,4,0,0.000,0,0.14,-0.20,10.00,2,0.116,7.99
0.1539,-0.02269,0.01396,0.00000,0.00000,0.00000,0.00000,34,11,61,16,39,-3,60,12,ok,4,0,0.000,0,0.14,-0.20,10.00,2,0.128,7.99
0.1591,-0.02269,0.01396,0.00000,0.00000,0.00000,0.00000,34,11,61,17,36,-2,61,13,ok,4,0,0.000,0,0.14,-0.20,10.00,2,0.141,7.99
0.1714,-0.02269,0.01396,0.00000,0.00000,0.00000,0.00000,34,9,61,18,32,-1,61,14,ok,4,0,0.000,0,0.14,-0.20,10.00,2,0.153,7.99
0.1939,-0.02269,0.01396,0.00000,0.00000,0.00000,0.00000,34,9,61,19,30,0,62,15,ok,4,0,0.000,0,0.14,-0.20,10.00,2,0.166,7.99
0.1972,-0.02269,0.01396,0.00000,0.00000,0.00000,0.00000,36,8,62,20,27,2,62,16,ok,4,0,0.000,0,0.14,-0.20,10.00,2,0.179,7.99
0.2102,-0.02269,-0.10472,-0.00698,0.00000,0.00000,0.00000,36,7,62,21,25,5,63,16,ok,4,0,0.000,0,-0.99,0.29,11.69,3,0.000,7.99
0.2298,-0.02269,-0.10472,-0.00698,0.00000,0.00000,0.00000,37,6,62,21,23,8,64,17,ok,4,0,0.000,0,-0.99,0.29,11.69,3,0.013,7.99
0.2347,-0.02269,-0.10472,-0.00698,0.00000,0.00000,0.00000,38,6,62,22,22,11,64,18,ok,4,0,0.000,0,-0.99,0.29,11.69,3,0.025,7.99
0.2474,-0.02269,-0.10472,-0.00698,0.00000,0.00000,0.00000,38,6,62,23,21,14,65,18,ok,4,0,0.000,0,-0.99,0.29,11.69,3,0.037,7.99
0.2698,-0.02269,-0.10472,-0.00698,0.00000,0.00000,0.00000,39,6,61,26,23,14,65,19,ok,4,0,0.000,0,-0.99,0.29,11.69,3,0.050,7.99
0.2730,-0.02269,-0.10472,-0.00698,0.00000,0.00000,0.00000,40,5,62,28,23,14,65,20,ok,4,0,0.000,0,-0.99,0.29,11.69,3,0.063,7.99
0.2857,-0.02269,-0.10472,-0.00698,0.00000,0.00000,0.00000,40,5,64,26,24,12,65,21,ok,4,0,0.000,0,-0.99,0.29,11.69,3,0.076,7.99
0.3058,-0.02269,-0.10472,-0.00698,0.00000,0.00000,0.00000,40,4,67,23,25,11,66,22,ok,4,0,0.000,0,-0.99,0.29,11.69,3,0.088,7.99
0.3107,-0.02269,-0.10472,-0.00698,0.00000,0.00000,0.00000,42,4,69,19,26,11,66,24,ok,4,0,0.000,0,-0.99,0.29,11.69,3,0.101,7.99
0.3233,-0.02269,-0.10472,-0.00698,0.00000,0.00000,0.00000,42,4,71,16,27,11,65,25,ok,4,0,0.000,0,-0.99,0.29,11.69,3,0.113,7.99
0.3458,-0.02269,-0.10472,-0.00698,0.00000,0.00000,0.00000,43,4,71,13,28,9,65,27,ok,4,0,0.000,0,-0.99,0.29,11.69,3,0.126,7.99
0.3490,-0.02269,-0.10472,-0.00698,0.00000,0.00000,0.00000,44,3,71,13,30,10,65,27,ok,4,0,0.000,0,-0.99,0.29,11.69,3,0.139,7.99
0.3618,-0.02269,-0.10472,-0.00698,0.00000,0.00000,0.00000,44,3,71,10,30,10,64,30,ok,4,0,0.000,0,-0.99,0.29,11.69,3,0.152,7.99
0.3819,-0.02269,-0.10472,-0.00698,0.00000,0.00000,0.00000,45,4,71,7,32,10,64,31,ok,4,0,0.000,0,-0.99,0.29,11.69,3,0.164,7.99
0.3867,-0.02269,-0.10472,-0.00698,0.00000,0.00000,0.00000,46,4,70,4,34,9,65,32,ok,4,0,0.000,0,-0.99,0.29,11.69,3,0.177,7.99
0.3991,-0.02269,-0.10472,-0.00698,0.00000,0.00000,0.00000,46,3,69,1,35,9,64,33,ok,4,0,0.000,0,-0.99,0.29,11.69,3,0.189,7.99
0.4218,-0.14661,0.02094,0.01396,0.00000,0.00000,0.00000,47,3,68,0,36,8,64,35,ok,4,0,0.000,0,-0.09,-1.74,8.69,4,0.000,7.99
0.4250,-0.14661,0.02094,0.01396,0.00000,0.00000,0.00000,48,3,67,-1,37,7,64,36,ok,4,0,0.000,0,-0.09,-1.74,8.69,4,0.013,7.99
0.4379,-0.14661,0.02094,0.01396,0.00000,0.00000,0.00000,48,3,65,-2,38,6,65,36,ok,4,0,0.000,0,-0.09,-1.74,8.69,4,0.026,7.99
0.4578,-0.14661,0.02094,0.01396,0.00000,0.00000,0.00000,49,3,63,-4,40,6,66,35,ok,4,0,0.000,0,-0.09,-1.74,8.69,4,0.039,7.99
0.4627,-0.14661,0.02094,0.01396,0.00000,0.00000,0.00000,50,3,62,-6,42,6,68,32,ok,4,0,0.000,0,-0.09,-1.74,8.69,4,0.051,7.99
0.4754,-0.14661,0.02094,0.01396,0.00000,0.00000,0.00000,50,4,59,-7,43,6,70,27,ok,4,0,0.000,0,-0.09,-1.74,8.69,4,0.064,7.99
0.4979,-0.14661,0.02094,0.01396,0.00000,0.00000,0.00000,50,3,56,-8,44,6,71,23,ok,4,0,0.000,0,-0.09,-1.74,8.69,4,0.076,7.99
0.5010,-0.14661,0.02094,0.01396,0.00000,0.00000,0.00000,51,3,54,-8,46,6,73,20,ok,4,0,0.000,0,-0.09,-1.74,8.69,4,0.089,7.99
0.5137,-0.14661,0.02094,0.01396,0.00000,0.00000,0.00000,51,5,51,-9,47,6,73,20,ok,4,0,0.000,0,-0.09,-1.74,8.69,4,0.102,7.99
0.5339,-0.14661,0.02094,0.01396,0.00000,0.00000,0.00000,52,5,49,-10,48,7,73,18,ok,4,0,0.000,1,-0.09,-1.74,8.69,4,0.115,7.99
0.5389,-0.14661,0.02094,0.01396,0.00000,0.00000,0.00000,52,5,47,-10,49,7,73,14,ok,4,0,0.000,1,-0.09,-1.74,8.69,4,0.127,7.99
0.5511,-0.14661,0.02094,0.01396,0.00000,0.00000,0.00000,52,6,45,-10,50,7,73,11,ok,4,0,0.000,1,-0.09,-1.74,8.69,4,0.140,7.99
0.5738,-0.14661,0.02094,0.01396,0.00000,0.00000,0.00000,52,7,42,-10,51,7,72,10,ok,4,0,0.000,1,-0.09,-1.74,8.69,4,0.152,7.99
0.5774,-0.14661,0.02094,0.01396,0.00000,0.00000,0.00000,54,7,39,-11,52,7,72,6,ok,4,0,0.000,1,-0.09,-1.74,8.69,4,0.165,7.99
0.5898,-0.14661,0.02094,0.01396,0.00000,0.00000,0.00000,54,7,37,-10,53,6,72,4,ok,4,0,0.000,1,-0.09,-1.74,8.69,4,0.178,7.99
0.6098,-0.14661,0.02094,0.01396,0.00000,0.00000,0.00000,54,7,33,-9,53,7,70,3,ok,4,0,0.000,1,-0.09,-1.74,8.69,4,0.190,7.99
0.6150,-0.03316,-0.01222,0.00000,0.00000,0.00000,0.00000,54,8,31,-8,53,7,69,1,ok,4,0,0.000,1,0.13,-0.26,9.69,5,0.000,7.99
0.6271,-0.03316,-0.01222,0.00000,0.00000,0.00000,0.00000,54,8,27,-7,54,8,66,0,ok,2,0,0.000,1,0.13,-0.26,9.69,5,0.013,7.99
0.6498,-0.03316,-0.01222,0.00000,0.00000,0.00000,0.00000,54,9,24,-5,55,8,65,-2,ok,2,0,0.000,1,0.13,-0.26,9.69,5,0.025,7.99
0.6530,-0.03316,-0.01222,0.00000,0.00000,0.00000,0.00000,55,11,20,-3,56,9,64,-3,ok,2,0,0.000,1,0.13,-0.26,9.69,5,0.038,7.99
0.6657,-0.03316,-0.01222,0.00000,0.00000,0.00000,0.00000,55,11,19,-1,58,7,62,-4,ok,2,0,0.000,1,0.13,-0.26,9.69,5,0.051,7.99
0.6858,-0.03316,-0.01222,0.00000,0.00000,0.00000,0.00000,56,10,18,0,58,8,60,-5,ok,2,0,0.000,1,0.13,-0.26,9.69,5,0.064,7.99
0.6908,-0.03316,-0.01222,0.00000,0.00000,0.00000,0.00000,56,11,16,2,59,9,58,-6,ok,2,0,0.000,1,0.13,-0.26,9.69,5,0.076,7.99
0.7031,-0.03316,-0.01222,0.00000,0.00000,0.00000,0.00000,56,12,14,5,59,9,55,-6,ok,2,0,0.000,1,0.13,-0.26,9.69,5,0.089,7.99
0.7258,-0.03316,-0.01222,0.00000,0.00000,0.00000,0.00000,56,13,13,9,60,10,53,-7,ok,2,0,0.000,1,0.13,-0.26,9.69,5,0.101,7.99
0.7292,-0.03316,-0.01222,0.00000,0.00000,0.00000,0.00000,56,13,12,11,60,10,50,-6,ok,2,0,0.000,1,0.13,-0.26,9.69,5,0.114,7.99
0.7418,-0.03316,-0.01222,0.00000,0.00000,0.00000,0.00000,56,14,14,12,60,10,47,-6,ok,2,0,0.000,1,0.13,-0.26,9.69,5,0.127,7.99
0.7618,-0.03316,-0.01222,0.00000,0.00000,0.00000,0.00000,56,14,15,11,60,11,45,-6,ok,2,0,0.000,1,0.13,-0.26,9.69,5,0.140,7.99
0.7666,-0.03316,-0.01222,0.00000,0.00000,0.00000,0.00000,56,14,16,10,61,11,42,-5,ok,2,0,0.000,1,0.13,-0.26,9.69,5,0.152,7.99
0.7791,-0.03316,-0.01222,0.00000,0.00000,0.00000,0.00000,56,15,19,9,61,12,40,-5,ok,2,0,0.000,1,0.13,-0.26,9.69,5,0.165,7.99
0.8018,-0.03316,-0.01222,0.00000,0.00000,0.00000,0.00000,56,15,19,9,61,13,37,-4,ok,2,0,0.000,1,0.13,-0.26,9.69,5,0.177,7.99
0.8050,-0.03316,-0.01222,0.00000,0.00000,0.00000,0.00000,57,16,21,7,61,13,35,-3,ok,2,0,0.000,1,0.13,-0.26,9.69,5,0.190,7.99
0.8181,-0.10472,0.11519,-0.03491,0.00000,0.00000,0.00000,57,17,22,7,62,14,31,-1,ok,2,0,0.000,1,1.08,-1.29,9.82,6,0.000,7.99
0.8378,-0.10472,0.11519,-0.03491,0.00000,0.00000,0.00000,58,19,23,6,62,14,30,0,ok,2,0,0.000,1,1.08,-1.29,9.82,6,0.013,7.99
0.8427,-0.10472,0.11519,-0.03491,0.00000,0.00000,0.00000,58,20,24,5,62,15,28,1,ok,2,0,0.000,1,1.08,-1.29,9.82,6,0.025,7.99
0.8552,-0.10472,0.11519,-0.03491,0.00000,0.00000,0.00000,58,20,24,5,62,16,25,5,ok,2,0,0.000,1,1.08,-1.29,9.82,6,0.038,7.99
0.8778,-0.10472,0.11519,-0.03491,0.00000,0.00000,0.00000,58,21,25,4,63,16,24,7,ok,2,0,0.000,1,1.08,-1.29,9.82,6,0.050,7.99
0.8810,-0.10472,0.11519,-0.03491,0.00000,0.00000,0.00000,58,22,26,3,63,17,23,11,ok,2,0,0.000,1,1.08,-1.29,9.82,6,0.063,7.99
0.8940,-0.10472,0.11519,-0.03491,0.00000,0.00000,0.00000,57,25,26,3,64,18,23,13,ok,2,0,0.000,1,1.08,-1.29,9.82,6,0.076,7.99
0.9138,-0.10472,0.11519,-0.03491,0.00000,0.00000,0.00000,57,25,27,3,64,19,25,12,ok,2,0,0.000,1,1.08,-1.29,9.82,6,0.089,7.99
0.9186,-0.10472,0.11519,-0.03491,0.00000,0.00000,0.00000,58,24,28,2,64,21,25,12,ok,2,0,0.000,1,1.08,-1.29,9.82,6,0.101,7.99
0.9311,-0.10472,0.11519,-0.03491,0.00000,0.00000,0.00000,58,20,29,2,65,22,26,10,ok,2,0,0.000,1,1.08,-1.29,9.82,6,0.114,7.99
0.9538,-0.10472,0.11519,-0.03491,0.00000,0.00000,0.00000,60,17,31,2,64,23,27,9,ok,2,0,0.000,1,1.08,-1.29,9.82,6,0.126,7.99
0.9570,-0.10472,0.11519,-0.03491,0.00000,0.00000,0.00000,60,13,32,2,64,25,29,10,ok,2,0,0.000,1,1.08,-1.29,9.82,6,0.139,7.99
0.9699,-0.10472,0.11519,-0.03491,0.00000,0.00000,0.00000,60,11,33,2,65,25,30,9,ok,2,0,0.000,1,1.08,-1.29,9.82,6,0.152,7.99
0.9898,-0.10472,0.11519,-0.03491,0.00000,0.00000,0.00000,60,11,35,1,64,27,31,9,ok,2,0,0.000,1,1.08,-1.29,9.82,6,0.165,7.99
0.9947,-0.10472,0.11519,-0.03491,0.00000,0.00000,0.00000,60,7,36,1,64,29,33,9,ok,2,0,0.000,1,1.08,-1.29,9.82,6,0.177,7.99
1.0071,-0.10472,0.11519,-0.03491,0.00000,0.00000,0.00000,60,5,38,3,64,30,34,9,ok,2,0,0.000,1,1.08,-1.29,9.82,6,0.190,7.99
1.0298,-0.05585,0.00698,0.02967,0.00000,0.00000,0.00000,60,2,39,3,64,32,35,8,ok,2,0,0.000,1,-0.26,0.07,9.79,7,0.000,7.99
1.0331,-0.05585,0.00698,0.02967,0.00000,0.00000,0.00000,59,-1,41,2,64,34,36,8,ok,2,0,0.000,1,-0.26,0.07,9.79,7,0.013,7.99
1.0457,-0.05585,0.00698,0.02967,0.00000,0.00000,0.00000,58,-2,42,2,64,35,37,8,ok,2,0,0.000,1,-0.26,0.07,9.79,7,0.026,7.99
1.0658,-0.05585,0.00698,0.02967,0.00000,0.00000,0.00000,58,-4,43,2,65,36,39,8,ok,2,0,0.000,1,-0.26,0.07,9.79,7,0.039,7.99
1.0706,-0.05585,0.00698,0.02967,0.00000,0.00000,0.00000,56,-5,44,2,66,35,40,7,ok,2,0,0.000,1,-0.26,0.07,9.79,7,0.051,7.99
1.0831,-0.05585,0.00698,0.02967,0.00000,0.00000,0.00000,56,-6,45,2,68,33,41,7,ok,2,0,0.000,1,-0.26,0.07,9.79,7,0.064,7.99
1.1058,-0.05585,0.00698,0.02967,0.00000,0.00000,0.00000,56,-8,46,2,70,29,42,7,ok,2,0,0.000,1,-0.26,0.07,9.79,7,0.076,7.99
1.1091,-0.05585,0.00698,0.02967,0.00000,0.00000,0.00000,54,-8,48,3,71,24,44,7,ok,2,0,0.000,1,-0.26,0.07,9.79,7,0.089,7.99
1.1217,-0.05585,0.00698,0.02967,0.00000,0.00000,0.00000,54,-10,49,3,73,21,44,7,ok,2,0,0.000,1,-0.26,0.07,9.79,7,0.102,7.99
1.1418,-0.05585,0.00698,0.02967,0.00000,0.00000,0.00000,52,-10,50,3,74,20,45,7,ok,2,0,0.000,1,-0.26,0.07,9.79,7,0.115,7.99
1.1467,-0.05585,0.00698,0.02967,0.00000,0.00000,0.00000,51,-11,50,5,74,18,46,7,ok,2,0,0.000,1,-0.26,0.07,9.79,7,0.127,7.99
1.1591,-0.05585,0.00698,0.02967,0.00000,0.00000,0.00000,50,-11,51,6,74,15,47,8,ok,2,0,0.000,1,-0.26,0.07,9.79,7,0.140,7.99
1.1818,-0.05585,0.00698,0.02967,0.00000,0.00000,0.00000,48,-11,52,6,73,12,48,8,ok,2,0,0.000,1,-0.26,0.07,9.79,7,0.152,7.99
1.1852,-0.05585,0.00698,0.02967,0.00000,0.00000,0.00000,47,-10,53,6,72,10,49,8,ok,2,0,0.000,1,-0.26,0.07,9.79,7,0.165,7.99
1.1977,-0.05585,0.00698,0.02967,0.00000,0.00000,0.00000,46,-10,54,7,72,7,49,9,ok,2,0,0.000,1,-0.26,0.07,9.79,7,0.178,7.99
1.2178,-0.05585,0.00698,0.02967,0.00000,0.00000,0.00000,44,-11,56,7,71,5,50,8,ok,2,0,0.000,1,-0.26,0.07,9.79,7,0.191,7.99
1.2230,0.00175,-0.02094,0.01745,0.00000,0.00000,0.00000,43,-10,56,7,70,4,51,9,ok,2,0,0.000,1,-0.28,-0.31,9.07,8,0.000,7.99
1.2351,0.00175,-0.02094,0.01745,0.00000,0.00000,0.00000,42,-8,57,7,69,1,52,8,ok,2,0,0.000,1,-0.28,-0.31,9.07,8,0.013,7.99
1.2578,0.00175,-0.02094,0.01745,0.00000,0.00000,0.00000,40,-7,57,8,66,2,52,8,ok,2,0,0.000,1,-0.28,-0.31,9.07,8,0.025,7.99
1.2610,0.00175,-0.02094,0.01745,0.00000,0.00000,0.00000,38,-5,58,7,65,-1,53,8,ok,2,0,0.000,1,-0.28,-0.31,9.07,8,0.038,7.99
1.2739,0.00175,-0.02094,0.01745,0.00000,0.00000,0.00000,37,-3,59,8,64,-2,54,9,ok,2,0,0.000,1,-0.28,-0.31,9.07,8,0.051,7.99
1.2938,0.00175,-0.02094,0.01745,0.00000,0.00000,0.00000,35,-1,59,9,61,-4,55,8,ok,2,0,0.000,1,-0.28,-0.31,9.07,8,0.064,7.99
1.2987,0.00175,-0.02094,0.01745,0.00000,0.00000,0.00000,35,-1,60,10,60,-5,54,8,ok,2,0,0.000,1,-0.28,-0.31,9.07,8,0.076,7.99
1.3111,0.00175,-0.02094,0.01745,0.00000,0.00000,0.00000,34,1,61,10,58,-5,57,6,ok,2,0,0.000,1,-0.28,-0.31,9.07,8,0.089,7.99
1.3338,0.00175,-0.02094,0.01745,0.00000,0.00000,0.00000,34,3,61,11,55,-6,57,7,ok,2,0,0.000,1,-0.28,-0.31,9.07,8,0.101,7.99
1.3370,0.00175,-0.02094,0.01745,0.00000,0.00000,0.00000,32,6,61,10,54,-7,58,8,ok,2,0,0.000,1,-0.28,-0.31,9.07,8,0.114,7.99
1.3499,0.00175,-0.02094,0.01745,0.00000,0.00000,0.00000,32,9,61,12,51,-6,58,8,ok,2,0,0.000,1,-0.28,-0.31,9.07,8,0.127,7.99
1.3698,0.00175,-0.02094,0.01745,0.00000,0.00000,0.00000,32,11,62,11,48,-6,59,9,ok,2,0,0.000,1,-0.28,-0.31,9.07,8,0.140,7.99
1.3747,0.00175,-0.02094,0.01745,0.00000,0.00000,0.00000,32,11,62,13,45,-6,60,10,ok,2,0,0.000,1,-0.28,-0.31,9.07,8,0.152,7.99
1.3871,0.00175,-0.02094,0.01745,0.00000,0.00000,0.00000,32,11,61,13,42,-5,60,10,ok,4,0,0.000,1,-0.28,-0.31,9.07,8,0.165,7.99
1.4099,0.00175,-0.02094,0.01745,0.00000,0.00000,0.00000,33,10,62,14,40,-5,61,11,ok,4,0,0.000,1,-0.28,-0.31,9.07,8,0.177,7.99
1.4132,0.00175,-0.02094,0.01745,0.00000,0.00000,0.00000,34,9,62,14,37,-4,61,11,ok,4,0,0.000,1,-0.28,-0.31,9.07,8,0.190,7.99
1.4260,-0.06981,0.00873,0.02443,0.00000,0.00000,0.00000,34,9,62,15,34,-3,61,13,ok,4,0,0.000,1,-0.29,-0.66,9.51,9,0.000,7.99
1.4458,-0.06981,0.00873,0.02443,0.00000,0.00000,0.00000,36,7,63,16,31,-2,61,13,ok,4,0,0.000,1,-0.29,-0.66,9.51,9,0.013,7.99
1.4507,-0.06981,0.00873,0.02443,0.00000,0.00000,0.00000,36,7,63,17,29,-1,62,14,ok,4,0,0.000,1,-0.29,-0.66,9.51,9,0.025,7.99
1.4631,-0.06981,0.00873,0.02443,0.00000,0.00000,0.00000,36,6,64,18,27,1,62,15,ok,4,0,0.000,1,-0.29,-0.66,9.51,9,0.038,7.99
1.4858,-0.06981,0.00873,0.02443,0.00000,0.00000,0.00000,37,5,64,20,25,4,63,15,ok,4,0,0.000,1,-0.29,-0.66,9.51,9,0.050,7.99
1.4890,-0.06981,0.00873,0.02443,0.00000,0.00000,0.00000,38,4,64,21,24,7,63,16,ok,4,0,0.000,1,-0.29,-0.66,9.51,9,0.063,7.99
1.5017,-0.06981,0.00873,0.02443,0.00000,0.00000,0.00000,38,4,64,22,23,11,63,18,ok,4,0,0.000,1,-0.29,-0.66,9.51,9,0.076,7.99
1.5218,-0.06981,0.00873,0.02443,0.00000,0.00000,0.00000,38,3,64,23,22,14,64,18,ok,4,0,0.000,1,-0.29,-0.66,9.51,9,0.088,7.99
1.5269,-0.06981,0.00873,0.02443,0.00000,0.00000,0.00000,39,3,63,26,24,13,64,19,ok,4,0,0.000,1,-0.29,-0.66,9.51,9,0.101,7.99
1.5391,-0.06981,0.00873,0.02443,0.00000,0.00000,0.00000,40,2,63,27,24,13,64,20,ok,4,0,0.000,1,-0.29,-0.66,9.51,9,0.114,7.99
1.5618,-0.06981,0.00873,0.02443,0.00000,0.00000,0.00000,40,2,64,26,25,11,64,21,ok,4,0,0.000,2,-0.29,-0.66,9.51,9,0.126,7.99
1.5650,-0.06981,0.00873,0.02443,0.00000,0.00000,0.00000,40,2,67,23,26,10,65,21,ok,4,0,0.000,2,-0.29,-0.66,9.51,9,0.139,7.99
1.5777,-0.06981,0.00873,0.02443,0.00000,0.00000,0.00000,41,1,69,19,28,10,65,23,ok,4,0,0.000,2,-0.29,-0.66,9.51,9,0.152,7.99
1.5979,-0.06981,0.00873,0.02443,0.00000,0.00000,0.00000,42,2,70,15,29,10,64,24,ok,4,0,0.000,2,-0.29,-0.66,9.51,9,0.165,7.99
1.6029,-0.06981,0.00873,0.02443,0.00000,0.00000,0.00000,42,2,71,12,30,9,64,26,ok,4,0,0.000,2,-0.29,-0.66,9.51,9,0.177,7.99
1.6152,-0.06981,0.00873,0.02443,0.00000,0.00000,0.00000,44,2,70,12,33,9,65,26,ok,4,0,0.000,2,-0.29,-0.66,9.51,9,0.189,7.99
1.6378,-0.15533,-0.02793,0.06109,0.00000,0.00000,0.00000,44,2,70,8,33,9,64,29,ok,4,0,0.000,2,0.06,-1.54,8.87,10,0.000,7.99
1.6410,-0.15533,-0.02793,0.06109,0.00000,0.00000,0.00000,45,3,69,6,35,8,64,30,ok,4,0,0.000,2,0.06,-1.54,8.87,10,0.013,7.99
1.6539,-0.15533,-0.02793,0.06109,0.00000,0.00000,0.00000,46,3,69,3,36,8,64,31,ok,4,0,0.000,2,0.06,-1.54,8.87,10,0.026,7.99
1.6738,-0.15533,-0.02793,0.06109,0.00000,0.00000,0.00000,46,2,67,0,37,8,64,33,ok,4,0,0.000,2,0.06,-1.54,8.87,10,0.039,7.99
1.6786,-0.15533,-0.02793,0.06109,0.00000,0.00000,0.00000,47,2,66,-2,38,8,64,35,ok,4,0,0.000,2,0.06,-1.54,8.87,10,0.051,7.99
1.6911,-0.15533,-0.02793,0.06109,0.00000,0.00000,0.00000,48,2,64,-3,39,7,64,36,ok,4,0,0.000,2,0.06,-1.54,8.87,10,0.064,7.99
1.7138,-0.15533,-0.02793,0.06109,0.00000,0.00000,0.00000,48,2,62,-4,40,7,65,36,ok,4,0,0.000,2,0.06,-1.54,8.87,10,0.076,7.99
1.7170,-0.15533,-0.02793,0.06109,0.00000,0.00000,0.00000,48,2,61,-5,42,7,66,35,ok,4,0,0.000,2,0.06,-1.54,8.87,10,0.089,7.99
1.7298,-0.15533,-0.02793,0.06109,0.00000,0.00000,0.00000,49,2,60,-7,43,7,67,33,ok,4,0,0.000,2,0.06,-1.54,8.87,10,0.102,7.99
1.7498,-0.15533,-0.02793,0.06109,0.00000,0.00000,0.00000,50,3,58,-8,44,7,69,28,ok,4,0,0.000,2,0.06,-1.54,8.87,10,0.115,7.99
1.7547,-0.15533,-0.02793,0.06109,0.00000,0.00000,0.00000,50,3,56,-9,45,7,70,24,ok,4,0,0.000,2,0.06,-1.54,8.87,10,0.127,7.99
1.7672,-0.15533,-0.02793,0.06109,0.00000,0.00000,0.00000,50,3,54,-9,46,7,72,21,ok,4,0,0.000,2,0.06,-1.54,8.87,10,0.140,7.99
1.7899,-0.15533,-0.02793,0.06109,0.00000,0.00000,0.00000,50,6,51,-10,47,7,72,21,ok,4,0,0.000,2,0.06,-1.54,8.87,10,0.152,7.99
1.7932,-0.15533,-0.02793,0.06109,0.00000,0.00000,0.00000,51,6,49,-10,47,7,72,19,ok,4,0,0.000,2,0.06,-1.54,8.87,10,0.165,7.99
1.8057,-0.15533,-0.02793,0.06109,0.00000,0.00000,0.00000,52,6,46,-10,48,7,72,15,ok,4,0,0.000,2,0.06,-1.54,8.87,10,0.178,7.99
1.8259,-0.15533,-0.02793,0.06109,0.00000,0.00000,0.00000,52,7,44,-10,49,7,72,13,ok,4,0,0.001,2,0.06,-1.54,8.87,10,0.191,7.99
1.8310,-0.01571,0.00000,0.07156,0.00000,0.00000,0.00000,52,7,42,-10,50,7,71,11,ok,4,0,0.001,2,-0.26,-0.24,9.39,11,0.000,7.99
1.8433,-0.01571,0.00000,0.07156,0.00000,0.00000,0.00000,53,8,39,-11,51,8,70,7,ok,2,0,0.001,2,-0.26,-0.24,9.39,11,0.013,7.99
1.8658,-0.01571,0.00000,0.07156,0.00000,0.00000,0.00000,54,8,37,-10,52,7,70,6,ok,2,0,0.001,2,-0.26,-0.24,9.39,11,0.025,7.99
1.8690,-0.01571,0.00000,0.07156,0.00000,0.00000,0.00000,54,8,33,-9,52,7,69,4,ok,2,0,0.001,2,-0.26,-0.24,9.39,11,0.038,7.99
1.8817,-0.01571,0.00000,0.07156,0.00000,0.00000,0.00000,54,9,31,-8,53,8,67,2,ok,2,0,0.001,2,-0.26,-0.24,9.39,11,0.051,7.99
1.9019,-0.01571,0.00000,0.07156,0.00000,0.00000,0.00000,54,9,28,-7,54,8,65,2,ok,2,0,0.001,2,-0.26,-0.24,9.39,11,0.063,7.99
1.9067,-0.01571,0.00000,0.07156,0.00000,0.00000,0.00000,54,10,25,-5,55,8,64,0,ok,2,0,0.001,2,-0.26,-0.24,9.39,11,0.076,7.99
1.9191,-0.01571,0.00000,0.07156,0.00000,0.00000,0.00000,55,11,21,-3,56,8,63,-2,ok,2,0,0.001,2,-0.26,-0.24,9.39,11,0.088,7.99
1.9418,-0.01571,0.00000,0.07156,0.00000,0.00000,0.00000,55,11,19,-2,58,6,61,-3,ok,2,0,0.001,2,-0.26,-0.24,9.39,11,0.101,7.99
1.9450,-0.01571,0.00000,0.07156,0.00000,0.00000,0.00000,56,11,18,0,58,7,59,-4,ok,2,0,0.001,2,-0.26,-0.24,9.39,11,0.114,7.99
1.9577,-0.01571,0.00000,0.07156,0.00000,0.00000,0.00000,56,11,16,2,58,8,58,-5,ok,2,0,0.001,2,-0.26,-0.24,9.39,11,0.127,7.99
1.9778,-0.01571,0.00000,0.07156,0.00000,0.00000,0.00000,56,11,15,6,59,8,55,-6,ok,2,0,0.001,2,-0.26,-0.24,9.39,11,0.139,7.99
1.9827,-0.01571,0.00000,0.07156,0.00000,0.00000,0.00000,56,12,13,9,59,9,53,-6,ok,2,0,0.001,2,-0.26,-0.24,9.39,11,0.152,7.99
1.9951,-0.01571,0.00000,0.07156,0.00000,0.00000,0.00000,56,12,13,11,60,9,50,-5,ok,2,0,0.001,2,-0.26,-0.24,9.39,11,0.165,7.99
2.0178,-0.01571,0.00000,0.07156,0.00000,0.00000,0.00000,56,13,14,12,60,10,47,-5,ok,2,0,0.001,2,-0.26,-0.24,9.39,11,0.177,7.99
2.0211,-0.01571,0.00000,0.07156,0.00000,0.00000,0.00000,56,13,15,11,61,11,45,-5,ok,2,0,0.001,2,-0.26,-0.24,9.39,11,0.190,7.99
2.0341,0.04014,-0.01047,0.04363,0.00000,0.00000,0.00000,56,14,17,10,61,11,42,-4,ok,2,0,0.001,2,0.38,0.85,9.84,12,0.000,7.99
2.0538,0.04014,-0.01047,0.04363,0.00000,0.00000,0.00000,56,15,19,9,61,12,40,-4,ok,2,0,0.001,2,0.38,0.85,9.84,12,0.013,7.99
2.0589,0.04014,-0.01047,0.04363,0.00000,0.00000,0.00000,56,15,19,8,61,13,37,-3,ok,2,0,0.001,2,0.38,0.85,9.84,12,0.025,7.99
2.0712,0.04014,-0.01047,0.04363,0.00000,0.00000,0.00000,56,16,21,7,62,13,34,-3,ok,2,0,0.001,2,0.38,0.85,9.84,12,0.038,7.99
2.0939,0.04014,-0.01047,0.04363,0.00000,0.00000,0.00000,56,18,22,7,62,14,31,-1,ok,2,0,0.001,2,0.38,0.85,9.84,12,0.050,7.99
2.0972,0.04014,-0.01047,0.04363,0.00000,0.00000,0.00000,58,19,23,6,63,14,29,0,ok,2,0,0.001,2,0.38,0.85,9.84,12,0.063,7.99
2.1097,0.04014,-0.01047,0.04363,0.00000,0.00000,0.00000,58,20,24,5,63,15,27,1,ok,2,0,0.001,2,0.38,0.85,9.84,12,0.076,7.99
2.1298,0.04014,-0.01047,0.04363,0.00000,0.00000,0.00000,58,21,25,4,63,16,25,5,ok,2,0,0.001,2,0.38,0.85,9.84,12,0.089,7.99
2.1347,0.04014,-0.01047,0.04363,0.00000,0.00000,0.00000,58,23,26,4,63,17,24,7,ok,2,0,0.001,2,0.38,0.85,9.84,12,0.101,7.99
2.1471,0.04014,-0.01047,0.04363,0.00000,0.00000,0.00000,58,23,26,3,64,17,23,11,ok,2,0,0.001,2,0.38,0.85,9.84,12,0.114,7.99
2.1698,0.04014,-0.01047,0.04363,0.00000,0.00000,0.00000,57,26,27,2,64,19,22,13,ok,2,0,0.001,2,0.38,0.85,9.84,12,0.126,7.99
2.1730,0.04014,-0.01047,0.04363,0.00000,0.00000,0.00000,57,27,28,2,64,20,24,12,ok,2,0,0.001,2,0.38,0.85,9.84,12,0.139,7.99
2.1859,0.04014,-0.01047,0.04363,0.00000,0.00000,0.00000,58,25,29,2,64,21,24,12,ok,2,0,0.001,2,0.38,0.85,9.84,12,0.152,7.99
2.2058,0.04014,-0.01047,0.04363,0.00000,0.00000,0.00000,59,22,30,2,65,22,25,10,ok,2,0,0.001,2,0.38,0.85,9.84,12,0.165,7.99
2.2107,0.04014,-0.01047,0.04363,0.00000,0.00000,0.00000,60,18,31,1,64,24,26,9,ok,2,0,0.001,2,0.38,0.85,9.84,12,0.177,7.99
2.2231,0.04014,-0.01047,0.04363,0.00000,0.00000,0.00000,60,14,33,2,64,25,27,10,ok,2,0,0.001,2,0.38,0.85,9.84,12,0.190,7.99
2.2458,-0.01222,0.02618,0.06458,0.00000,0.00000,0.00000,60,11,34,2,65,26,28,9,ok,2,0,0.001,2,1.08,-1.23,9.08,13,0.000,7.99
2.2490,-0.01222,0.02618,0.06458,0.00000,0.00000,0.00000,60,11,36,2,64,28,30,9,ok,2,0,0.001,2,1.08,-1.23,9.08,13,0.013,7.99
2.2619,-0.01222,0.02618,0.06458,0.00000,0.00000,0.00000,60,8,37,2,63,29,32,9,ok,2,0,0.001,2,1.08,-1.23,9.08,13,0.026,7.99
2.2818,-0.01222,0.02618,0.06458,0.00000,0.00000,0.00000,60,5,39,3,64,30,33,9,ok,2,0,0.001,2,1.08,-1.23,9.08,13,0.039,7.99
2.2866,-0.01222,0.02618,0.06458,0.00000,0.00000,0.00000,60,2,40,3,64,32,34,8,ok,2,0,0.001,2,1.08,-1.23,9.08,13,0.051,7.99
2.2993,-0.01222,0.02618,0.06458,0.00000,0.00000,0.00000,59,-1,42,3,63,34,36,8,ok,2,0,0.001,2,1.08,-1.23,9.08,13,0.064,7.99
2.3219,-0.01222,0.02618,0.06458,0.00000,0.00000,0.00000,58,-3,43,3,63,35,36,8,ok,2,0,0.001,2,1.08,-1.23,9.08,13,0.076,7.99
2.3250,-0.01222,0.02618,0.06458,0.00000,0.00000,0.00000,58,-4,44,3,64,35,38,8,ok,2,0,0.001,2,1.08,-1.23,9.08,13,0.090,7.99
2.3378,-0.01222,0.02618,0.06458,0.00000,0.00000,0.00000,57,-5,44,3,65,35,39,8,ok,2,0,0.001,2,1.08,-1.23,9.08,13,0.102,7.99
2.3578,-0.01222,0.02618,0.06458,0.00000,0.00000,0.00000,56,-6,45,3,67,33,40,7,ok,2,0,0.001,2,1.08,-1.23,9.08,13,0.115,7.99
2.3628,-0.01222,0.02618,0.06458,0.00000,0.00000,0.00000,56,-8,47,3,69,29,42,7,ok,2,0,0.001,2,1.08,-1.23,9.08,13,0.127,7.99
2.3752,-0.01222,0.02618,0.06458,0.00000,0.00000,0.00000,54,-9,48,4,71,24,43,7,ok,2,0,0.001,2,1.08,-1.23,9.08,13,0.140,7.99
2.3978,-0.01222,0.02618,0.06458,0.00000,0.00000,0.00000,54,-10,49,4,72,22,44,7,ok,2,0,0.001,2,1.08,-1.23,9.08,13,0.152,7.99
2.4010,-0.01222,0.02618,0.06458,0.00000,0.00000,0.00000,52,-10,50,4,74,21,45,7,ok,2,0,0.001,2,1.08,-1.23,9.08,13,0.165,7.99
2.4137,-0.01222,0.02618,0.06458,0.00000,0.00000,0.00000,51,-11,50,6,74,18,46,7,ok,2,0,0.001,2,1.08,-1.23,9.08,13,0.178,7.99
2.4338,-0.01222,0.02618,0.06458,0.00000,0.00000,0.00000,50,-11,51,6,74,15,47,8,ok,2,0,0.001,2,1.08,-1.23,9.08,13,0.191,7.99
2.4390,0.01571,-0.00175,0.05760,0.00000,0.00000,0.00000,48,-11,52,6,73,12,48,8,ok,2,0,0.001,2,0.22,0.21,9.53,14,0.000,7.99
2.4511,0.01571,-0.00175,0.05760,0.00000,0.00000,0.00000,47,-10,53,6,73,10,49,8,ok,2,0,0.001,2,0.22,0.21,9.53,14,0.013,7.99
2.4738,0.01571,-0.00175,0.05760,0.00000,0.00000,0.00000,46,-11,53,7,72,7,49,9,ok,2,0,0.001,2,0.22,0.21,9.53,14,0.025,7.99
2.4770,0.01571,-0.00175,0.05760,0.00000,0.00000,0.00000,44,-11,56,7,72,5,50,8,ok,2,0,0.001,2,0.22,0.21,9.53,14,0.038,7.99
2.4897,0.01571,-0.00175,0.05760,0.00000,0.00000,0.00000,43,-10,56,7,71,4,51,9,ok,2,0,0.001,2,0.22,0.21,9.53,14,0.051,7.99
2.5098,0.01571,-0.00175,0.05760,0.00000,0.00000,0.00000,42,-8,57,7,69,1,52,7,ok,2,0,0.001,2,0.22,0.21,9.53,14,0.063,7.99
2.5147,0.01571,-0.00175,0.05760,0.00000,0.00000,0.00000,40,-7,57,8,66,2,52,8,ok,2,0,0.001,2,0.22,0.21,9.53,14,0.076,7.99
2.5271,0.01571,-0.00175,0.05760,0.00000,0.00000,0.00000,38,-5,58,7,65,-1,53,8,ok,2,0,0.001,2,0.22,0.21,9.53,14,0.089,7.99
2.5498,0.01571,-0.00175,0.05760,0.00000,0.00000,0.00000,37,-4,59,8,64,-2,54,9,ok,2,0,0.001,2,0.22,0.21,9.53,14,0.101,7.99
2.5532,0.01571,-0.00175,0.05760,0.00000,0.00000,0.00000,35,-1,59,9,61,-4,55,8,ok,2,0,0.001,3,0.22,0.21,9.53,14,0.114,7.99
2.5657,0.01571,-0.00175,0.05760,0.00000,0.00000,0.00000,35,-1,60,11,60,-5,54,8,ok,2,0,0.001,3,0.22,0.21,9.53,14,0.127,7.99
2.5858,0.01571,-0.00175,0.05760,0.00000,0.00000,0.00000,34,0,61,10,58,-5,56,6,ok,2,0,0.001,3,0.22,0.21,9.53,14,0.140,7.99
2.5907,0.01571,-0.00175,0.05760,0.00000,0.00000,0.00000,33,2,61,11,56,-6,57,7,ok,2,0,0.001,3,0.22,0.21,9.53,14,0.152,7.99
2.6031,0.01571,-0.00175,0.05760,0.00000,0.00000,0.00000,32,5,61,11,54,-7,58,8,ok,2,0,0.001,3,0.22,0.21,9.53,14,0.165,7.99
2.6259,0.01571,-0.00175,0.05760,0.00000,0.00000,0.00000,32,9,61,12,51,-6,58,8,ok,2,0,0.001,3,0.22,0.21,9.53,14,0.177,7.99
2.6292,0.01571,-0.00175,0.05760,0.00000,0.00000,0.00000,31,11,62,12,48,-6,59,9,ok,2,0,0.001,3,0.22,0.21,9.53,14,0.190,7.99
2.6421,-0.03665,0.01571,0.07330,0.00000,0.00000,0.00000,32,11,62,13,46,-6,60,9,ok,2,0,0.001,3,0.40,-0.21,8.85,15,0.000,7.99
2.6618,-0.03665,0.01571,0.07330,0.00000,0.00000,0.00000,32,11,61,14,42,-5,60,10,ok,2,0,0.001,3,0.40,-0.21,8.85,15,0.013,7.99
2.6667,-0.03665,0.01571,0.07330,0.00000,0.00000,0.00000,33,10,62,14,40,-5,61,11,ok,2,0,0.001,3,0.40,-0.21,8.85,15,0.025,7.99
2.6792,-0.03665,0.01571,0.07330,0.00000,0.00000,0.00000,34,9,62,15,37,-4,61,11,ok,2,0,0.001,3,0.40,-0.21,8.85,15,0.038,7.99
2.7018,-0.03665,0.01571,0.07330,0.00000,0.00000,0.00000,34,8,62,15,34,-3,61,13,ok,2,0,0.001,3,0.40,-0.21,8.85,15,0.050,7.99
2.7050,-0.03665,0.01571,0.07330,0.00000,0.00000,0.00000,35,7,63,16,31,-2,61,13,ok,4,0,0.001,3,0.40,-0.21,8.85,15,0.063,7.99
2.7178,-0.03665,0.01571,0.07330,0.00000,0.00000,0.00000,36,7,63,17,29,0,62,14,ok,4,0,0.001,3,0.40,-0.21,8.85,15,0.076,7.99
2.7378,-0.03665,0.01571,0.07330,0.00000,0.00000,0.00000,36,5,64,18,28,1,62,15,ok,4,0,0.001,3,0.40,-0.21,8.85,15,0.088,7.99
2.7429,-0.03665,0.01571,0.07330,0.00000,0.00000,0.00000,37,4,64,20,25,5,63,15,ok,4,0,0.001,3,0.40,-0.21,8.85,15,0.101,7.99
2.7551,-0.03665,0.01571,0.07330,0.00000,0.00000,0.00000,37,4,64,21,24,8,63,17,ok,4,0,0.001,3,0.40,-0.21,8.85,15,0.113,7.99
2.7778,-0.03665,0.01571,0.07330,0.00000,0.00000,0.00000,38,4,64,22,23,11,63,18,ok,4,0,0.001,3,0.40,-0.21,8.85,15,0.126,7.99
2.7810,-0.03665,0.01571,0.07330,0.00000,0.00000,0.00000,38,3,64,23,22,14,64,18,ok,4,0,0.001,3,0.40,-0.21,8.85,15,0.139,7.99
2.7937,-0.03665,0.01571,0.07330,0.00000,0.00000,0.00000,39,3,63,26,24,13,64,19,ok,4,0,0.001,3,0.40,-0.21,8.85,15,0.152,7.99
2.8138,-0.03665,0.01571,0.07330,0.00000,0.00000,0.00000,39,3,63,27,24,13,64,19,ok,4,0,0.001,3,0.40,-0.21,8.85,15,0.165,7.99
2.8187,-0.03665,0.01571,0.07330,0.00000,0.00000,0.00000,40,2,65,26,25,11,64,21,ok,4,0,0.001,3,0.40,-0.21,8.85,15,0.177,7.99
2.8313,-0.03665,0.01571,0.07330,0.00000,0.00000,0.00000,40,2,67,22,26,10,65,21,ok,4,0,0.001,3,0.40,-0.21,8.85,15,0.189,7.99
2.8538,-0.05411,0.01745,0.07156,0.00000,0.00000,0.00000,41,1,69,19,28,10,65,22,ok,4,0,0.001,3,-0.41,-0.53,9.69,16,0.000,7.99
2.8570,-0.05411,0.01745,0.07156,0.00000,0.00000,0.00000,42,1,70,15,29,10,64,24,ok,4,0,0.001,3,-0.41,-0.53,9.69,16,0.013,7.99
2.8697,-0.05411,0.01745,0.07156,0.00000,0.00000,0.00000,42,1,71,12,30,9,64,26,ok,4,0,0.001,3,-0.41,-0.53,9.69,16,0.026,7.99
2.8898,-0.05411,0.01745,0.07156,0.00000,0.00000,0.00000,44,1,70,12,33,9,65,26,ok,4,0,0.001,3,-0.41,-0.53,9.69,16,0.039,7.99
2.8947,-0.05411,0.01745,0.07156,0.00000,0.00000,0.00000,44,1,70,9,33,9,64,29,ok,4,0,0.001,3,-0.41,-0.53,9.69,16,0.051,7.99
2.9073,-0.05411,0.01745,0.07156,0.00000,0.00000,0.00000,45,2,69,6,35,9,64,30,ok,4,0,0.001,3,-0.41,-0.53,9.69,16,0.064,7.99
2.9298,-0.05411,0.01745,0.07156,0.00000,0.00000,0.00000,46,2,69,3,36,8,64,31,ok,4,0,0.001,3,-0.41,-0.53,9.69,16,0.076,7.99
2.9330,-0.05411,0.01745,0.07156,0.00000,0.00000,0.00000,46,2,67,0,37,9,64,33,ok,4,0,0.001,3,-0.41,-0.53,9.69,16,0.089,7.99
2.9459,-0.05411,0.01745,0.07156,0.00000,0.00000,0.00000,47,2,66,-2,39,8,64,34,ok,4,0,0.001,3,-0.41,-0.53,9.69,16,0.102,7.99
2.9658,-0.05411,0.01745,0.07156,0.00000,0.00000,0.00000,48,2,65,-3,40,8,63,36,ok,4,0,0.001,3,-0.41,-0.53,9.69,16,0.115,7.99
2.9707,-0.05411,0.01745,0.07156,0.00000,0.00000,0.00000,48,2,62,-4,41,7,64,36,ok,4,0,0.001,3,-0.41,-0.53,9.69,16,0.127,7.99
2.9831,-0.05411,0.01745,0.07156,0.00000,0.00000,0.00000,48,3,61,-5,42,7,65,35,ok,4,0,0.001,3,-0.41,-0.53,9.69,16,0.140,7.99
3.0058,-0.05411,0.01745,0.07156,0.00000,0.00000,0.00000,49,3,60,-8,43,7,67,32,ok,4,0,0.001,3,-0.41,-0.53,9.69,16,0.152,7.99
3.0090,-0.05411,0.01745,0.07156,0.00000,0.00000,0.00000,50,3,58,-8,44,7,69,27,ok,4,0,0.001,3,-0.41,-0.53,9.69,16,0.165,7.99
3.0219,-0.05411,0.01745,0.07156,0.00000,0.00000,0.00000,50,3,55,-9,45,7,70,24,ok,4,0,0.001,3,-0.41,-0.53,9.69,16,0.178,7.99
3.0418,-0.05411,0.01745,0.07156,0.00000,0.00000,0.00000,50,3,53,-9,46,7,72,21,ok,4,0,0.001,3,-0.41,-0.53,9.69,16,0.191,7.99
3.0469,-0.05411,0.01745,0.07156,0.00000,0.00000,0.00000,50,5,51,-10,47,7,72,20,ok,4,0,0.001,3,-0.41,-0.53,9.69,16,0.203,7.99
3.0595,-0.10996,0.02094,0.14661,0.00000,0.00000,0.00000,51,6,49,-10,47,7,72,18,ok,2,0,0.001,3,-1.38,-1.61,9.50,17,0.000,7.99
3.0818,-0.10996,0.02094,0.14661,0.00000,0.00000,0.00000,52,5,46,-10,48,7,73,15,ok,2,0,0.001,3,-1.38,-1.61,9.50,17,0.012,7.99
3.0850,-0.10996,0.02094,0.14661,0.00000,0.00000,0.00000,52,6,44,-9,49,7,72,12,ok,2,0,0.001,3,-1.38,-1.61,9.50,17,0.026,7.99
3.0977,-0.10996,0.02094,0.14661,0.00000,0.00000,0.00000,52,7,41,-10,49,7,72,11,ok,2,0,0.001,3,-1.38,-1.61,9.50,17,0.039,7.99
3.1178,-0.10996,0.02094,0.14661,0.00000,0.00000,0.00000,53,7,39,-10,50,7,71,7,ok,2,0,0.001,3,-1.38,-1.61,9.50,17,0.051,7.99
3.1227,-0.10996,0.02094,0.14661,0.00000,0.00000,0.00000,54,7,37,-9,52,6,71,6,ok,2,0,0.001,3,-1.38,-1.61,9.50,17,0.063,7.99
3.1352,-0.10996,0.02094,0.14661,0.00000,0.00000,0.00000,54,7,33,-8,52,7,70,4,ok,2,0,0.001,3,-1.38,-1.61,9.50,17,0.076,7.99
3.1578,-0.10996,0.02094,0.14661,0.00000,0.00000,0.00000,54,8,30,-7,52,7,68,2,ok,2,0,0.001,3,-1.38,-1.61,9.50,17,0.089,7.99
3.1610,-0.10996,0.02094,0.14661,0.00000,0.00000,0.00000,54,8,27,-6,54,8,66,2,ok,2,0,0.001,3,-1.38,-1.61,9.50,17,0.102,7.99
3.1737,-0.10996,0.02094,0.14661,0.00000,0.00000,0.00000,54,8,24,-4,55,8,65,0,ok,2,0,0.001,3,-1.38,-1.61,9.50,17,0.115,7.99
3.1938,-0.10996,0.02094,0.14661,0.00000,0.00000,0.00000,55,9,20,-2,56,8,64,-2,ok,2,0,0.001,3,-1.38,-1.61,9.50,17,0.127,7.99
3.1989,-0.10996,0.02094,0.14661,0.00000,0.00000,0.00000,55,10,19,-1,58,6,62,-3,ok,2,0,0.001,3,-1.38,-1.61,9.50,17,0.139,7.99
3.2112,-0.10996,0.02094,0.14661,0.00000,0.00000,0.00000,56,10,18,0,58,7,60,-4,ok,2,0,0.001,3,-1.38,-1.61,9.50,17,0.152,7.99
3.2338,-0.10996,0.02094,0.14661,0.00000,0.00000,0.00000,56,10,16,3,59,8,58,-5,ok,2,0,0.001,3,-1.38,-1.61,9.50,17,0.165,7.99
3.2370,-0.10996,0.02094,0.14661,0.00000,0.00000,0.00000,56,11,15,6,59,8,55,-5,ok,2,0,0.001,3,-1.38,-1.61,9.50,17,0.178,7.99
3.2498,-0.10996,0.02094,0.14661,0.00000,0.00000,0.00000,56,12,13,9,60,9,54,-6,ok,2,0,0.001,3,-1.38,-1.61,9.50,17,0.191,7.99
3.2698,0.00000,0.06981,0.07679,0.00000,0.00000,0.00000,56,12,12,11,60,9,50,-5,ok,2,0,0.001,3,1.09,0.75,10.36,18,0.000,7.99
3.2749,0.00000,0.06981,0.07679,0.00000,0.00000,0.00000,56,13,14,12,60,10,47,-5,ok,2,0,0.001,3,1.09,0.75,10.36,18,0.012,7.99
3.2872,0.00000,0.06981,0.07679,0.00000,0.00000,0.00000,56,14,15,11,61,11,45,-5,ok,2,0,0.001,3,1.09,0.75,10.36,18,0.025,7.99
3.3098,0.00000,0.06981,0.07679,0.00000,0.00000,0.00000,56,14,16,10,61,11,42,-4,ok,2,0,0.001,3,1.09,0.75,10.36,18,0.038,7.99
3.3130,0.00000,0.06981,0.07679,0.00000,0.00000,0.00000,56,15,18,9,62,12,40,-4,ok,2,0,0.001,3,1.09,0.75,10.36,18,0.051,7.99
3.3259,0.00000,0.06981,0.07679,0.00000,0.00000,0.00000,56,16,19,8,62,12,36,-3,ok,2,0,0.001,3,1.09,0.75,10.36,18,0.063,7.99
3.3458,0.00000,0.06981,0.07679,0.00000,0.00000,0.00000,56,17,20,7,62,13,34,-3,ok,2,0,0.001,3,1.09,0.75,10.36,18,0.076,7.99
3.3507,0.00000,0.06981,0.07679,0.00000,0.00000,0.00000,56,18,21,7,62,14,31,-1,ok,2,0,0.001,3,1.09,0.75,10.36,18,0.088,7.99
3.3631,0.00000,0.06981,0.07679,0.00000,0.00000,0.00000,57,19,22,6,63,14,30,0,ok,2,0,0.001,3,1.09,0.75,10.36,18,0.101,7.99
3.3858,0.00000,0.06981,0.07679,0.00000,0.00000,0.00000,57,21,24,5,63,15,27,1,ok,2,0,0.001,3,1.09,0.75,10.36,18,0.113,7.99
3.3890,0.00000,0.06981,0.07679,0.00000,0.00000,0.00000,58,21,24,4,63,16,25,5,ok,2,0,0.001,3,1.09,0.75,10.36,18,0.127,7.99
3.4019,0.00000,0.06981,0.07679,0.00000,0.00000,0.00000,58,22,25,4,63,17,24,7,ok,2,0,0.001,3,1.09,0.75,10.36,18,0.139,7.99
3.4218,0.00000,0.06981,0.07679,0.00000,0.00000,0.00000,58,22,25,3,64,17,23,11,ok,2,0,0.001,3,1.09,0.75,10.36,18,0.152,7.99
3.4267,0.00000,0.06981,0.07679,0.00000,0.00000,0.00000,57,25,26,3,64,19,23,13,ok,2,0,0.001,3,1.09,0.75,10.36,18,0.164,7.99
3.4392,0.00000,0.06981,0.07679,0.00000,0.00000,0.00000,56,26,27,2,64,20,25,12,ok,2,0,0.001,3,1.09,0.75,10.36,18,0.177,7.99
3.4619,0.00000,0.06981,0.07679,0.00000,0.00000,0.00000,58,25,28,2,64,21,25,12,ok,2,0,0.001,3,1.09,0.75,10.36,18,0.189,7.99
3.4654,-0.14835,0.08552,0.11170,0.00000,0.00000,0.00000,58,21,30,2,65,22,25,10,ok,2,0,0.001,3,0.35,-2.46,9.48,19,0.000,7.99
3.4780,-0.14835,0.08552,0.11170,0.00000,0.00000,0.00000,60,17,31,2,64,23,27,9,ok,2,0,0.001,3,0.35,-2.46,9.48,19,0.013,7.99
3.4978,-0.14835,0.08552,0.11170,0.00000,0.00000,0.00000,60,13,32,2,64,24,29,10,ok,2,0,0.001,3,0.35,-2.46,9.48,19,0.025,7.99
3.5027,-0.14835,0.08552,0.11170,0.00000,0.00000,0.00000,60,10,33,2,65,25,30,9,ok,2,0,0.001,3,0.35,-2.46,9.48,19,0.038,7.99
3.5151,-0.14835,0.08552,0.11170,0.00000,0.00000,0.00000,60,10,35,2,63,27,31,9,ok,2,0,0.001,3,0.35,-2.46,9.48,19,0.050,7.99
3.5378,-0.14835,0.08552,0.11170,0.00000,0.00000,0.00000,60,6,36,3,63,28,33,9,ok,2,0,0.001,3,0.35,-2.46,9.48,19,0.063,7.99
3.5410,-0.14835,0.08552,0.11170,0.00000,0.00000,0.00000,60,3,38,4,64,30,34,9,ok,2,0,0.001,3,0.35,-2.46,9.48,19,0.076,7.99
3.5539,-0.14835,0.08552,0.11170,0.00000,0.00000,0.00000,60,0,39,4,64,32,35,9,ok,2,0,0.001,3,0.35,-2.46,9.48,19,0.089,7.99
3.5738,-0.14835,0.08552,0.11170,0.00000,0.00000,0.00000,59,-2,41,4,64,34,36,9,ok,2,0,0.001,4,0.35,-2.46,9.48,19,0.101,7.99
3.5787,-0.14835,0.08552,0.11170,0.00000,0.00000,0.00000,58,-4,42,3,64,35,37,9,ok,2,0,0.001,4,0.35,-2.46,9.48,19,0.114,7.99
3.5911,-0.14835,0.08552,0.11170,0.00000,0.00000,0.00000,58,-5,43,3,65,35,38,8,ok,2,0,0.001,4,0.35,-2.46,9.48,19,0.126,7.99
3.6138,-0.14835,0.08552,0.11170,0.00000,0.00000,0.00000,56,-5,44,3,66,35,40,8,ok,2,0,0.001,4,0.35,-2.46,9.48,19,0.139,7.99
3.6171,-0.14835,0.08552,0.11170,0.00000,0.00000,0.00000,56,-6,45,3,68,33,41,8,ok,2,0,0.001,4,0.35,-2.46,9.48,19,0.152,7.99
3.6298,-0.14835,0.08552,0.11170,0.00000,0.00000,0.00000,56,-8,46,3,70,28,42,8,ok,2,0,0.001,4,0.35,-2.46,9.48,19,0.165,7.99
3.6498,-0.14835,0.08552,0.11170,0.00000,0.00000,0.00000,54,-9,47,4,71,24,44,7,ok,2,0,0.001,4,0.35,-2.46,9.48,19,0.177,7.99
3.6547,-0.14835,0.08552,0.11170,0.00000,0.00000,0.00000,53,-10,48,4,73,21,44,7,ok,2,0,0.001,4,0.35,-2.46,9.48,19,0.190,7.99
3.6675,0.01745,0.04014,0.12392,0.00000,0.00000,0.00000,52,-10,49,3,74,20,45,8,ok,2,0,0.001,4,0.98,0.54,10.19,20,0.000,7.99
3.6898,0.01745,0.04014,0.12392,0.00000,0.00000,0.00000,51,-11,49,5,74,19,46,7,ok,2,0,0.001,4,0.98,0.54,10.19,20,0.013,7.99
3.6931,0.01745,0.04014,0.12392,0.00000,0.00000,0.00000,50,-11,50,6,74,15,47,8,ok,2,0,0.001,4,0.98,0.54,10.19,20,0.026,7.99
3.7057,0.01745,0.04014,0.12392,0.00000,0.00000,0.00000,48,-10,51,5,74,12,48,8,ok,2,0,0.001,4,0.98,0.54,10.19,20,0.038,7.99
3.7258,0.01745,0.04014,0.12392,0.00000,0.00000,0.00000,47,-10,53,5,74,10,49,8,ok,2,0,0.001,4,0.98,0.54,10.19,20,0.051,7.99
3.7307,0.01745,0.04014,0.12392,0.00000,0.00000,0.00000,46,-10,53,6,73,7,49,9,ok,2,0,0.001,4,0.98,0.54,10.19,20,0.063,7.99
3.7431,0.01745,0.04014,0.12392,0.00000,0.00000,0.00000,44,-10,55,6,72,5,49,8,ok,2,0,0.001,4,0.98,0.54,10.19,20,0.076,7.99
3.7658,0.01745,0.04014,0.12392,0.00000,0.00000,0.00000,43,-8,55,6,71,4,51,9,ok,2,0,0.001,4,0.98,0.54,10.19,20,0.088,7.99
3.7690,0.01745,0.04014,0.12392,0.00000,0.00000,0.00000,42,-7,57,6,69,1,52,7,ok,2,0,0.001,4,0.98,0.54,10.19,20,0.102,7.99
3.7817,0.01745,0.04014,0.12392,0.00000,0.00000,0.00000,40,-6,57,7,66,1,52,8,ok,2,0,0.001,4,0.98,0.54,10.19,20,0.114,7.99
3.8018,0.01745,0.04014,0.12392,0.00000,0.00000,0.00000,38,-5,57,7,65,-1,53,8,ok,2,0,0.001,4,0.98,0.54,10.19,20,0.127,7.99
3.8067,0.01745,0.04014,0.12392,0.00000,0.00000,0.00000,37,-4,58,8,64,-2,54,9,ok,2,0,0.001,4,0.98,0.54,10.19,20,0.139,7.99
3.8191,0.01745,0.04014,0.12392,0.00000,0.00000,0.00000,35,-2,59,9,61,-4,55,8,ok,2,0,0.001,4,0.98,0.54,10.19,20,0.152,7.99
3.8418,0.01745,0.04014,0.12392,0.00000,0.00000,0.00000,34,-2,60,11,60,-5,55,8,ok,2,0,0.001,4,0.98,0.54,10.19,20,0.164,7.99
3.8450,0.01745,0.04014,0.12392,0.00000,0.00000,0.00000,34,-1,60,10,59,-6,57,6,ok,2,0,0.001,4,0.98,0.54,10.19,20,0.178,7.99
3.8579,0.01745,0.04014,0.12392,0.00000,0.00000,0.00000,33,2,61,11,56,-6,57,7,ok,2,0,0.001,4,0.98,0.54,10.19,20,0.190,7.99
3.8778,-0.01222,0.02094,0.12741,0.00000,0.00000,0.00000,32,5,61,11,54,-7,58,8,ok,2,0,0.001,4,-0.11,-0.89,8.61,21,0.000,7.99
3.8827,-0.01222,0.02094,0.12741,0.00000,0.00000,0.00000,32,8,61,12,51,-7,59,9,ok,2,0,0.001,4,-0.11,-0.89,8.61,21,0.012,7.99
3.8951,-0.01222,0.02094,0.12741,0.00000,0.00000,0.00000,31,10,61,12,48,-6,59,9,ok,2,0,0.001,4,-0.11,-0.89,8.61,21,0.025,7.99
3.9180,-0.01222,0.02094,0.12741,0.00000,0.00000,0.00000,32,11,61,13,46,-6,60,10,ok,2,0,0.001,4,-0.11,-0.89,8.61,21,0.038,7.99
3.9213,-0.01222,0.02094,0.12741,0.00000,0.00000,0.00000,32,10,61,14,43,-5,60,10,ok,2,0,0.001,4,-0.11,-0.89,8.61,21,0.051,7.99
3.9339,-0.01222,0.02094,0.12741,0.00000,0.00000,0.00000,33,9,62,14,40,-5,61,11,ok,2,0,0.001,4,-0.11,-0.89,8.61,21,0.064,7.99
3.9539,-0.01222,0.02094,0.12741,0.00000,0.00000,0.00000,34,8,62,15,37,-4,61,12,ok,2,0,0.001,4,-0.11,-0.89,8.61,21,0.076,7.99
3.9588,-0.01222,0.02094,0.12741,0.00000,0.00000,0.00000,34,8,62,15,35,-3,62,13,ok,2,0,0.001,4,-0.11,-0.89,8.61,21,0.089,7.99
3.9712,-0.01222,0.02094,0.12741,0.00000,0.00000,0.00000,35,7,63,16,32,-2,61,13,ok,2,0,0.001,4,-0.11,-0.89,8.61,21,0.101,7.99
3.9938,-0.01222,0.02094,0.12741,0.00000,0.00000,0.00000,35,7,63,17,30,0,62,14,ok,2,0,0.001,4,-0.11,-0.89,8.61,21,0.114,7.99
3.9970,-0.01222,0.02094,0.12741,0.00000,0.00000,0.00000,36,6,64,18,28,1,62,15,ok,2,0,0.001,4,-0.11,-0.89,8.61,21,0.127,7.99
4.0097,-0.01222,0.02094,0.12741,0.00000,0.00000,0.00000,37,5,64,19,26,4,63,15,ok,2,0,0.001,4,-0.11,-0.89,8.61,21,0.140,7.99
4.0298,-0.01222,0.02094,0.12741,0.00000,0.00000,0.00000,37,5,64,20,24,7,63,16,ok,2,0,0.001,4,-0.11,-0.89,8.61,21,0.152,7.99
4.0349,-0.01222,0.02094,0.12741,0.00000,0.00000,0.00000,38,4,64,22,23,11,63,18,ok,2,0,0.001,4,-0.11,-0.89,8.61,21,0.165,7.99
4.0472,-0.01222,0.02094,0.12741,0.00000,0.00000,0.00000,38,3,64,23,22,14,64,18,ok,4,0,0.001,4,-0.11,-0.89,8.61,21,0.177,7.99
4.0698,-0.01222,0.02094,0.12741,0.00000,0.00000,0.00000,39,3,63,26,24,13,64,19,ok,4,0,0.001,4,-0.11,-0.89,8.61,21,0.190,7.99
4.0731,-0.01222,0.02094,0.12741,0.00000,0.00000,0.00000,40,2,63,27,24,13,64,19,ok,4,0,0.001,4,-0.11,-0.89,8.61,21,0.203,7.99
4.0860,-0.14486,-0.04363,0.14486,0.00000,0.00000,0.00000,40,2,64,25,25,11,64,21,ok,4,0,0.001,4,0.34,-1.35,9.64,22,0.000,7.99
4.1058,-0.14486,-0.04363,0.14486,0.00000,0.00000,0.00000,40,1,67,23,26,10,65,21,ok,2,0,0.001,4,0.34,-1.35,9.64,22,0.013,7.99
4.1108,-0.14486,-0.04363,0.14486,0.00000,0.00000,0.00000,41,1,69,19,28,10,65,23,ok,2,0,0.001,4,0.34,-1.35,9.64,22,0.025,7.99
4.1232,-0.14486,-0.04363,0.14486,0.00000,0.00000,0.00000,42,1,70,15,29,10,65,24,ok,2,0,0.001,4,0.34,-1.35,9.64,22,0.038,7.99
4.1458,-0.14486,-0.04363,0.14486,0.00000,0.00000,0.00000,42,1,71,13,30,8,65,26,ok,2,0,0.001,4,0.34,-1.35,9.64,22,0.050,7.99
4.1490,-0.14486,-0.04363,0.14486,0.00000,0.00000,0.00000,44,1,70,12,32,8,66,27,ok,2,0,0.001,4,0.34,-1.35,9.64,22,0.063,7.99
4.1619,-0.14486,-0.04363,0.14486,0.00000,0.00000,0.00000,44,1,71,9,32,9,65,29,ok,2,0,0.001,4,0.34,-1.35,9.64,22,0.076,7.99
4.1818,-0.14486,-0.04363,0.14486,0.00000,0.00000,0.00000,45,2,70,7,35,9,64,30,ok,4,0,0.001,4,0.34,-1.35,9.64,22,0.089,7.99
4.1867,-0.14486,-0.04363,0.14486,0.00000,0.00000,0.00000,46,2,69,4,36,8,64,32,ok,4,0,0.001,4,0.34,-1.35,9.64,22,0.101,7.99
4.1993,-0.14486,-0.04363,0.14486,0.00000,0.00000,0.00000,46,2,68,1,37,8,64,33,ok,4,0,0.001,4,0.34,-1.35,9.64,22,0.114,7.99
4.2218,-0.14486,-0.04363,0.14486,0.00000,0.00000,0.00000,47,2,67,-1,38,8,64,35,ok,4,0,0.001,4,0.34,-1.35,9.64,22,0.126,7.99
4.2249,-0.14486,-0.04363,0.14486,0.00000,0.00000,0.00000,48,3,65,-3,39,7,63,36,ok,2,0,0.001,4,0.34,-1.35,9.64,22,0.139,7.99
4.2377,-0.14486,-0.04363,0.14486,0.00000,0.00000,0.00000,48,3,63,-4,40,6,64,36,ok,2,0,0.001,4,0.34,-1.35,9.64,22,0.152,7.99
4.2578,-0.14486,-0.04363,0.14486,0.00000,0.00000,0.00000,48,3,61,-6,42,6,65,35,ok,2,0,0.001,4,0.34,-1.35,9.64,22,0.165,7.99
4.2627,-0.14486,-0.04363,0.14486,0.00000,0.00000,0.00000,49,3,60,-8,43,6,67,33,ok,2,0,0.001,4,0.34,-1.35,9.64,22,0.177,7.99
4.2755,-0.09948,0.07679,0.11519,0.00000,0.00000,0.00000,50,4,58,-8,44,6,69,28,ok,2,0,0.001,4,-1.35,0.03,10.20,23,0.000,7.99
4.2978,-0.09948,0.07679,0.11519,0.00000,0.00000,0.00000,50,4,56,-9,44,7,70,24,ok,2,0,0.001,4,-1.35,0.03,10.20,23,0.013,7.99
4.3010,-0.09948,0.07679,0.11519,0.00000,0.00000,0.00000,50,4,54,-9,45,7,72,21,ok,2,0,0.001,4,-1.35,0.03,10.20,23,0.026,7.99
4.3137,-0.09948,0.07679,0.11519,0.00000,0.00000,0.00000,50,6,51,-10,47,7,72,21,ok,2,0,0.001,4,-1.35,0.03,10.20,23,0.039,7.99
4.3338,-0.09948,0.07679,0.11519,0.00000,0.00000,0.00000,51,6,49,-10,48,7,72,19,ok,2,0,0.001,4,-1.35,0.03,10.20,23,0.051,7.99
4.3387,-0.09948,0.07679,0.11519,0.00000,0.00000,0.00000,52,6,46,-10,49,7,72,15,ok,2,0,0.001,4,-1.35,0.03,10.20,23,0.064,7.99
4.3512,-0.09948,0.07679,0.11519,0.00000,0.00000,0.00000,52,6,44,-10,49,7,71,13,ok,2,0,0.001,4,-1.35,0.03,10.20,23,0.076,7.99
4.3738,-0.09948,0.07679,0.11519,0.00000,0.00000,0.00000,52,7,41,-10,50,7,71,11,ok,2,0,0.001,4,-1.35,0.03,10.20,23,0.089,7.99
4.3771,-0.09948,0.07679,0.11519,0.00000,0.00000,0.00000,53,7,38,-10,51,7,71,7,ok,2,0,0.001,4,-1.35,0.03,10.20,23,0.102,7.99
4.3899,-0.09948,0.07679,0.11519,0.00000,0.00000,0.00000,53,7,36,-9,52,6,71,6,ok,2,0,0.001,4,-1.35,0.03,10.20,23,0.115,7.99
4.4098,-0.09948,0.07679,0.11519,0.00000,0.00000,0.00000,54,7,33,-8,52,7,70,4,ok,2,0,0.001,4,-1.35,0.03,10.20,23,0.127,7.99
4.4147,-0.09948,0.07679,0.11519,0.00000,0.00000,0.00000,54,8,30,-7,53,7,68,2,ok,2,0,0.001,4,-1.35,0.03,10.20,23,0.140,7.99
4.4271,-0.09948,0.07679,0.11519,0.00000,0.00000,0.00000,54,8,27,-6,54,8,66,2,ok,2,0,0.001,4,-1.35,0.03,10.20,23,0.152,7.99
4.4498,-0.09948,0.07679,0.11519,0.00000,0.00000,0.00000,54,8,24,-4,55,8,65,0,ok,2,0,0.001,4,-1.35,0.03,10.20,23,0.165,7.99
4.4530,-0.09948,0.07679,0.11519,0.00000,0.00000,0.00000,55,9,20,-2,56,8,64,-2,ok,2,0,0.001,4,-1.35,0.03,10.20,23,0.178,7.99
4.4657,-0.09948,0.07679,0.11519,0.00000,0.00000,0.00000,55,10,18,-1,58,6,62,-3,ok,2,0,0.001,4,-1.35,0.03,10.20,23,0.191,7.99
4.4858,-0.09948,0.07679,0.11519,0.00000,0.00000,0.00000,56,9,17,0,58,7,60,-4,ok,2,0,0.001,4,-1.35,0.03,10.20,23,0.203,7.99
4.4910,0.00524,0.03316,0.09076,0.00000,0.00000,0.00000,56,10,15,3,59,8,58,-4,ok,2,0,0.001,4,0.36,0.28,10.25,24,0.000,7.99
4.5031,0.00524,0.03316,0.09076,0.00000,0.00000,0.00000,56,10,14,5,60,8,55,-6,ok,2,0,0.001,4,0.36,0.28,10.25,24,0.013,7.99
4.5258,0.00524,0.03316,0.09076,0.00000,0.00000,0.00000,56,12,12,9,60,9,53,-6,ok,2,0,0.001,4,0.36,0.28,10.25,24,0.025,7.99
4.5291,0.00524,0.03316,0.09076,0.00000,0.00000,0.00000,56,12,12,11,61,10,50,-5,ok,2,0,0.001,4,0.36,0.28,10.25,24,0.038,7.99
4.5417,0.00524,0.03316,0.09076,0.00000,0.00000,0.00000,56,13,14,11,61,10,47,-5,ok,2,0,0.001,4,0.36,0.28,10.25,24,0.051,7.99
4.5660,0.00524,0.03316,0.09076,0.00000,0.00000,0.00000,56,14,15,11,61,11,45,-5,ok,2,0,0.001,4,0.36,0.28,10.25,24,0.064,7.99
4.5698,0.00524,0.03316,0.09076,0.00000,0.00000,0.00000,56,14,16,10,61,11,42,-4,ok,2,0,0.001,4,0.36,0.28,10.25,24,0.079,7.99
4.5823,0.00524,0.03316,0.09076,0.00000,0.00000,0.00000,56,15,18,8,61,12,41,-4,ok,2,0,0.001,5,0.36,0.28,10.25,24,0.091,7.99
4.6059,0.00524,0.03316,0.09076,0.00000,0.00000,0.00000,56,16,19,8,61,12,37,-3,ok,2,0,0.001,5,0.36,0.28,10.25,24,0.104,7.99
4.6093,0.00524,0.03316,0.09076,0.00000,0.00000,0.00000,56,17,21,7,62,13,35,-3,ok,2,0,0.001,5,0.36,0.28,10.25,24,0.119,7.99
4.6222,0.00524,0.03316,0.09076,0.00000,0.00000,0.00000,56,18,21,7,62,14,31,-1,ok,2,0,0.001,5,0.36,0.28,10.25,24,0.131,7.99
4.6459,0.00524,0.03316,0.09076,0.00000,0.00000,0.00000,58,19,23,6,63,14,30,0,ok,2,0,0.001,5,0.36,0.28,10.25,24,0.144,7.99
4.6497,0.00524,0.03316,0.09076,0.00000,0.00000,0.00000,58,20,24,5,63,15,27,2,ok,2,0,0.001,5,0.36,0.28,10.25,24,0.159,7.99
4.6830,0.00524,0.03316,0.09076,0.00000,0.00000,0.00000,58,21,24,5,63,16,25,5,ok,2,0,0.001,5,0.36,0.28,10.25,24,0.192,7.99
4.7058,-0.04712,0.06981,0.09425,0.00000,0.00000,0.00000,58,22,25,4,63,17,24,7,ok,2,0,0.001,5,1.02,-2.32,11.40,25,0.000,7.99
4.7090,-0.04712,0.06981,0.09425,0.00000,0.00000,0.00000,58,23,26,3,64,17,23,11,ok,2,0,0.001,5,1.02,-2.32,11.40,25,0.014,7.99
4.7220,-0.04712,0.06981,0.09425,0.00000,0.00000,0.00000,57,25,27,3,64,18,22,13,ok,2,0,0.001,5,1.02,-2.32,11.40,25,0.026,7.99
4.7418,-0.04712,0.06981,0.09425,0.00000,0.00000,0.00000,57,26,28,2,64,19,25,12,ok,2,0,0.001,5,1.02,-2.32,11.40,25,0.039,7.99
4.7468,-0.04712,0.06981,0.09425,0.00000,0.00000,0.00000,58,24,29,2,64,21,25,12,ok,2,0,0.001,5,1.02,-2.32,11.40,25,0.051,7.99
4.7591,-0.04712,0.06981,0.09425,0.00000,0.00000,0.00000,58,21,30,2,65,22,25,10,ok,2,0,0.001,5,1.02,-2.32,11.40,25,0.064,7.99
4.7818,-0.04712,0.06981,0.09425,0.00000,0.00000,0.00000,60,17,31,2,64,23,27,10,ok,2,0,0.001,5,1.02,-2.32,11.40,25,0.076,7.99
4.7850,-0.04712,0.06981,0.09425,0.00000,0.00000,0.00000,60,12,32,2,64,25,28,10,ok,2,0,0.001,5,1.02,-2.32,11.40,25,0.090,7.99
4.7977,-0.04712,0.06981,0.09425,0.00000,0.00000,0.00000,60,10,33,2,65,25,29,10,ok,2,0,0.001,5,1.02,-2.32,11.40,25,0.102,7.99
4.8178,-0.04712,0.06981,0.09425,0.00000,0.00000,0.00000,60,10,35,2,64,28,30,9,ok,2,0,0.001,5,1.02,-2.32,11.40,25,0.115,7.99
4.8227,-0.04712,0.06981,0.09425,0.00000,0.00000,0.00000,60,7,36,2,64,29,32,9,ok,2,0,0.001,5,1.02,-2.32,11.40,25,0.127,7.99
4.8353,-0.04712,0.06981,0.09425,0.00000,0.00000,0.00000,60,4,38,3,64,30,33,9,ok,2,0,0.001,5,1.02,-2.32,11.40,25,0.140,7.99
4.8578,-0.04712,0.06981,0.09425,0.00000,0.00000,0.00000,60,2,40,3,64,32,35,9,ok,2,0,0.001,5,1.02,-2.32,11.40,25,0.152,7.99
4.8610,-0.04712,0.06981,0.09425,0.00000,0.00000,0.00000,59,-1,41,3,64,33,36,9,ok,2,0,0.001,5,1.02,-2.32,11.40,25,0.166,7.99
4.8737,-0.04712,0.06981,0.09425,0.00000,0.00000,0.00000,58,-2,42,2,64,35,37,9,ok,2,0,0.001,5,1.02,-2.32,11.40,25,0.178,7.99
4.8938,-0.04712,0.06981,0.09425,0.00000,0.00000,0.00000,58,-4,44,3,65,35,38,8,ok,2,0,0.001,5,1.02,-2.32,11.40,25,0.191,7.99
4.8990,-0.02443,0.00873,0.11519,0.00000,0.00000,0.00000,56,-5,44,3,66,35,39,8,ok,2,0,0.001,5,1.76,1.40,9.99,26,0.000,7.99
4.9111,-0.02443,0.00873,0.11519,0.00000,0.00000,0.00000,56,-6,45,3,68,33,41,7,ok,2,0,0.001,5,1.76,1.40,9.99,26,0.013,7.99
4.9338,-0.02443,0.00873,0.11519,0.00000,0.00000,0.00000,56,-8,46,3,70,28,42,7,ok,2,0,0.001,5,1.76,1.40,9.99,26,0.025,7.99
4.9370,-0.02443,0.00873,0.11519,0.00000,0.00000,0.00000,54,-9,48,4,72,24,43,7,ok,2,0,0.001,5,1.76,1.40,9.99,26,0.038,7.99
4.9497,-0.02443,0.00873,0.11519,0.00000,0.00000,0.00000,53,-10,49,3,73,21,44,7,ok,2,0,0.001,5,1.76,1.40,9.99,26,0.051,7.99
4.9698,-0.02443,0.00873,0.11519,0.00000,0.00000,0.00000,52,-10,49,3,74,21,45,7,ok,2,0,0.001,5,1.76,1.40,9.99,26,0.064,7.99
4.9747,-0.02443,0.00873,0.11519,0.00000,0.00000,0.00000,51,-11,50,5,74,18,46,7,ok,2,0,0.001,5,1.76,1.40,9.99,26,0.076,7.99
4.9871,-0.02443,0.00873,0.11519,0.00000,0.00000,0.00000,50,-11,51,6,74,15,47,8,ok,2,0,0.001,5,1.76,1.40,9.99,26,0.089,7.99
5.0098,-0.02443,0.00873,0.11519,0.00000,0.00000,0.00000,48,-11,52,6,73,11,48,8,ok,2,0,0.001,5,1.76,1.40,9.99,26,0.101,7.99
5.0131,-0.02443,0.00873,0.11519,0.00000,0.00000,0.00000,47,-10,53,6,73,10,49,8,ok,2,0,0.001,5,1.76,1.40,9.99,26,0.114,7.99
5.0337,-0.02443,0.00873,0.11519,0.00000,0.00000,0.00000,46,-10,53,7,72,6,49,9,ok,2,0,0.001,5,1.76,1.40,9.99,26,0.127,7.99
5.0458,-0.02443,0.00873,0.11519,0.00000,0.00000,0.00000,44,-11,56,7,72,5,50,8,ok,2,0,0.001,5,1.76,1.40,9.99,26,0.140,7.99
5.0507,-0.02443,0.00873,0.11519,0.00000,0.00000,0.00000,44,-10,56,7,71,3,51,9,ok,2,0,0.001,5,1.76,1.40,9.99,26,0.152,7.99
5.0634,-0.02443,0.00873,0.11519,0.00000,0.00000,0.00000,42,-9,57,7,69,1,52,8,ok,2,0,0.001,5,1.76,1.40,9.99,26,0.165,7.99
5.0858,-0.02443,0.00873,0.11519,0.00000,0.00000,0.00000,40,-7,57,8,66,1,52,8,ok,2,0,0.001,5,1.76,1.40,9.99,26,0.177,7.99
5.0891,-0.02443,0.00873,0.11519,0.00000,0.00000,0.00000,38,-6,58,8,65,-1,53,8,ok,2,0,0.001,5,1.76,1.40,9.99,26,0.190,7.99
5.1021,-0.00524,-0.04363,0.13788,0.00000,0.00000,0.00000,37,-4,58,8,64,-3,54,9,ok,2,0,0.001,5,0.33,0.87,10.62,27,0.000,7.99
5.1218,-0.00524,-0.04363,0.13788,0.00000,0.00000,0.00000,35,-2,59,9,62,-4,55,9,ok,2,0,0.001,5,0.33,0.87,10.62,27,0.013,7.99
5.1267,-0.00524,-0.04363,0.13788,0.00000,0.00000,0.00000,35,-1,60,10,61,-5,55,8,ok,2,0,0.001,5,0.33,0.87,10.62,27,0.025,7.99
5.1393,-0.00524,-0.04363,0.13788,0.00000,0.00000,0.00000,34,0,61,10,59,-6,57,6,ok,2,0,0.001,5,0.33,0.87,10.62,27,0.038,7.99
5.1618,-0.00524,-0.04363,0.13788,0.00000,0.00000,0.00000,33,2,61,11,56,-6,57,7,ok,2,0,0.001,5,0.33,0.87,10.62,27,0.050,7.99
5.1650,-0.00524,-0.04363,0.13788,0.00000,0.00000,0.00000,32,5,61,11,54,-7,58,8,ok,2,0,0.001,5,0.33,0.87,10.62,27,0.063,7.99
5.1777,-0.00524,-0.04363,0.13788,0.00000,0.00000,0.00000,32,9,61,12,51,-6,58,9,ok,2,0,0.001,5,0.33,0.87,10.62,27,0.076,7.99
5.1978,-0.00524,-0.04363,0.13788,0.00000,0.00000,0.00000,32,11,62,11,48,-6,59,9,ok,2,0,0.001,5,0.33,0.87,10.62,27,0.088,7.99
5.2027,-0.00524,-0.04363,0.13788,0.00000,0.00000,0.00000,32,12,62,12,46,-6,60,10,ok,2,0,0.001,5,0.33,0.87,10.62,27,0.101,7.99
5.2152,-0.00524,-0.04363,0.13788,0.00000,0.00000,0.00000,32,11,62,13,43,-5,59,10,ok,2,0,0.001,5,0.33,0.87,10.62,27,0.113,7.99
5.2378,-0.00524,-0.04363,0.13788,0.00000,0.00000,0.00000,33,10,62,14,40,-5,60,11,ok,2,0,0.001,5,0.33,0.87,10.62,27,0.126,7.99
5.2414,-0.00524,-0.04363,0.13788,0.00000,0.00000,0.00000,34,9,62,14,37,-4,60,12,ok,2,0,0.001,5,0.33,0.87,10.62,27,0.139,7.99
5.2537,-0.00524,-0.04363,0.13788,0.00000,0.00000,0.00000,34,9,63,15,35,-3,61,13,ok,2,0,0.001,5,0.33,0.87,10.62,27,0.152,7.99
5.2738,-0.00524,-0.04363,0.13788,0.00000,0.00000,0.00000,36,8,63,16,31,-2,61,13,ok,2,0,0.001,5,0.33,0.87,10.62,27,0.164,7.99
5.2786,-0.00524,-0.04363,0.13788,0.00000,0.00000,0.00000,36,7,63,17,30,0,62,14,ok,2,0,0.001,5,0.33,0.87,10.62,27,0.177,7.99
5.2916,-0.00524,-0.04363,0.13788,0.00000,0.00000,0.00000,36,6,64,18,28,1,62,15,ok,2,0,0.001,5,0.33,0.87,10.62,27,0.189,7.99
5.3138,-0.09076,-0.00698,0.11694,0.00000,0.00000,0.00000,37,5,64,19,25,4,63,15,ok,2,0,0.001,5,0.55,-0.63,9.69,28,0.000,7.99
5.3170,-0.09076,-0.00698,0.11694,0.00000,0.00000,0.00000,38,5,64,21,24,7,63,17,ok,2,0,0.001,5,0.55,-0.63,9.69,28,0.013,7.99
5.3297,-0.09076,-0.00698,0.11694,0.00000,0.00000,0.00000,38,4,64,22,23,10,63,18,ok,2,0,0.001,5,0.55,-0.63,9.69,28,0.026,7.99
5.3498,-0.09076,-0.00698,0.11694,0.00000,0.00000,0.00000,38,3,64,23,22,13,64,18,ok,2,0,0.001,5,0.55,-0.63,9.69,28,0.039,7.99
5.3547,-0.09076,-0.00698,0.11694,0.00000,0.00000,0.00000,39,3,63,26,23,13,64,19,ok,2,0,0.001,5,0.55,-0.63,9.69,28,0.051,7.99
5.3671,-0.09076,-0.00698,0.11694,0.00000,0.00000,0.00000,40,2,63,27,24,13,64,20,ok,2,0,0.001,5,0.55,-0.63,9.69,28,0.064,7.99
5.3898,-0.09076,-0.00698,0.11694,0.00000,0.00000,0.00000,40,2,65,26,25,11,64,21,ok,2,0,0.001,5,0.55,-0.63,9.69,28,0.076,7.99
5.3935,-0.09076,-0.00698,0.11694,0.00000,0.00000,0.00000,40,1,67,23,26,10,65,22,ok,2,0,0.001,5,0.55,-0.63,9.69,28,0.089,7.99
5.4057,-0.09076,-0.00698,0.11694,0.00000,0.00000,0.00000,41,1,69,20,28,10,65,23,ok,2,0,0.001,5,0.55,-0.63,9.69,28,0.102,7.99
5.4258,-0.09076,-0.00698,0.11694,0.00000,0.00000,0.00000,42,1,71,15,29,10,64,24,ok,2,0,0.001,5,0.55,-0.63,9.69,28,0.115,7.99
5.4309,-0.09076,-0.00698,0.11694,0.00000,0.00000,0.00000,42,1,71,13,30,9,64,26,ok,2,0,0.001,5,0.55,-0.63,9.69,28,0.127,7.99
5.4433,-0.09076,-0.00698,0.11694,0.00000,0.00000,0.00000,44,2,70,12,33,9,65,27,ok,2,0,0.001,5,0.55,-0.63,9.69,28,0.140,7.99
5.4658,-0.09076,-0.00698,0.11694,0.00000,0.00000,0.00000,44,2,70,9,33,9,64,29,ok,2,0,0.001,5,0.55,-0.63,9.69,28,0.152,7.99
5.4690,-0.09076,-0.00698,0.11694,0.00000,0.00000,0.00000,45,3,69,6,35,8,64,30,ok,2,0,0.001,5,0.55,-0.63,9.69,28,0.165,7.99
5.4819,-0.09076,-0.00698,0.11694,0.00000,0.00000,0.00000,46,3,69,3,36,8,64,32,ok,2,0,0.001,5,0.55,-0.63,9.69,28,0.178,7.99
5.5019,-0.09076,-0.00698,0.11694,0.00000,0.00000,0.00000,46,3,67,0,37,8,64,33,ok,2,0,0.001,5,0.55,-0.63,9.69,28,0.191,7.99
5.5070,-0.16581,0.02269,0.16930,0.00000,0.00000,0.00000,47,2,66,-2,39,8,63,35,ok,2,0,0.001,5,0.21,-2.25,9.25,29,0.000,7.99
5.5191,-0.16581,0.02269,0.16930,0.00000,0.00000,0.00000,48,3,64,-3,39,7,63,36,ok,2,0,0.001,5,0.21,-2.25,9.25,29,0.013,7.99
5.5418,-0.16581,0.02269,0.16930,0.00000,0.00000,0.00000,48,3,62,-4,40,6,64,36,ok,2,0,0.001,5,0.21,-2.25,9.25,29,0.025,7.99
5.5453,-0.16581,0.02269,0.16930,0.00000,0.00000,0.00000,48,3,61,-5,42,6,66,35,ok,2,0,0.001,5,0.21,-2.25,9.25,29,0.038,7.99
5.5577,-0.16581,0.02269,0.16930,0.00000,0.00000,0.00000,49,3,60,-8,43,6,68,33,ok,2,0,0.001,5,0.21,-2.25,9.25,29,0.051,7.99
5.5778,-0.16581,0.02269,0.16930,0.00000,0.00000,0.00000,50,3,58,-8,44,6,69,28,ok,2,0,0.001,5,0.21,-2.25,9.25,29,0.064,7.99
5.5827,-0.16581,0.02269,0.16930,0.00000,0.00000,0.00000,50,3,55,-9,45,7,71,24,ok,2,0,0.001,5,0.21,-2.25,9.25,29,0.076,7.99
5.5954,-0.16581,0.02269,0.16930,0.00000,0.00000,0.00000,50,2,53,-9,46,7,72,21,ok,2,0,0.001,5,0.21,-2.25,9.25,29,0.089,7.99
5.6178,-0.16581,0.02269,0.16930,0.00000,0.00000,0.00000,50,5,51,-10,47,7,72,21,ok,2,0,0.001,5,0.21,-2.25,9.25,29,0.101,7.99
5.6212,-0.16581,0.02269,0.16930,0.00000,0.00000,0.00000,51,5,49,-10,48,7,72,19,ok,2,0,0.001,6,0.21,-2.25,9.25,29,0.114,7.99
5.6337,-0.16581,0.02269,0.16930,0.00000,0.00000,0.00000,52,5,46,-10,49,7,73,15,ok,2,0,0.001,6,0.21,-2.25,9.25,29,0.127,7.99
5.6539,-0.16581,0.02269,0.16930,0.00000,0.00000,0.00000,52,6,44,-9,49,7,72,13,ok,2,0,0.001,6,0.21,-2.25,9.25,29,0.140,7.99
5.6588,-0.16581,0.02269,0.16930,0.00000,0.00000,0.00000,52,7,41,-10,50,7,71,11,ok,2,0,0.002,6,0.21,-2.25,9.25,29,0.152,7.99
5.6714,-0.16581,0.02269,0.16930,0.00000,0.00000,0.00000,53,7,39,-10,51,7,71,7,ok,2,0,0.002,6,0.21,-2.25,9.25,29,0.165,7.99
5.6938,-0.16581,0.02269,0.16930,0.00000,0.00000,0.00000,54,7,36,-9,52,6,71,6,ok,2,0,0.002,6,0.21,-2.25,9.25,29,0.177,7.99
5.6970,-0.16581,0.02269,0.16930,0.00000,0.00000,0.00000,54,7,33,-9,52,7,70,4,ok,2,0,0.002,6,0.21,-2.25,9.25,29,0.190,7.99
5.7101,-0.00698,0.00698,0.17104,0.00000,0.00000,0.00000,54,8,30,-7,53,7,68,2,ok,2,0,0.002,6,0.17,-0.03,9.37,30,0.000,7.99
5.7298,-0.00698,0.00698,0.17104,0.00000,0.00000,0.00000,54,8,27,-7,54,8,66,2,ok,2,0,0.002,6,0.17,-0.03,9.37,30,0.013,7.99
5.7347,-0.00698,0.00698,0.17104,0.00000,0.00000,0.00000,54,9,24,-5,55,8,64,0,ok,2,0,0.002,6,0.17,-0.03,9.37,30,0.025,7.99
5.7471,-0.00698,0.00698,0.17104,0.00000,0.00000,0.00000,55,10,20,-3,56,8,63,-2,ok,2,0,0.002,6,0.17,-0.03,9.37,30,0.038,7.99
5.7698,-0.00698,0.00698,0.17104,0.00000,0.00000,0.00000,55,11,19,-1,59,6,61,-3,ok,2,0,0.002,6,0.17,-0.03,9.37,30,0.050,7.99
5.7730,-0.00698,0.00698,0.17104,0.00000,0.00000,0.00000,56,11,18,0,59,7,59,-4,ok,2,0,0.002,6,0.17,-0.03,9.37,30,0.063,7.99
5.7857,-0.00698,0.00698,0.17104,0.00000,0.00000,0.00000,56,12,16,2,59,8,57,-4,ok,2,0,0.002,6,0.17,-0.03,9.37,30,0.076,7.99
5.8058,-0.00698,0.00698,0.17104,0.00000,0.00000,0.00000,56,12,15,5,59,8,55,-5,ok,2,0,0.002,6,0.17,-0.03,9.37,30,0.088,7.99
5.8107,-0.00698,0.00698,0.17104,0.00000,0.00000,0.00000,56,13,13,8,60,8,53,-6,ok,2,0,0.002,6,0.17,-0.03,9.37,30,0.101,7.99
5.8231,-0.00698,0.00698,0.17104,0.00000,0.00000,0.00000,56,13,13,11,60,9,50,-5,ok,2,0,0.002,6,0.17,-0.03,9.37,30,0.114,7.99
5.8458,-0.00698,0.00698,0.17104,0.00000,0.00000,0.00000,56,14,14,11,60,9,47,-5,ok,2,0,0.002,6,0.17,-0.03,9.37,30,0.126,7.99
5.8490,-0.00698,0.00698,0.17104,0.00000,0.00000,0.00000,56,14,15,11,61,10,45,-5,ok,2,0,0.002,6,0.17,-0.03,9.37,30,0.139,7.99
5.8617,-0.00698,0.00698,0.17104,0.00000,0.00000,0.00000,56,14,17,10,61,11,42,-4,ok,2,0,0.002,6,0.17,-0.03,9.37,30,0.152,7.99
5.8818,-0.00698,0.00698,0.17104,0.00000,0.00000,0.00000,56,15,19,9,61,12,40,-4,ok,2,0,0.002,6,0.17,-0.03,9.37,30,0.164,7.99
5.8869,-0.00698,0.00698,0.17104,0.00000,0.00000,0.00000,56,15,19,9,61,12,37,-3,ok,2,0,0.002,6,0.17,-0.03,9.37,30,0.177,7.99
5.8991,-0.00698,0.00698,0.17104,0.00000,0.00000,0.00000,56,16,21,8,62,13,35,-3,ok,2,0,0.002,6,0.17,-0.03,9.37,30,0.190,7.99
5.9218,-0.00698,0.00698,0.17104,0.00000,0.00000,0.00000,56,17,21,7,62,14,31,-1,ok,2,0,0.002,6,0.17,-0.03,9.37,30,0.202,7.99
5.9254,0.05411,-0.00349,0.15882,0.00000,0.00000,0.00000,58,19,23,6,63,14,29,0,ok,2,0,0.002,6,-0.76,0.40,9.68,31,0.000,7.99
5.9377,0.05411,-0.00349,0.15882,0.00000,0.00000,0.00000,58,20,24,5,63,15,27,2,ok,2,0,0.002,6,-0.76,0.40,9.68,31,0.013,7.99
5.9578,0.05411,-0.00349,0.15882,0.00000,0.00000,0.00000,58,21,24,4,63,16,25,5,ok,2,0,0.002,6,-0.76,0.40,9.68,31,0.025,7.99
5.9627,0.05411,-0.00349,0.15882,0.00000,0.00000,0.00000,58,22,26,4,64,17,24,7,ok,2,0,0.002,6,-0.76,0.40,9.68,31,0.038,7.99
5.9752,0.05411,-0.00349,0.15882,0.00000,0.00000,0.00000,58,23,26,3,64,18,22,11,ok,2,0,0.002,6,-0.76,0.40,9.68,31,0.050,7.99
5.9978,0.05411,-0.00349,0.15882,0.00000,0.00000,0.00000,57,26,27,2,64,19,22,13,ok,2,0,0.002,6,-0.76,0.40,9.68,31,0.063,7.99
6.0010,0.05411,-0.00349,0.15882,0.00000,0.00000,0.00000,57,27,28,1,64,20,24,12,ok,2,0,0.002,6,-0.76,0.40,9.68,31,0.076,7.99
6.0137,0.05411,-0.00349,0.15882,0.00000,0.00000,0.00000,58,26,29,1,64,21,24,12,ok,2,0,0.002,6,-0.76,0.40,9.68,31,0.089,7.99
6.0338,0.05411,-0.00349,0.15882,0.00000,0.00000,0.00000,59,22,30,1,65,22,25,10,ok,2,0,0.002,6,-0.76,0.40,9.68,31,0.101,7.99
6.0388,0.05411,-0.00349,0.15882,0.00000,0.00000,0.00000,60,19,31,1,64,23,26,9,ok,2,0,0.002,6,-0.76,0.40,9.68,31,0.114,7.99
6.0511,0.05411,-0.00349,0.15882,0.00000,0.00000,0.00000,60,14,33,1,64,25,27,10,ok,2,0,0.002,6,-0.76,0.40,9.68,31,0.126,7.99
6.0778,0.05411,-0.00349,0.15882,0.00000,0.00000,0.00000,60,12,34,2,65,26,29,9,ok,2,0,0.002,6,-0.76,0.40,9.68,31,0.139,7.99
6.0812,0.05411,-0.00349,0.15882,0.00000,0.00000,0.00000,60,11,36,2,64,28,30,9,ok,2,0,0.002,6,-0.76,0.40,9.68,31,0.156,7.99
6.0937,0.05411,-0.00349,0.15882,0.00000,0.00000,0.00000,60,8,37,2,64,29,32,9,ok,2,0,0.002,6,-0.76,0.40,9.68,31,0.169,7.99
6.1138,0.05411,-0.00349,0.15882,0.00000,0.00000,0.00000,60,5,39,3,64,30,33,9,ok,2,0,0.002,6,-0.76,0.40,9.68,31,0.181,7.99
6.1189,0.05411,-0.00349,0.15882,0.00000,0.00000,0.00000,60,2,40,3,64,32,34,9,ok,2,0,0.002,6,-0.76,0.40,9.68,31,0.194,7.99
6.1315,-0.09250,0.04363,0.15882,0.00000,0.00000,0.00000,59,0,42,3,64,34,35,8,ok,2,0,0.002,6,0.85,-1.86,10.72,32,0.000,7.99
6.1539,-0.09250,0.04363,0.15882,0.00000,0.00000,0.00000,58,-2,43,3,63,34,37,8,ok,2,0,0.002,6,0.85,-1.86,10.72,32,0.013,7.99
6.1571,-0.09250,0.04363,0.15882,0.00000,0.00000,0.00000,58,-4,45,3,64,35,38,8,ok,2,0,0.002,6,0.85,-1.86,10.72,32,0.026,7.99
6.1698,-0.09250,0.04363,0.15882,0.00000,0.00000,0.00000,57,-5,44,3,65,35,39,8,ok,2,0,0.002,6,0.85,-1.86,10.72,32,0.039,7.99
6.1898,-0.09250,0.04363,0.15882,0.00000,0.00000,0.00000,56,-7,45,4,67,32,41,7,ok,2,0,0.002,6,0.85,-1.86,10.72,32,0.051,7.99
6.1948,-0.09250,0.04363,0.15882,0.00000,0.00000,0.00000,56,-9,46,4,69,28,42,7,ok,2,0,0.002,6,0.85,-1.86,10.72,32,0.064,7.99
6.2073,-0.09250,0.04363,0.15882,0.00000,0.00000,0.00000,54,-10,48,5,71,24,43,7,ok,2,0,0.002,6,0.85,-1.86,10.72,32,0.076,7.99
6.2298,-0.09250,0.04363,0.15882,0.00000,0.00000,0.00000,54,-11,49,5,73,21,44,7,ok,2,0,0.002,6,0.85,-1.86,10.72,32,0.089,7.99
6.2331,-0.09250,0.04363,0.15882,0.00000,0.00000,0.00000,52,-11,49,5,74,21,45,8,ok,2,0,0.002,6,0.85,-1.86,10.72,32,0.102,7.99
6.2457,-0.09250,0.04363,0.15882,0.00000,0.00000,0.00000,51,-12,49,6,74,18,46,8,ok,2,0,0.002,6,0.85,-1.86,10.72,32,0.115,7.99
6.2658,-0.09250,0.04363,0.15882,0.00000,0.00000,0.00000,50,-12,51,7,74,14,47,8,ok,2,0,0.002,6,0.85,-1.86,10.72,32,0.127,7.99
6.2708,-0.09250,0.04363,0.15882,0.00000,0.00000,0.00000,48,-11,52,6,73,11,48,8,ok,2,0,0.002,6,0.85,-1.86,10.72,32,0.139,7.99
6.2832,-0.09250,0.04363,0.15882,0.00000,0.00000,0.00000,47,-10,53,6,73,10,49,8,ok,2,0,0.002,6,0.85,-1.86,10.72,32,0.152,7.99
6.3058,-0.09250,0.04363,0.15882,0.00000,0.00000,0.00000,46,-11,53,7,72,6,50,9,ok,2,0,0.002,6,0.85,-1.86,10.72,32,0.165,7.99
6.3090,-0.09250,0.04363,0.15882,0.00000,0.00000,0.00000,44,-11,55,7,72,4,50,8,ok,2,0,0.002,6,0.85,-1.86,10.72,32,0.178,7.99
6.3220,-0.09250,0.04363,0.15882,0.00000,0.00000,0.00000,43,-10,55,7,71,3,51,9,ok,2,0,0.002,6,0.85,-1.86,10.72,32,0.190,7.99
6.3418,0.10297,0.01396,0.15184,0.00000,0.00000,0.00000,42,-8,56,7,69,1,52,8,ok,2,0,0.002,6,-0.06,0.90,9.99,33,0.000,7.99
6.3467,0.10297,0.01396,0.15184,0.00000,0.00000,0.00000,40,-7,57,7,67,2,52,8,ok,2,0,0.002,6,-0.06,0.90,9.99,33,0.012,7.99
6.3593,0.10297,0.01396,0.15184,0.00000,0.00000,0.00000,38,-5,57,7,65,0,52,8,ok,2,0,0.002,6,-0.06,0.90,9.99,33,0.025,7.99
6.3818,0.10297,0.01396,0.15184,0.00000,0.00000,0.00000,36,-3,58,7,64,-2,53,9,ok,2,0,0.002,6,-0.06,0.90,9.99,33,0.037,7.99
6.3850,0.10297,0.01396,0.15184,0.00000,0.00000,0.00000,35,0,59,8,63,-3,54,8,ok,2,0,0.002,6,-0.06,0.90,9.99,33,0.051,7.99
6.3977,0.10297,0.01396,0.15184,0.00000,0.00000,0.00000,34,0,60,9,61,-5,54,8,ok,2,0,0.002,6,-0.06,0.90,9.99,33,0.064,7.99
6.4178,0.10297,0.01396,0.15184,0.00000,0.00000,0.00000,34,1,60,9,59,-5,56,6,ok,2,0,0.002,6,-0.06,0.90,9.99,33,0.076,7.99
6.4227,0.10297,0.01396,0.15184,0.00000,0.00000,0.00000,34,4,61,10,56,-6,56,7,ok,2,0,0.002,6,-0.06,0.90,9.99,33,0.088,7.99
6.4352,0.10297,0.01396,0.15184,0.00000,0.00000,0.00000,32,7,61,9,54,-7,57,7,ok,2,0,0.002,6,-0.06,0.90,9.99,33,0.101,7.99
6.4578,0.10297,0.01396,0.15184,0.00000,0.00000,0.00000,32,10,61,11,51,-6,58,8,ok,2,0,0.002,6,-0.06,0.90,9.99,33,0.114,7.99
6.4611,0.10297,0.01396,0.15184,0.00000,0.00000,0.00000,32,12,61,11,48,-6,58,8,ok,2,0,0.002,6,-0.06,0.90,9.99,33,0.127,7.99
6.4736,0.10297,0.01396,0.15184,0.00000,0.00000,0.00000,32,12,61,12,46,-6,59,9,ok,2,0,0.002,6,-0.06,0.90,9.99,33,0.140,7.99
6.4978,0.10297,0.01396,0.15184,0.00000,0.00000,0.00000,32,11,61,13,43,-5,59,10,ok,2,0,0.002,6,-0.06,0.90,9.99,33,0.152,7.99
6.5013,0.10297,0.01396,0.15184,0.00000,0.00000,0.00000,33,9,62,14,40,-4,60,10,ok,2,0,0.002,6,-0.06,0.90,9.99,33,0.167,7.99
6.5137,0.10297,0.01396,0.15184,0.00000,0.00000,0.00000,34,9,62,14,37,-4,60,11,ok,2,0,0.002,6,-0.06,0.90,9.99,33,0.179,7.99
6.5338,0.10297,0.01396,0.15184,0.00000,0.00000,0.00000,34,8,62,15,34,-3,61,12,ok,2,0,0.002,6,-0.06,0.90,9.99,33,0.192,7.99
6.5389,0.03665,0.08203,0.13265,0.00000,0.00000,0.00000,35,7,63,16,31,-1,61,13,ok,2,0,0.002,6,1.21,0.75,9.07,34,0.000,7.99
6.5512,0.03665,0.08203,0.13265,0.00000,0.00000,0.00000,36,7,63,17,29,0,62,14,ok,2,0,0.002,6,1.21,0.75,9.07,34,0.013,7.99
6.5738,0.03665,0.08203,0.13265,0.00000,0.00000,0.00000,36,5,64,18,27,1,62,15,ok,2,0,0.002,6,1.21,0.75,9.07,34,0.025,7.99
6.5772,0.03665,0.08203,0.13265,0.00000,0.00000,0.00000,37,4,64,19,25,4,63,15,ok,2,0,0.002,6,1.21,0.75,9.07,34,0.038,7.99
6.5896,0.03665,0.08203,0.13265,0.00000,0.00000,0.00000,37,4,64,21,24,7,63,16,ok,2,0,0.002,6,1.21,0.75,9.07,34,0.051,7.99
6.6098,0.03665,0.08203,0.13265,0.00000,0.00000,0.00000,38,3,64,22,23,11,63,17,ok,2,0,0.002,6,1.21,0.75,9.07,34,0.064,7.99
6.6146,0.03665,0.08203,0.13265,0.00000,0.00000,0.00000,38,3,64,23,22,14,64,18,ok,2,0,0.002,6,1.21,0.75,9.07,34,0.076,7.99
6.6272,0.03665,0.08203,0.13265,0.00000,0.00000,0.00000,38,2,63,26,24,13,64,19,ok,2,0,0.002,6,1.21,0.75,9.07,34,0.089,7.99
6.6498,0.03665,0.08203,0.13265,0.00000,0.00000,0.00000,39,1,63,28,24,13,64,19,ok,2,0,0.002,7,1.21,0.75,9.07,34,0.101,7.99
6.6531,0.03665,0.08203,0.13265,0.00000,0.00000,0.00000,40,1,64,26,25,11,64,21,ok,2,0,0.002,7,1.21,0.75,9.07,34,0.114,7.99
6.6657,0.03665,0.08203,0.13265,0.00000,0.00000,0.00000,40,1,67,23,27,11,65,21,ok,2,0,0.002,7,1.21,0.75,9.07,34,0.127,7.99
6.6858,0.03665,0.08203,0.13265,0.00000,0.00000,0.00000,40,0,69,19,28,11,65,22,ok,2,0,0.002,7,1.21,0.75,9.07,34,0.140,7.99
6.6906,0.03665,0.08203,0.13265,0.00000,0.00000,0.00000,42,1,70,15,29,10,65,23,ok,2,0,0.002,7,1.21,0.75,9.07,34,0.152,7.99
6.7034,0.03665,0.08203,0.13265,0.00000,0.00000,0.00000,42,1,70,12,30,9,65,25,ok,2,0,0.002,7,1.21,0.75,9.07,34,0.164,7.99
6.7258,0.03665,0.08203,0.13265,0.00000,0.00000,0.00000,44,1,70,12,33,9,65,26,ok,2,0,0.002,7,1.21,0.75,9.07,34,0.177,7.99
6.7290,0.03665,0.08203,0.13265,0.00000,0.00000,0.00000,44,1,70,8,33,9,64,28,ok,2,0,0.002,7,1.21,0.75,9.07,34,0.190,7.99
6.7421,-0.10647,0.02793,0.20420,0.00000,0.00000,0.00000,44,2,69,6,35,9,64,30,ok,2,0,0.002,7,0.96,-2.55,10.66,35,0.000,7.99
6.7618,-0.10647,0.02793,0.20420,0.00000,0.00000,0.00000,46,2,68,3,37,8,65,31,ok,2,0,0.002,7,0.96,-2.55,10.66,35,0.013,7.99
6.7666,-0.10647,0.02793,0.20420,0.00000,0.00000,0.00000,46,2,67,0,37,8,65,33,ok,2,0,0.002,7,0.96,-2.55,10.66,35,0.025,7.99
6.7792,-0.10647,0.02793,0.20420,0.00000,0.00000,0.00000,47,1,66,-2,38,8,64,34,ok,2,0,0.002,7,0.96,-2.55,10.66,35,0.038,7.99
6.8018,-0.10647,0.02793,0.20420,0.00000,0.00000,0.00000,48,1,64,-3,39,8,64,35,ok,2,0,0.002,7,0.96,-2.55,10.66,35,0.050,7.99
6.8051,-0.10647,0.02793,0.20420,0.00000,0.00000,0.00000,48,1,62,-4,40,7,65,36,ok,2,0,0.002,7,0.96,-2.55,10.66,35,0.063,7.99
6.8176,-0.10647,0.02793,0.20420,0.00000,0.00000,0.00000,48,1,61,-5,42,7,66,35,ok,2,0,0.002,7,0.96,-2.55,10.66,35,0.076,7.99
6.8378,-0.10647,0.02793,0.20420,0.00000,0.00000,0.00000,48,1,60,-7,43,7,68,32,ok,2,0,0.002,7,0.96,-2.55,10.66,35,0.089,7.99
6.8426,-0.10647,0.02793,0.20420,0.00000,0.00000,0.00000,50,2,58,-7,44,7,70,27,ok,2,0,0.002,7,0.96,-2.55,10.66,35,0.101,7.99
6.8552,-0.10647,0.02793,0.20420,0.00000,0.00000,0.00000,50,2,55,-9,45,7,71,24,ok,2,0,0.002,7,0.96,-2.55,10.66,35,0.114,7.99
6.8779,-0.10647,0.02793,0.20420,0.00000,0.00000,0.00000,50,2,53,-9,46,7,72,21,ok,2,0,0.002,7,0.96,-2.55,10.66,35,0.126,7.99
6.8812,-0.10647,0.02793,0.20420,0.00000,0.00000,0.00000,50,5,51,-10,47,7,73,20,ok,2,0,0.002,7,0.96,-2.55,10.66,35,0.139,7.99
6.8936,-0.10647,0.02793,0.20420,0.00000,0.00000,0.00000,51,6,49,-10,47,7,73,18,ok,2,0,0.002,7,0.96,-2.55,10.66,35,0.152,7.99
6.9138,-0.10647,0.02793,0.20420,0.00000,0.00000,0.00000,52,5,46,-10,49,7,73,15,ok,2,0,0.002,7,0.96,-2.55,10.66,35,0.165,7.99
6.9187,-0.10647,0.02793,0.20420,0.00000,0.00000,0.00000,52,6,44,-10,49,7,72,12,ok,2,0,0.002,7,0.96,-2.55,10.66,35,0.177,7.99
6.9312,-0.10647,0.02793,0.20420,0.00000,0.00000,0.00000,52,7,41,-10,50,7,72,11,ok,2,0,0.002,7,0.96,-2.55,10.66,35,0.190,7.99
6.9538,-0.05760,-0.01571,0.24086,0.00000,0.00000,0.00000,53,7,39,-11,51,7,71,7,ok,2,0,0.002,7,0.56,-0.88,11.08,36,0.000,7.99
6.9570,-0.05760,-0.01571,0.24086,0.00000,0.00000,0.00000,53,7,36,-10,52,7,71,6,ok,2,0,0.002,7,0.56,-0.88,11.08,36,0.013,7.99
6.9696,-0.05760,-0.01571,0.24086,0.00000,0.00000,0.00000,54,7,33,-9,52,7,70,4,ok,2,0,0.002,7,0.56,-0.88,11.08,36,0.026,7.99
6.9898,-0.05760,-0.01571,0.24086,0.00000,0.00000,0.00000,54,8,30,-8,53,8,68,2,ok,2,0,0.002,7,0.56,-0.88,11.08,36,0.038,7.99
6.9947,-0.05760,-0.01571,0.24086,0.00000,0.00000,0.00000,54,8,27,-7,54,8,66,2,ok,2,0,0.002,7,0.56,-0.88,11.08,36,0.051,7.99
7.0072,-0.05760,-0.01571,0.24086,0.00000,0.00000,0.00000,54,9,24,-5,55,8,65,0,ok,2,0,0.002,7,0.56,-0.88,11.08,36,0.063,7.99
7.0299,-0.05760,-0.01571,0.24086,0.00000,0.00000,0.00000,55,10,21,-3,56,8,64,-2,ok,2,0,0.002,7,0.56,-0.88,11.08,36,0.076,7.99
7.0333,-0.05760,-0.01571,0.24086,0.00000,0.00000,0.00000,56,11,19,-1,58,6,62,-3,ok,2,0,0.002,7,0.56,-0.88,11.08,36,0.089,7.99
7.0456,-0.05760,-0.01571,0.24086,0.00000,0.00000,0.00000,56,10,18,0,58,7,60,-4,ok,2,0,0.002,7,0.56,-0.88,11.08,36,0.102,7.99
7.0658,-0.05760,-0.01571,0.24086,0.00000,0.00000,0.00000,56,11,16,3,59,8,58,-5,ok,2,0,0.002,7,0.56,-0.88,11.08,36,0.115,7.99
7.0708,-0.05760,-0.01571,0.24086,0.00000,0.00000,0.00000,56,11,15,6,59,8,55,-6,ok,2,0,0.002,7,0.56,-0.88,11.08,36,0.127,7.99
7.0832,-0.05760,-0.01571,0.24086,0.00000,0.00000,0.00000,56,12,13,9,60,9,53,-6,ok,2,0,0.002,7,0.56,-0.88,11.08,36,0.140,7.99
7.1058,-0.05760,-0.01571,0.24086,0.00000,0.00000,0.00000,56,12,13,11,60,9,50,-5,ok,2,0,0.002,7,0.56,-0.88,11.08,36,0.152,7.99
7.1090,-0.05760,-0.01571,0.24086,0.00000,0.00000,0.00000,56,13,14,12,60,10,48,-5,ok,2,0,0.002,7,0.56,-0.88,11.08,36,0.165,7.99
7.1216,-0.05760,-0.01571,0.24086,0.00000,0.00000,0.00000,56,14,15,11,61,11,45,-5,ok,2,0,0.002,7,0.56,-0.88,11.08,36,0.178,7.99
7.1418,-0.05760,-0.01571,0.24086,0.00000,0.00000,0.00000,56,14,17,10,61,11,42,-4,ok,2,0,0.002,7,0.56,-0.88,11.08,36,0.190,7.99
7.1469,0.08029,0.06458,0.19373,0.00000,0.00000,0.00000,56,15,19,9,61,12,40,-4,ok,2,0,0.002,7,0.54,1.09,10.55,37,0.000,7.99
7.1594,0.08029,0.06458,0.19373,0.00000,0.00000,0.00000,56,16,19,9,61,13,36,-3,ok,2,0,0.002,7,0.54,1.09,10.55,37,0.013,7.99
7.1818,0.08029,0.06458,0.19373,0.00000,0.00000,0.00000,56,17,21,7,61,13,34,-3,ok,2,0,0.002,7,0.54,1.09,10.55,37,0.025,7.99
7.1850,0.08029,0.06458,0.19373,0.00000,0.00000,0.00000,56,18,21,7,62,15,30,-1,ok,2,0,0.002,7,0.54,1.09,10.55,37,0.038,7.99
7.1976,0.08029,0.06458,0.19373,0.00000,0.00000,0.00000,57,20,23,6,63,14,29,0,ok,2,0,0.002,7,0.54,1.09,10.55,37,0.051,7.99
7.2178,0.08029,0.06458,0.19373,0.00000,0.00000,0.00000,57,21,24,5,63,16,26,1,ok,2,0,0.002,7,0.54,1.09,10.55,37,0.064,7.99
7.2226,0.08029,0.06458,0.19373,0.00000,0.00000,0.00000,58,22,24,4,63,16,25,4,ok,2,0,0.002,7,0.54,1.09,10.55,37,0.076,7.99
7.2354,0.08029,0.06458,0.19373,0.00000,0.00000,0.00000,58,23,25,3,63,17,24,7,ok,2,0,0.002,7,0.54,1.09,10.55,37,0.089,7.99
7.2578,0.08029,0.06458,0.19373,0.00000,0.00000,0.00000,58,24,25,2,64,18,23,10,ok,2,0,0.002,7,0.54,1.09,10.55,37,0.101,7.99
7.2610,0.08029,0.06458,0.19373,0.00000,0.00000,0.00000,57,27,26,2,64,19,22,12,ok,2,0,0.002,7,0.54,1.09,10.55,37,0.114,7.99
7.2736,0.08029,0.06458,0.19373,0.00000,0.00000,0.00000,57,27,27,2,64,20,24,12,ok,2,0,0.002,7,0.54,1.09,10.55,37,0.127,7.99
7.2938,0.08029,0.06458,0.19373,0.00000,0.00000,0.00000,58,25,28,2,64,21,25,11,ok,2,0,0.002,7,0.54,1.09,10.55,37,0.140,7.99
7.2988,0.08029,0.06458,0.19373,0.00000,0.00000,0.00000,58,21,30,2,65,23,25,10,ok,2,0,0.002,7,0.54,1.09,10.55,37,0.152,7.99
7.3114,0.08029,0.06458,0.19373,0.00000,0.00000,0.00000,60,17,31,1,64,24,27,9,ok,2,0,0.002,7,0.54,1.09,10.55,37,0.165,7.99
7.3338,0.08029,0.06458,0.19373,0.00000,0.00000,0.00000,60,13,32,2,64,25,28,10,ok,2,0,0.002,7,0.54,1.09,10.55,37,0.177,7.99
7.3371,0.08029,0.06458,0.19373,0.00000,0.00000,0.00000,60,11,34,2,65,26,29,9,ok,2,0,0.002,7,0.54,1.09,10.55,37,0.190,7.99
7.3500,-0.00698,-0.01396,0.19897,0.00000,0.00000,0.00000,60,10,36,2,64,28,30,8,ok,2,0,0.002,7,2.05,-1.30,10.19,38,0.000,7.99
7.3698,-0.00698,-0.01396,0.19897,0.00000,0.00000,0.00000,60,7,37,2,64,29,33,9,ok,2,0,0.002,7,2.05,-1.30,10.19,38,0.013,7.99
7.3746,-0.00698,-0.01396,0.19897,0.00000,0.00000,0.00000,60,4,39,3,64,30,33,9,ok,2,0,0.002,7,2.05,-1.30,10.19,38,0.025,7.99
7.3874,-0.00698,-0.01396,0.19897,0.00000,0.00000,0.00000,60,1,40,3,64,32,35,8,ok,2,0,0.002,7,2.05,-1.30,10.19,38,0.038,7.99
7.4098,-0.00698,-0.01396,0.19897,0.00000,0.00000,0.00000,59,-1,42,3,63,34,36,8,ok,2,0,0.002,7,2.05,-1.30,10.19,38,0.050,7.99
7.4130,-0.00698,-0.01396,0.19897,0.00000,0.00000,0.00000,58,-3,43,3,63,35,37,8,ok,2,0,0.002,7,2.05,-1.30,10.19,38,0.063,7.99
7.4257,-0.00698,-0.01396,0.19897,0.00000,0.00000,0.00000,58,-4,44,3,64,36,38,8,ok,2,0,0.002,7,2.05,-1.30,10.19,38,0.076,7.99
7.4458,-0.00698,-0.01396,0.19897,0.00000,0.00000,0.00000,56,-5,45,3,65,35,39,7,ok,2,0,0.002,7,2.05,-1.30,10.19,38,0.089,7.99
7.4508,-0.00698,-0.01396,0.19897,0.00000,0.00000,0.00000,56,-7,46,3,67,33,41,7,ok,2,0,0.002,7,2.05,-1.30,10.19,38,0.101,7.99
7.4632,-0.00698,-0.01396,0.19897,0.00000,0.00000,0.00000,56,-9,47,3,69,29,42,7,ok,2,0,0.002,7,2.05,-1.30,10.19,38,0.114,7.99
7.4858,-0.00698,-0.01396,0.19897,0.00000,0.00000,0.00000,54,-9,48,4,71,24,43,7,ok,2,0,0.002,7,2.05,-1.30,10.19,38,0.126,7.99
7.4890,-0.00698,-0.01396,0.19897,0.00000,0.00000,0.00000,54,-10,50,4,72,22,44,7,ok,2,0,0.002,7,2.05,-1.30,10.19,38,0.139,7.99
7.5016,-0.00698,-0.01396,0.19897,0.00000,0.00000,0.00000,52,-10,50,4,73,21,44,7,ok,2,0,0.002,7,2.05,-1.30,10.19,38,0.152,7.99
7.5218,-0.00698,-0.01396,0.19897,0.00000,0.00000,0.00000,51,-11,50,6,73,18,46,7,ok,2,0,0.002,7,2.05,-1.30,10.19,38,0.165,7.99
7.5268,-0.00698,-0.01396,0.19897,0.00000,0.00000,0.00000,50,-11,52,6,73,15,47,8,ok,2,0,0.002,7,2.05,-1.30,10.19,38,0.177,7.99
7.5392,-0.00698,-0.01396,0.19897,0.00000,0.00000,0.00000,48,-11,52,6,73,12,48,8,ok,2,0,0.002,7,2.05,-1.30,10.19,38,0.190,7.99
7.5618,-0.03316,-0.00175,0.20595,0.00000,0.00000,0.00000,47,-10,53,6,72,10,49,8,ok,2,0,0.002,7,-0.49,-0.19,7.79,39,0.000,7.99
7.5651,-0.03316,-0.00175,0.20595,0.00000,0.00000,0.00000,46,-10,54,7,71,7,49,9,ok,2,0,0.002,7,-0.49,-0.19,7.79,39,0.013,7.99
7.5778,-0.03316,-0.00175,0.20595,0.00000,0.00000,0.00000,44,-11,56,7,71,5,50,8,ok,2,0,0.002,7,-0.49,-0.19,7.79,39,0.026,7.99
7.5978,-0.03316,-0.00175,0.20595,0.00000,0.00000,0.00000,44,-10,56,7,70,4,51,9,ok,2,0,0.002,7,-0.49,-0.19,7.79,39,0.039,7.99
7.6026,-0.03316,-0.00175,0.20595,0.00000,0.00000,0.00000,42,-8,57,7,68,1,52,8,ok,2,0,0.002,7,-0.49,-0.19,7.79,39,0.051,7.99
7.6154,-0.03316,-0.00175,0.20595,0.00000,0.00000,0.00000,40,-7,57,8,66,2,52,8,ok,2,0,0.002,7,-0.49,-0.19,7.79,39,0.064,7.99
7.6378,-0.03316,-0.00175,0.20595,0.00000,0.00000,0.00000,38,-6,58,8,65,-1,53,8,ok,2,0,0.002,7,-0.49,-0.19,7.79,39,0.076,7.99
7.6410,-0.03316,-0.00175,0.20595,0.00000,0.00000,0.00000,37,-4,58,8,63,-2,54,9,ok,2,0,0.002,7,-0.49,-0.19,7.79,39,0.089,7.99
7.6536,-0.03316,-0.00175,0.20595,0.00000,0.00000,0.00000,35,-2,59,9,61,-4,55,9,ok,2,0,0.002,8,-0.49,-0.19,7.79,39,0.102,7.99
7.6738,-0.03316,-0.00175,0.20595,0.00000,0.00000,0.00000,35,-2,60,11,60,-5,55,8,ok,2,0,0.002,8,-0.49,-0.19,7.79,39,0.115,7.99
7.6787,-0.03316,-0.00175,0.20595,0.00000,0.00000,0.00000,34,0,61,10,58,-5,57,6,ok,2,0,0.002,8,-0.49,-0.19,7.79,39,0.127,7.99
7.6914,-0.03316,-0.00175,0.20595,0.00000,0.00000,0.00000,33,2,61,11,55,-6,57,7,ok,2,0,0.002,8,-0.49,-0.19,7.79,39,0.140,7.99
7.7138,-0.03316,-0.00175,0.20595,0.00000,0.00000,0.00000,32,5,61,11,54,-7,58,8,ok,2,0,0.002,8,-0.49,-0.19,7.79,39,0.152,7.99
7.7171,-0.03316,-0.00175,0.20595,0.00000,0.00000,0.00000,32,9,61,12,51,-6,58,8,ok,2,0,0.002,8,-0.49,-0.19,7.79,39,0.165,7.99
7.7298,-0.03316,-0.00175,0.20595,0.00000,0.00000,0.00000,31,11,62,12,48,-6,59,9,ok,2,0,0.002,8,-0.49,-0.19,7.79,39,0.178,7.99
7.7498,-0.03316,-0.00175,0.20595,0.00000,0.00000,0.00000,32,11,62,13,45,-6,60,10,ok,2,0,0.002,8,-0.49,-0.19,7.79,39,0.191,7.99
7.7550,0.01396,0.03142,0.21642,0.00000,0.00000,0.00000,32,11,61,14,43,-5,60,10,ok,2,0,0.002,8,0.13,0.01,9.28,40,0.000,7.99
7.7672,0.01396,0.03142,0.21642,0.00000,0.00000,0.00000,33,10,62,14,40,-5,60,11,ok,2,0,0.002,8,0.13,0.01,9.28,40,0.013,7.99
7.7898,0.01396,0.03142,0.21642,0.00000,0.00000,0.00000,34,9,62,14,37,-4,60,11,ok,2,0,0.002,8,0.13,0.01,9.28,40,0.025,7.99
7.7932,0.01396,0.03142,0.21642,0.00000,0.00000,0.00000,34,9,62,15,34,-3,61,13,ok,2,0,0.002,8,0.13,0.01,9.28,40,0.038,7.99
7.8057,0.01396,0.03142,0.21642,0.00000,0.00000,0.00000,35,8,63,15,32,-2,61,13,ok,2,0,0.002,8,0.13,0.01,9.28,40,0.051,7.99
7.8258,0.01396,0.03142,0.21642,0.00000,0.00000,0.00000,36,8,63,17,30,0,62,14,ok,2,0,0.002,8,0.13,0.01,9.28,40,0.064,7.99
7.8306,0.01396,0.03142,0.21642,0.00000,0.00000,0.00000,36,6,64,18,28,1,62,15,ok,2,0,0.002,8,0.13,0.01,9.28,40,0.076,7.99
7.8432,0.01396,0.03142,0.21642,0.00000,0.00000,0.00000,37,6,64,19,26,5,63,15,ok,2,0,0.002,8,0.13,0.01,9.28,40,0.089,7.99
7.8658,0.01396,0.03142,0.21642,0.00000,0.00000,0.00000,37,5,64,20,24,8,63,16,ok,2,0,0.002,8,0.13,0.01,9.28,40,0.101,7.99
7.8690,0.01396,0.03142,0.21642,0.00000,0.00000,0.00000,38,4,64,21,23,11,63,17,ok,2,0,0.002,8,0.13,0.01,9.28,40,0.114,7.99
7.8816,0.01396,0.03142,0.21642,0.00000,0.00000,0.00000,38,4,64,22,22,14,64,18,ok,2,0,0.002,8,0.13,0.01,9.28,40,0.127,7.99
7.9018,0.01396,0.03142,0.21642,0.00000,0.00000,0.00000,39,3,63,25,24,13,64,19,ok,2,0,0.002,8,0.13,0.01,9.28,40,0.140,7.99
7.9066,0.01396,0.03142,0.21642,0.00000,0.00000,0.00000,40,2,63,27,24,14,64,19,ok,2,0,0.002,8,0.13,0.01,9.28,40,0.152,7.99
7.9192,0.01396,0.03142,0.21642,0.00000,0.00000,0.00000,40,2,64,25,25,11,64,20,ok,2,0,0.002,8,0.13,0.01,9.28,40,0.165,7.99
7.9419,0.01396,0.03142,0.21642,0.00000,0.00000,0.00000,40,2,67,22,26,11,65,21,ok,2,0,0.002,8,0.13,0.01,9.28,40,0.177,7.99
7.9454,-0.06283,-0.00000,0.18500,0.00000,0.00000,0.00000,41,1,69,19,28,11,65,22,ok,2,0,0.002,8,-0.71,-1.48,8.69,41,0.000,7.99
7.9576,-0.06283,-0.00000,0.18500,0.00000,0.00000,0.00000,42,1,70,15,29,10,65,23,ok,2,0,0.002,8,-0.71,-1.48,8.69,41,0.013,7.99
7.9778,-0.06283,-0.00000,0.18500,0.00000,0.00000,0.00000,42,1,71,12,30,9,65,25,ok,2,0,0.002,8,-0.71,-1.48,8.69,41,0.025,7.99
7.9828,-0.06283,-0.00000,0.18500,0.00000,0.00000,0.00000,44,1,70,12,32,9,66,26,ok,2,0,0.002,8,-0.71,-1.48,8.69,41,0.038,7.99
7.9952,-0.06283,-0.00000,0.18500,0.00000,0.00000,0.00000,44,1,70,9,32,9,65,28,ok,2,0,0.002,8,-0.71,-1.48,8.69,41,0.050,7.99
8.0178,-0.06283,-0.00000,0.18500,0.00000,0.00000,0.00000,45,2,69,6,35,9,64,30,ok,2,0,0.002,8,-0.71,-1.48,8.69,41,0.063,7.99
8.0213,-0.06283,-0.00000,0.18500,0.00000,0.00000,0.00000,46,2,69,3,36,8,65,31,ok,2,0,0.002,8,-0.71,-1.48,8.69,41,0.076,7.99
8.0337,-0.06283,-0.00000,0.18500,0.00000,0.00000,0.00000,46,2,68,1,37,9,64,33,ok,2,0,0.002,8,-0.71,-1.48,8.69,41,0.089,7.99
8.0538,-0.06283,-0.00000,0.18500,0.00000,0.00000,0.00000,47,1,66,-1,38,8,64,34,ok,2,0,0.002,8,-0.71,-1.48,8.69,41,0.101,7.99
8.0587,-0.06283,-0.00000,0.18500,0.00000,0.00000,0.00000,48,2,65,-3,39,8,63,36,ok,2,0,0.002,8,-0.71,-1.48,8.69,41,0.114,7.99
8.0714,-0.06283,-0.00000,0.18500,0.00000,0.00000,0.00000,48,2,63,-4,41,7,64,36,ok,2,0,0.002,8,-0.71,-1.48,8.69,41,0.126,7.99
8.0938,-0.06283,-0.00000,0.18500,0.00000,0.00000,0.00000,48,3,61,-5,42,7,66,35,ok,2,0,0.002,8,-0.71,-1.48,8.69,41,0.139,7.99
8.0970,-0.06283,-0.00000,0.18500,0.00000,0.00000,0.00000,49,3,60,-8,43,7,67,33,ok,2,0,0.002,8,-0.71,-1.48,8.69,41,0.152,7.99
8.1098,-0.06283,-0.00000,0.18500,0.00000,0.00000,0.00000,50,4,58,-8,44,7,69,27,ok,2,0,0.002,8,-0.71,-1.48,8.69,41,0.165,7.99
8.1298,-0.06283,-0.00000,0.18500,0.00000,0.00000,0.00000,50,3,56,-9,45,7,70,24,ok,2,0,0.002,8,-0.71,-1.48,8.69,41,0.177,7.99
8.1346,-0.06283,-0.00000,0.18500,0.00000,0.00000,0.00000,50,3,54,-9,46,7,72,21,ok,2,0,0.002,8,-0.71,-1.48,8.69,41,0.190,7.99
8.1473,-0.06283,-0.00000,0.18500,0.00000,0.00000,0.00000,50,5,51,-10,47,7,72,20,ok,2,0,0.002,8,-0.71,-1.48,8.69,41,0.202,7.99
8.1698,-0.10297,0.02269,0.23562,0.00000,0.00000,0.00000,51,6,49,-10,47,7,72,18,ok,2,0,0.002,8,-0.90,-1.73,10.12,42,0.000,7.99
8.1732,-0.10297,0.02269,0.23562,0.00000,0.00000,0.00000,52,6,46,-10,48,7,73,15,ok,2,0,0.002,8,-0.90,-1.73,10.12,42,0.013,7.99
8.1857,-0.10297,0.02269,0.23562,0.00000,0.00000,0.00000,52,6,44,-9,49,7,72,12,ok,2,0,0.002,8,-0.90,-1.73,10.12,42,0.026,7.99
8.2058,-0.10297,0.02269,0.23562,0.00000,0.00000,0.00000,52,7,41,-10,49,7,72,11,ok,2,0,0.002,8,-0.90,-1.73,10.12,42,0.039,7.99
8.2107,-0.10297,0.02269,0.23562,0.00000,0.00000,0.00000,53,7,39,-10,50,7,71,7,ok,2,0,0.002,8,-0.90,-1.73,10.12,42,0.051,7.99
8.2232,-0.10297,0.02269,0.23562,0.00000,0.00000,0.00000,54,7,37,-9,51,6,71,6,ok,2,0,0.002,8,-0.90,-1.73,10.12,42,0.064,7.99
8.2458,-0.10297,0.02269,0.23562,0.00000,0.00000,0.00000,54,7,33,-8,52,7,70,4,ok,2,0,0.002,8,-0.90,-1.73,10.12,42,0.076,7.99
8.2490,-0.10297,0.02269,0.23562,0.00000,0.00000,0.00000,54,8,30,-7,52,8,68,2,ok,2,0,0.002,8,-0.90,-1.73,10.12,42,0.089,7.99
8.2617,-0.10297,0.02269,0.23562,0.00000,0.00000,0.00000,54,8,27,-6,54,8,66,2,ok,2,0,0.002,8,-0.90,-1.73,10.12,42,0.102,7.99
8.2818,-0.10297,0.02269,0.23562,0.00000,0.00000,0.00000,54,8,24,-4,55,8,65,0,ok,2,0,0.002,8,-0.90,-1.73,10.12,42,0.115,7.99
8.2866,-0.10297,0.02269,0.23562,0.00000,0.00000,0.00000,55,9,20,-2,55,8,64,-2,ok,2,0,0.002,8,-0.90,-1.73,10.12,42,0.127,7.99
8.2992,-0.10297,0.02269,0.23562,0.00000,0.00000,0.00000,55,10,19,-1,58,6,62,-3,ok,2,0,0.002,8,-0.90,-1.73,10.12,42,0.140,7.99
8.3218,-0.10297,0.02269,0.23562,0.00000,0.00000,0.00000,56,10,18,0,58,7,60,-4,ok,2,0,0.002,8,-0.90,-1.73,10.12,42,0.152,7.99
8.3253,-0.10297,0.02269,0.23562,0.00000,0.00000,0.00000,56,11,16,3,59,8,58,-5,ok,2,0,0.002,8,-0.90,-1.73,10.12,42,0.165,7.99
8.3377,-0.10297,0.02269,0.23562,0.00000,0.00000,0.00000,56,11,15,6,59,8,55,-6,ok,2,0,0.002,8,-0.90,-1.73,10.12,42,0.178,7.99
8.3578,-0.10297,0.02269,0.23562,0.00000,0.00000,0.00000,56,12,13,9,60,9,54,-6,ok,2,0,0.002,8,-0.90,-1.73,10.12,42,0.191,7.99
8.3630,0.04887,0.06981,0.19722,0.00000,0.00000,0.00000,56,12,12,11,60,9,50,-5,ok,2,0,0.002,8,0.77,0.80,10.06,43,0.000,7.99
8.3752,0.04887,0.06981,0.19722,0.00000,0.00000,0.00000,56,13,14,12,60,10,47,-5,ok,2,0,0.002,8,0.77,0.80,10.06,43,0.013,7.99
8.3978,0.04887,0.06981,0.19722,0.00000,0.00000,0.00000,56,14,15,11,61,11,45,-5,ok,2,0,0.002,8,0.77,0.80,10.06,43,0.025,7.99
8.4010,0.04887,0.06981,0.19722,0.00000,0.00000,0.00000,56,14,16,10,61,11,42,-4,ok,2,0,0.002,8,0.77,0.80,10.06,43,0.038,7.99
8.4137,0.04887,0.06981,0.19722,0.00000,0.00000,0.00000,56,16,18,9,62,12,40,-4,ok,2,0,0.002,8,0.77,0.80,10.06,43,0.051,7.99
8.4338,0.04887,0.06981,0.19722,0.00000,0.00000,0.00000,56,16,19,8,62,13,36,-3,ok,2,0,0.002,8,0.77,0.80,10.06,43,0.064,7.99
8.4386,0.04887,0.06981,0.19722,0.00000,0.00000,0.00000,56,17,21,7,62,13,34,-3,ok,2,0,0.002,8,0.77,0.80,10.06,43,0.076,7.99
8.4514,0.04887,0.06981,0.19722,0.00000,0.00000,0.00000,56,18,21,6,62,14,31,-1,ok,2,0,0.002,8,0.77,0.80,10.06,43,0.089,7.99
8.4738,0.04887,0.06981,0.19722,0.00000,0.00000,0.00000,57,20,22,5,63,14,30,0,ok,2,0,0.002,8,0.77,0.80,10.06,43,0.101,7.99
8.4771,0.04887,0.06981,0.19722,0.00000,0.00000,0.00000,57,21,24,5,63,16,27,1,ok,2,0,0.002,8,0.77,0.80,10.06,43,0.114,7.99
8.4896,0.04887,0.06981,0.19722,0.00000,0.00000,0.00000,58,22,24,4,63,16,25,4,ok,2,0,0.002,8,0.77,0.80,10.06,43,0.127,7.99
8.5098,0.04887,0.06981,0.19722,0.00000,0.00000,0.00000,58,22,25,4,63,17,24,7,ok,2,0,0.002,8,0.77,0.80,10.06,43,0.140,7.99
8.5146,0.04887,0.06981,0.19722,0.00000,0.00000,0.00000,58,23,25,3,64,18,23,10,ok,2,0,0.002,8,0.77,0.80,10.06,43,0.152,7.99
8.5274,0.04887,0.06981,0.19722,0.00000,0.00000,0.00000,57,25,27,3,64,19,22,12,ok,2,0,0.002,8,0.77,0.80,10.06,43,0.165,7.99
8.5498,0.04887,0.06981,0.19722,0.00000,0.00000,0.00000,56,26,27,2,64,20,25,12,ok,2,0,0.002,8,0.77,0.80,10.06,43,0.177,7.99
8.5531,0.04887,0.06981,0.19722,0.00000,0.00000,0.00000,58,25,29,2,64,21,25,11,ok,2,0,0.002,8,0.77,0.80,10.06,43,0.190,7.99
8.5660,-0.04712,0.05760,0.21293,0.00000,0.00000,0.00000,58,21,30,2,65,22,26,10,ok,2,0,0.002,8,0.32,-1.70,8.66,44,0.000,7.99
8.5858,-0.04712,0.05760,0.21293,0.00000,0.00000,0.00000,60,17,31,1,64,23,27,9,ok,2,0,0.002,8,0.32,-1.70,8.66,44,0.012,7.99
8.5906,-0.04712,0.05760,0.21293,0.00000,0.00000,0.00000,60,13,32,2,64,25,28,10,ok,2,0,0.002,8,0.32,-1.70,8.66,44,0.025,7.99
8.6034,-0.04712,0.05760,0.21293,0.00000,0.00000,0.00000,60,10,33,2,65,25,30,9,ok,2,0,0.002,8,0.32,-1.70,8.66,44,0.037,7.99
8.6258,-0.04712,0.05760,0.21293,0.00000,0.00000,0.00000,60,10,35,2,63,28,31,9,ok,2,0,0.002,8,0.32,-1.70,8.66,44,0.050,7.99
8.6290,-0.04712,0.05760,0.21293,0.00000,0.00000,0.00000,60,6,36,2,64,29,33,9,ok,2,0,0.002,8,0.32,-1.70,8.66,44,0.063,7.99
8.6416,-0.04712,0.05760,0.21293,0.00000,0.00000,0.00000,60,4,39,3,64,30,33,9,ok,2,0,0.002,8,0.32,-1.70,8.66,44,0.076,7.99
8.6618,-0.04712,0.05760,0.21293,0.00000,0.00000,0.00000,60,1,40,3,64,32,35,8,ok,2,0,0.002,8,0.32,-1.70,8.66,44,0.089,7.99
8.6668,-0.04712,0.05760,0.21293,0.00000,0.00000,0.00000,59,-1,41,3,64,34,36,8,ok,2,0,0.002,9,0.32,-1.70,8.66,44,0.101,7.99
8.6792,-0.04712,0.05760,0.21293,0.00000,0.00000,0.00000,58,-3,43,3,64,35,37,8,ok,2,0,0.002,9,0.32,-1.70,8.66,44,0.114,7.99
8.7018,-0.04712,0.05760,0.21293,0.00000,0.00000,0.00000,58,-4,44,3,64,35,38,8,ok,2,0,0.002,9,0.32,-1.70,8.66,44,0.126,7.99
8.7051,-0.04712,0.05760,0.21293,0.00000,0.00000,0.00000,56,-5,44,3,66,35,39,8,ok,2,0,0.002,9,0.32,-1.70,8.66,44,0.139,7.99
8.7176,-0.04712,0.05760,0.21293,0.00000,0.00000,0.00000,56,-6,45,3,67,33,41,7,ok,2,0,0.002,9,0.32,-1.70,8.66,44,0.152,7.99
8.7378,-0.04712,0.05760,0.21293,0.00000,0.00000,0.00000,56,-8,46,3,69,28,42,7,ok,2,0,0.002,9,0.32,-1.70,8.66,44,0.165,7.99
8.7427,-0.04712,0.05760,0.21293,0.00000,0.00000,0.00000,54,-9,48,4,71,24,43,7,ok,2,0,0.002,9,0.32,-1.70,8.66,44,0.177,7.99
8.7555,-0.04712,0.05760,0.21293,0.00000,0.00000,0.00000,53,-10,49,4,73,21,44,7,ok,2,0,0.002,9,0.32,-1.70,8.66,44,0.190,7.99
8.7778,-0.01396,0.04887,0.24086,0.00000,0.00000,0.00000,52,-10,49,3,74,21,45,7,ok,2,0,0.002,9,0.74,-0.36,10.86,45,0.000,7.99
8.7810,-0.01396,0.04887,0.24086,0.00000,0.00000,0.00000,51,-11,49,5,74,18,46,7,ok,2,0,0.002,9,0.74,-0.36,10.86,45,0.013,7.99
8.7936,-0.01396,0.04887,0.24086,0.00000,0.00000,0.00000,50,-11,51,6,74,15,47,8,ok,2,0,0.002,9,0.74,-0.36,10.86,45,0.026,7.99
8.8138,-0.01396,0.04887,0.24086,0.00000,0.00000,0.00000,48,-11,52,6,73,12,48,8,ok,2,0,0.002,9,0.74,-0.36,10.86,45,0.038,7.99
8.8188,-0.01396,0.04887,0.24086,0.00000,0.00000,0.00000,47,-10,53,6,73,10,49,8,ok,2,0,0.002,9,0.74,-0.36,10.86,45,0.051,7.99
8.8312,-0.01396,0.04887,0.24086,0.00000,0.00000,0.00000,46,-11,53,7,72,7,49,9,ok,2,0,0.002,9,0.74,-0.36,10.86,45,0.063,7.99
8.8538,-0.01396,0.04887,0.24086,0.00000,0.00000,0.00000,44,-11,55,7,72,5,50,8,ok,2,0,0.002,9,0.74,-0.36,10.86,45,0.076,7.99
8.8571,-0.01396,0.04887,0.24086,0.00000,0.00000,0.00000,43,-10,56,7,71,4,51,9,ok,2,0,0.002,9,0.74,-0.36,10.86,45,0.089,7.99
8.8697,-0.01396,0.04887,0.24086,0.00000,0.00000,0.00000,42,-9,57,7,69,1,52,7,ok,2,0,0.002,9,0.74,-0.36,10.86,45,0.102,7.99
8.8898,-0.01396,0.04887,0.24086,0.00000,0.00000,0.00000,40,-7,57,8,66,1,52,8,ok,2,0,0.002,9,0.74,-0.36,10.86,45,0.115,7.99
8.8949,-0.01396,0.04887,0.24086,0.00000,0.00000,0.00000,38,-6,57,8,65,-1,53,8,ok,2,0,0.002,9,0.74,-0.36,10.86,45,0.127,7.99
8.9072,-0.01396,0.04887,0.24086,0.00000,0.00000,0.00000,37,-4,58,8,64,-2,54,9,ok,2,0,0.002,9,0.74,-0.36,10.86,45,0.139,7.99
8.9298,-0.01396,0.04887,0.24086,0.00000,0.00000,0.00000,35,-2,59,9,61,-4,55,8,ok,2,0,0.002,9,0.74,-0.36,10.86,45,0.152,7.99
8.9330,-0.01396,0.04887,0.24086,0.00000,0.00000,0.00000,34,-2,60,11,60,-5,55,8,ok,2,0,0.002,9,0.74,-0.36,10.86,45,0.165,7.99
8.9457,-0.01396,0.04887,0.24086,0.00000,0.00000,0.00000,34,-1,60,10,59,-6,57,6,ok,2,0,0.002,9,0.74,-0.36,10.86,45,0.178,7.99
8.9658,0.02793,0.00524,0.25307,0.00000,0.00000,0.00000,33,2,61,11,56,-6,57,7,ok,2,0,0.002,9,0.81,-0.10,10.73,46,0.000,7.99
8.9707,0.02793,0.00524,0.25307,0.00000,0.00000,0.00000,32,5,61,11,54,-7,58,8,ok,2,0,0.002,9,0.81,-0.10,10.73,46,0.013,7.99
8.9834,0.02793,0.00524,0.25307,0.00000,0.00000,0.00000,32,8,61,12,51,-6,59,8,ok,2,0,0.002,9,0.81,-0.10,10.73,46,0.025,7.99
9.0058,0.02793,0.00524,0.25307,0.00000,0.00000,0.00000,31,10,61,12,48,-6,59,9,ok,2,0,0.002,9,0.81,-0.10,10.73,46,0.038,7.99
9.0091,0.02793,0.00524,0.25307,0.00000,0.00000,0.00000,32,11,62,12,46,-5,60,10,ok,2,0,0.002,9,0.81,-0.10,10.73,46,0.051,7.99
9.0216,0.02793,0.00524,0.25307,0.00000,0.00000,0.00000,32,11,61,13,43,-5,60,10,ok,2,0,0.002,9,0.81,-0.10,10.73,46,0.064,7.99
9.0418,0.02793,0.00524,0.25307,0.00000,0.00000,0.00000,33,10,62,13,40,-5,61,11,ok,2,0,0.002,9,0.81,-0.10,10.73,46,0.076,7.99
9.0468,0.02793,0.00524,0.25307,0.00000,0.00000,0.00000,34,9,62,14,37,-4,61,11,ok,2,0,0.002,9,0.81,-0.10,10.73,46,0.089,7.99
9.0593,0.02793,0.00524,0.25307,0.00000,0.00000,0.00000,34,9,62,15,35,-3,61,12,ok,2,0,0.002,9,0.81,-0.10,10.73,46,0.101,7.99
9.0818,0.02793,0.00524,0.25307,0.00000,0.00000,0.00000,35,8,63,15,32,-2,61,13,ok,2,0,0.002,9,0.81,-0.10,10.73,46,0.114,7.99
9.0851,0.02793,0.00524,0.25307,0.00000,0.00000,0.00000,36,7,63,16,30,0,62,14,ok,2,0,0.002,9,0.81,-0.10,10.73,46,0.127,7.99
9.0976,0.02793,0.00524,0.25307,0.00000,0.00000,0.00000,36,6,64,18,28,1,62,15,ok,2,0,0.002,9,0.81,-0.10,10.73,46,0.140,7.99
9.1178,0.02793,0.00524,0.25307,0.00000,0.00000,0.00000,37,5,64,19,25,5,63,15,ok,2,0,0.002,9,0.81,-0.10,10.73,46,0.152,7.99
9.1227,0.02793,0.00524,0.25307,0.00000,0.00000,0.00000,38,5,64,20,24,8,63,16,ok,2,0,0.002,9,0.81,-0.10,10.73,46,0.165,7.99
9.1352,0.02793,0.00524,0.25307,0.00000,0.00000,0.00000,38,4,64,22,23,11,63,17,ok,2,0,0.002,9,0.81,-0.10,10.73,46,0.177,7.99
9.1578,0.02793,0.00524,0.25307,0.00000,0.00000,0.00000,38,4,64,23,22,14,64,18,ok,2,0,0.002,9,0.81,-0.10,10.73,46,0.190,7.99
9.1614,-0.06632,0.00698,0.19548,0.00000,0.00000,0.00000,39,3,63,25,24,14,64,19,ok,2,0,0.002,9,1.10,0.92,9.92,47,0.000,7.99
9.1737,-0.06632,0.00698,0.19548,0.00000,0.00000,0.00000,40,2,63,27,24,13,64,19,ok,2,0,0.002,9,1.10,0.92,9.92,47,0.013,7.99
9.1938,-0.06632,0.00698,0.19548,0.00000,0.00000,0.00000,40,2,65,26,25,11,64,21,ok,2,0,0.002,9,1.10,0.92,9.92,47,0.025,7.99
9.1986,-0.06632,0.00698,0.19548,0.00000,0.00000,0.00000,40,1,67,23,26,10,65,21,ok,2,0,0.002,9,1.10,0.92,9.92,47,0.038,7.99
9.2112,-0.06632,0.00698,0.19548,0.00000,0.00000,0.00000,41,0,69,19,27,10,65,22,ok,2,0,0.002,9,1.10,0.92,9.92,47,0.050,7.99
9.2378,-0.06632,0.00698,0.19548,0.00000,0.00000,0.00000,42,1,71,15,28,10,65,24,ok,2,0,0.002,9,1.10,0.92,9.92,47,0.063,7.99
9.2413,-0.06632,0.00698,0.19548,0.00000,0.00000,0.00000,42,0,71,13,30,9,65,26,ok,2,0,0.002,9,1.10,0.92,9.92,47,0.080,7.99
9.2537,-0.06632,0.00698,0.19548,0.00000,0.00000,0.00000,44,1,71,13,32,9,65,26,ok,2,0,0.002,9,1.10,0.92,9.92,47,0.093,7.99
9.2738,-0.06632,0.00698,0.19548,0.00000,0.00000,0.00000,44,1,71,9,33,9,64,29,ok,2,0,0.002,9,1.10,0.92,9.92,47,0.105,7.99
9.2787,-0.06632,0.00698,0.19548,0.00000,0.00000,0.00000,45,2,70,6,35,9,64,30,ok,2,0,0.002,9,1.10,0.92,9.92,47,0.118,7.99
9.2914,-0.06632,0.00698,0.19548,0.00000,0.00000,0.00000,46,2,69,3,36,8,64,31,ok,2,0,0.002,9,1.10,0.92,9.92,47,0.130,7.99
9.3138,-0.06632,0.00698,0.19548,0.00000,0.00000,0.00000,46,2,67,0,37,9,64,33,ok,2,0,0.002,9,1.10,0.92,9.92,47,0.143,7.99
9.3172,-0.06632,0.00698,0.19548,0.00000,0.00000,0.00000,47,2,66,-2,38,8,64,34,ok,2,0,0.002,9,1.10,0.92,9.92,47,0.156,7.99
9.3297,-0.06632,0.00698,0.19548,0.00000,0.00000,0.00000,48,3,64,-3,39,8,63,36,ok,2,0,0.002,9,1.10,0.92,9.92,47,0.169,7.99
9.3498,-0.06632,0.00698,0.19548,0.00000,0.00000,0.00000,48,3,62,-4,41,7,64,36,ok,2,0,0.002,9,1.10,0.92,9.92,47,0.181,7.99
9.3547,-0.06632,0.00698,0.19548,0.00000,0.00000,0.00000,48,3,61,-6,42,7,65,35,ok,2,0,0.002,9,1.10,0.92,9.92,47,0.194,7.99
9.3676,-0.17279,0.05236,0.24086,0.00000,0.00000,0.00000,49,3,60,-8,43,7,67,33,ok,2,0,0.002,9,0.15,-0.49,10.07,48,0.000,7.99
9.3898,-0.17279,0.05236,0.24086,0.00000,0.00000,0.00000,50,3,58,-8,43,7,70,27,ok,2,0,0.002,9,0.15,-0.49,10.07,48,0.013,7.99
9.3931,-0.17279,0.05236,0.24086,0.00000,0.00000,0.00000,50,3,56,-9,44,6,71,24,ok,2,0,0.002,9,0.15,-0.49,10.07,48,0.026,7.99
9.4057,-0.17279,0.05236,0.24086,0.00000,0.00000,0.00000,50,3,53,-9,45,6,73,21,ok,2,0,0.002,9,0.15,-0.49,10.07,48,0.039,7.99
9.4258,-0.17279,0.05236,0.24086,0.00000,0.00000,0.00000,50,4,51,-10,46,6,73,21,ok,2,0,0.002,9,0.15,-0.49,10.07,48,0.051,7.99
9.4308,-0.17279,0.05236,0.24086,0.00000,0.00000,0.00000,51,5,49,-9,47,7,73,19,ok,2,0,0.002,9,0.15,-0.49,10.07,48,0.063,7.99
9.4432,-0.17279,0.05236,0.24086,0.00000,0.00000,0.00000,52,5,46,-9,48,7,73,15,ok,2,0,0.002,9,0.15,-0.49,10.07,48,0.076,7.99
9.4658,-0.17279,0.05236,0.24086,0.00000,0.00000,0.00000,52,5,44,-9,49,7,72,12,ok,2,0,0.002,9,0.15,-0.49,10.07,48,0.089,7.99
9.4691,-0.17279,0.05236,0.24086,0.00000,0.00000,0.00000,52,6,41,-9,50,7,72,11,ok,2,0,0.002,9,0.15,-0.49,10.07,48,0.102,7.99
9.4818,-0.17279,0.05236,0.24086,0.00000,0.00000,0.00000,53,6,38,-10,51,7,71,7,ok,2,0,0.002,9,0.15,-0.49,10.07,48,0.115,7.99
9.5018,-0.17279,0.05236,0.24086,0.00000,0.00000,0.00000,53,6,36,-9,52,6,71,6,ok,2,0,0.002,9,0.15,-0.49,10.07,48,0.127,7.99
9.5067,-0.17279,0.05236,0.24086,0.00000,0.00000,0.00000,54,7,33,-8,52,7,70,4,ok,2,0,0.003,9,0.15,-0.49,10.07,48,0.140,7.99
9.5192,-0.17279,0.05236,0.24086,0.00000,0.00000,0.00000,54,8,30,-7,53,7,68,2,ok,2,0,0.003,9,0.15,-0.49,10.07,48,0.152,7.99
9.5418,-0.17279,0.05236,0.24086,0.00000,0.00000,0.00000,54,8,27,-6,54,8,66,2,ok,2,0,0.003,9,0.15,-0.49,10.07,48,0.165,7.99
9.5450,-0.17279,0.05236,0.24086,0.00000,0.00000,0.00000,54,9,24,-5,55,8,65,0,ok,2,0,0.003,9,0.15,-0.49,10.07,48,0.178,7.99
9.5577,-0.17279,0.05236,0.24086,0.00000,0.00000,0.00000,55,10,20,-2,56,8,64,-2,ok,2,0,0.003,9,0.15,-0.49,10.07,48,0.191,7.99
9.5778,0.02443,0.02269,0.20769,0.00000,0.00000,0.00000,55,10,18,-1,58,6,62,-3,ok,2,0,0.003,9,0.06,0.30,10.11,49,0.000,7.99
9.5827,0.02443,0.02269,0.20769,0.00000,0.00000,0.00000,56,10,18,0,58,8,59,-4,ok,2,0,0.003,9,0.06,0.30,10.11,49,0.012,7.99
9.5952,0.02443,0.02269,0.20769,0.00000,0.00000,0.00000,56,11,16,2,59,9,57,-5,ok,2,0,0.003,9,0.06,0.30,10.11,49,0.025,7.99
9.6178,0.02443,0.02269,0.20769,0.00000,0.00000,0.00000,56,12,14,5,60,9,55,-5,ok,2,0,0.003,9,0.06,0.30,10.11,49,0.038,7.99
9.6213,0.02443,0.02269,0.20769,0.00000,0.00000,0.00000,56,13,13,8,60,9,53,-6,ok,2,0,0.003,9,0.06,0.30,10.11,49,0.051,7.99
9.6337,0.02443,0.02269,0.20769,0.00000,0.00000,0.00000,56,13,12,11,61,10,50,-5,ok,2,0,0.003,9,0.06,0.30,10.11,49,0.064,7.99
9.6538,0.02443,0.02269,0.20769,0.00000,0.00000,0.00000,56,14,14,11,61,10,47,-5,ok,2,0,0.003,9,0.06,0.30,10.11,49,0.076,7.99
9.6586,0.02443,0.02269,0.20769,0.00000,0.00000,0.00000,56,15,15,10,61,11,45,-5,ok,2,0,0.003,9,0.06,0.30,10.11,49,0.089,7.99
9.6712,0.02443,0.02269,0.20769,0.00000,0.00000,0.00000,56,15,17,9,61,11,42,-5,ok,2,0,0.003,9,0.06,0.30,10.11,49,0.101,7.99
9.6939,0.02443,0.02269,0.20769,0.00000,0.00000,0.00000,56,16,18,8,61,12,40,-5,ok,2,0,0.003,9,0.06,0.30,10.11,49,0.114,7.99
9.6978,0.02443,0.02269,0.20769,0.00000,0.00000,0.00000,56,17,19,8,61,13,37,-4,ok,2,0,0.003,10,0.06,0.30,10.11,49,0.127,7.99
9.7100,0.02443,0.02269,0.20769,0.00000,0.00000,0.00000,56,17,21,7,62,13,35,-3,ok,2,0,0.003,10,0.06,0.30,10.11,49,0.140,7.99
9.7298,0.02443,0.02269,0.20769,0.00000,0.00000,0.00000,56,17,21,7,62,14,31,-1,ok,2,0,0.003,10,0.06,0.30,10.11,49,0.152,7.99
9.7349,0.02443,0.02269,0.20769,0.00000,0.00000,0.00000,58,19,23,6,63,14,30,0,ok,2,0,0.003,10,0.06,0.30,10.11,49,0.165,7.99
9.7477,0.02443,0.02269,0.20769,0.00000,0.00000,0.00000,58,20,24,5,63,16,27,1,ok,2,0,0.003,10,0.06,0.30,10.11,49,0.177,7.99
9.7699,0.02443,0.02269,0.20769,0.00000,0.00000,0.00000,58,21,24,5,63,17,25,5,ok,2,0,0.003,10,0.06,0.30,10.11,49,0.190,7.99
9.7735,0.06981,-0.00524,0.19199,0.00000,0.00000,0.00000,58,22,25,4,63,17,24,7,ok,2,0,0.003,10,-1.03,0.45,9.44,50,0.000,7.99
9.7857,0.06981,-0.00524,0.19199,0.00000,0.00000,0.00000,58,23,26,3,64,18,23,11,ok,2,0,0.003,10,-1.03,0.45,9.44,50,0.013,7.99
9.8058,0.06981,-0.00524,0.19199,0.00000,0.00000,0.00000,57,26,27,3,64,19,22,13,ok,2,0,0.003,10,-1.03,0.45,9.44,50,0.025,7.99
9.8107,0.06981,-0.00524,0.19199,0.00000,0.00000,0.00000,57,27,28,2,64,20,24,12,ok,2,0,0.003,10,-1.03,0.45,9.44,50,0.038,7.99
9.8233,0.06981,-0.00524,0.19199,0.00000,0.00000,0.00000,58,25,29,2,64,21,24,11,ok,2,0,0.003,10,-1.03,0.45,9.44,50,0.050,7.99
9.8458,0.06981,-0.00524,0.19199,0.00000,0.00000,0.00000,58,22,30,1,65,23,25,10,ok,2,0,0.003,10,-1.03,0.45,9.44,50,0.063,7.99
9.8492,0.06981,-0.00524,0.19199,0.00000,0.00000,0.00000,60,18,31,1,64,24,26,9,ok,2,0,0.003,10,-1.03,0.45,9.44,50,0.076,7.99
9.8619,0.06981,-0.00524,0.19199,0.00000,0.00000,0.00000,60,14,33,1,64,25,28,10,ok,2,0,0.003,10,-1.03,0.45,9.44,50,0.089,7.99
9.8818,0.06981,-0.00524,0.19199,0.00000,0.00000,0.00000,60,12,34,1,65,26,29,9,ok,2,0,0.003,10,-1.03,0.45,9.44,50,0.101,7.99
9.8867,0.06981,-0.00524,0.19199,0.00000,0.00000,0.00000,60,11,36,1,64,28,30,8,ok,2,0,0.003,10,-1.03,0.45,9.44,50,0.114,7.99
9.8995,0.06981,-0.00524,0.19199,0.00000,0.00000,0.00000,60,8,37,1,64,29,32,8,ok,2,0,0.003,10,-1.03,0.45,9.44,50,0.126,7.99
9.9219,0.06981,-0.00524,0.19199,0.00000,0.00000,0.00000,60,5,39,3,64,31,33,9,ok,2,0,0.003,10,-1.03,0.45,9.44,50,0.139,7.99
9.9252,0.06981,-0.00524,0.19199,0.00000,0.00000,0.00000,60,2,40,3,64,32,34,8,ok,2,0,0.003,10,-1.03,0.45,9.44,50,0.152,7.99
9.9378,0.06981,-0.00524,0.19199,0.00000,0.00000,0.00000,59,0,42,3,64,34,36,8,ok,2,0,0.003,10,-1.03,0.45,9.44,50,0.165,7.99
9.9578,0.06981,-0.00524,0.19199,0.00000,0.00000,0.00000,58,-2,43,2,64,35,36,8,ok,2,0,0.003,10,-1.03,0.45,9.44,50,0.177,7.99
9.9628,0.06981,-0.00524,0.19199,0.00000,0.00000,0.00000,58,-4,45,3,64,36,38,8,ok,2,0,0.003,10,-1.03,0.45,9.44,50,0.190,7.99
9.9756,0.06981,-0.00524,0.19199,0.00000,0.00000,0.00000,57,-5,45,3,65,35,39,7,ok,2,0,0.003,10,-1.03,0.45,9.44,50,0.202,7.99
9.9978,-0.07854,0.00698,0.19373,0.00000,0.00000,0.00000,56,-6,46,3,67,33,40,7,ok,2,0,0.003,10,-0.60,-1.59,10.00,51,0.000,7.99
10.0012,-0.07854,0.00698,0.19373,0.00000,0.00000,0.00000,56,-8,47,3,69,28,42,7,ok,2,0,0.003,10,-0.60,-1.59,10.00,51,0.013,7.99
10.0137,-0.07854,0.00698,0.19373,0.00000,0.00000,0.00000,54,-9,49,5,71,24,43,7,ok,2,0,0.003,10,-0.60,-1.59,10.00,51,0.026,7.99
10.0418,-0.07854,0.00698,0.19373,0.00000,0.00000,0.00000,54,-11,50,4,72,21,44,7,ok,2,0,0.003,10,-0.60,-1.59,10.00,51,0.038,7.99
10.0452,-0.07854,0.00698,0.19373,0.00000,0.00000,0.00000,52,-11,50,4,73,20,45,7,ok,2,0,0.003,10,-0.60,-1.59,10.00,51,0.057,7.99
10.0577,-0.07854,0.00698,0.19373,0.00000,0.00000,0.00000,51,-12,50,6,73,18,46,7,ok,2,0,0.003,10,-0.60,-1.59,10.00,51,0.070,7.99
10.0778,-0.07854,0.00698,0.19373,0.00000,0.00000,0.00000,50,-12,51,7,73,15,47,8,ok,2,0,0.003,10,-0.60,-1.59,10.00,51,0.082,7.99
10.0830,-0.07854,0.00698,0.19373,0.00000,0.00000,0.00000,48,-12,52,7,73,12,48,8,ok,2,0,0.003,10,-0.60,-1.59,10.00,51,0.095,8.11
10.0952,-0.07854,0.00698,0.19373,0.00000,0.00000,0.00000,48,-11,53,7,72,10,49,8,ok,2,0,0.003,10,-0.60,-1.59,10.00,51,0.107,8.11
10.1178,-0.07854,0.00698,0.19373,0.00000,0.00000,0.00000,46,-12,53,8,72,6,49,9,ok,2,0,0.003,10,-0.60,-1.59,10.00,51,0.120,8.11
10.1210,-0.07854,0.00698,0.19373,0.00000,0.00000,0.00000,44,-12,56,8,71,5,50,8,ok,2,0,0.003,10,-0.60,-1.59,10.00,51,0.133,8.11
10.1337,-0.07854,0.00698,0.19373,0.00000,0.00000,0.00000,43,-10,56,7,70,4,51,9,ok,2,0,0.003,10,-0.60,-1.59,10.00,51,0.146,8.11
10.1538,-0.07854,0.00698,0.19373,0.00000,0.00000,0.00000,42,-8,57,7,69,1,52,8,ok,2,0,0.003,10,-0.60,-1.59,10.00,51,0.158,8.11
10.1587,-0.07854,0.00698,0.19373,0.00000,0.00000,0.00000,40,-7,57,8,66,1,52,9,ok,2,0,0.003,10,-0.60,-1.59,10.00,51,0.171,8.11
10.1712,-0.07854,0.00698,0.19373,0.00000,0.00000,0.00000,38,-6,58,8,65,-1,53,9,ok,2,0,0.003,10,-0.60,-1.59,10.00,51,0.183,8.11
10.1938,0.04887,0.05411,0.19373,0.00000,0.00000,0.00000,37,-4,58,8,63,-3,54,9,ok,2,0,0.003,10,-0.29,0.74,9.41,52,0.000,8.11
10.1970,0.04887,0.05411,0.19373,0.00000,0.00000,0.00000,35,-1,59,9,62,-4,55,9,ok,2,0,0.003,10,-0.29,0.74,9.41,52,0.013,8.11
10.2097,0.04887,0.05411,0.19373,0.00000,0.00000,0.00000,34,-1,60,10,61,-5,54,8,ok,2,0,0.003,10,-0.29,0.74,9.41,52,0.026,8.11
10.2298,0.04887,0.05411,0.19373,0.00000,0.00000,0.00000,34,1,60,10,59,-5,56,6,ok,2,0,0.003,10,-0.29,0.74,9.41,52,0.039,8.11
10.2349,0.04887,0.05411,0.19373,0.00000,0.00000,0.00000,33,3,61,11,56,-6,56,7,ok,2,0,0.003,10,-0.29,0.74,9.41,52,0.051,8.11
10.2472,0.04887,0.05411,0.19373,0.00000,0.00000,0.00000,32,6,61,10,54,-7,57,8,ok,2,0,0.003,10,-0.29,0.74,9.41,52,0.064,8.11
10.2698,0.04887,0.05411,0.19373,0.00000,0.00000,0.00000,32,9,61,11,51,-6,58,8,ok,2,0,0.003,10,-0.29,0.74,9.41,52,0.076,8.11
10.2730,0.04887,0.05411,0.19373,0.00000,0.00000,0.00000,31,12,61,11,48,-6,58,8,ok,2,0,0.003,10,-0.29,0.74,9.41,52,0.089,8.11
10.2859,0.04887,0.05411,0.19373,0.00000,0.00000,0.00000,32,12,61,12,46,-6,60,9,ok,2,0,0.003,10,-0.29,0.74,9.41,52,0.102,8.11
10.3058,0.04887,0.05411,0.19373,0.00000,0.00000,0.00000,32,12,61,13,43,-5,59,10,ok,2,0,0.003,10,-0.29,0.74,9.41,52,0.115,8.11
10.3107,0.04887,0.05411,0.19373,0.00000,0.00000,0.00000,33,10,62,13,40,-5,60,11,ok,2,0,0.003,10,-0.29,0.74,9.41,52,0.127,8.11
10.3231,0.04887,0.05411,0.19373,0.00000,0.00000,0.00000,34,9,61,14,38,-4,61,11,ok,2,0,0.003,10,-0.29,0.74,9.41,52,0.140,8.11
10.3458,0.04887,0.05411,0.19373,0.00000,0.00000,0.00000,34,8,62,15,35,-3,61,12,ok,2,0,0.003,10,-0.29,0.74,9.41,52,0.152,8.11
10.3490,0.04887,0.05411,0.19373,0.00000,0.00000,0.00000,35,7,62,16,31,-1,61,12,ok,2,0,0.003,10,-0.29,0.74,9.41,52,0.165,8.11
10.3619,0.04887,0.05411,0.19373,0.00000,0.00000,0.00000,35,7,62,17,30,0,62,13,ok,2,0,0.003,10,-0.29,0.74,9.41,52,0.178,8.11
10.3818,0.04887,0.05411,0.19373,0.00000,0.00000,0.00000,36,6,64,18,28,2,62,14,ok,2,0,0.003,10,-0.29,0.74,9.41,52,0.191,8.11
10.3871,0.01396,0.05934,0.13265,0.00000,0.00000,0.00000,36,5,64,19,25,5,63,15,ok,2,0,0.003,10,1.09,1.44,7.92,53,0.000,8.11
10.3992,0.01396,0.05934,0.13265,0.00000,0.00000,0.00000,37,4,64,20,24,8,63,16,ok,2,0,0.003,10,1.09,1.44,7.92,53,0.013,8.11
10.4218,0.01396,0.05934,0.13265,0.00000,0.00000,0.00000,38,4,64,22,23,11,63,17,ok,2,0,0.003,10,1.09,1.44,7.92,53,0.025,8.11
10.4250,0.01396,0.05934,0.13265,0.00000,0.00000,0.00000,38,3,64,23,22,14,64,18,ok,2,0,0.003,10,1.09,1.44,7.92,53,0.038,8.11
10.4377,0.01396,0.05934,0.13265,0.00000,0.00000,0.00000,38,3,63,26,24,13,64,18,ok,2,0,0.003,10,1.09,1.44,7.92,53,0.051,8.11
10.4578,0.01396,0.05934,0.13265,0.00000,0.00000,0.00000,39,2,63,27,24,13,64,19,ok,2,0,0.003,10,1.09,1.44,7.92,53,0.064,8.11
10.4627,0.01396,0.05934,0.13265,0.00000,0.00000,0.00000,40,2,64,26,25,11,64,20,ok,2,0,0.003,10,1.09,1.44,7.92,53,0.076,8.11
10.4751,0.01396,0.05934,0.13265,0.00000,0.00000,0.00000,40,1,67,23,26,11,65,21,ok,2,0,0.003,10,1.09,1.44,7.92,53,0.089,8.11
10.4978,0.01396,0.05934,0.13265,0.00000,0.00000,0.00000,41,1,69,19,28,11,65,22,ok,2,0,0.003,10,1.09,1.44,7.92,53,0.101,8.11
10.5011,0.01396,0.05934,0.13265,0.00000,0.00000,0.00000,42,1,70,15,29,10,65,23,ok,2,0,0.003,10,1.09,1.44,7.92,53,0.114,8.11
10.5137,0.01396,0.05934,0.13265,0.00000,0.00000,0.00000,42,1,71,13,30,9,65,25,ok,2,0,0.003,10,1.09,1.44,7.92,53,0.127,8.11
10.5338,0.01396,0.05934,0.13265,0.00000,0.00000,0.00000,44,1,70,12,33,9,65,26,ok,2,0,0.003,10,1.09,1.44,7.92,53,0.140,8.11
10.5387,0.01396,0.05934,0.13265,0.00000,0.00000,0.00000,44,1,70,8,33,9,64,28,ok,2,0,0.003,10,1.09,1.44,7.92,53,0.152,8.11
10.5513,0.01396,0.05934,0.13265,0.00000,0.00000,0.00000,45,2,69,5,35,9,64,30,ok,2,0,0.003,10,1.09,1.44,7.92,53,0.165,8.11
10.5738,0.01396,0.05934,0.13265,0.00000,0.00000,0.00000,46,2,69,3,37,8,64,31,ok,2,0,0.003,10,1.09,1.44,7.92,53,0.177,8.11
10.5771,0.01396,0.05934,0.13265,0.00000,0.00000,0.00000,46,2,67,0,38,9,64,32,ok,2,0,0.003,10,1.09,1.44,7.92,53,0.190,8.11
10.5901,-0.15882,0.04014,0.15708,0.00000,0.00000,0.00000,46,2,66,-2,39,8,64,34,ok,2,0,0.003,10,-0.08,-2.05,8.98,54,0.000,8.11
10.6098,-0.15882,0.04014,0.15708,0.00000,0.00000,0.00000,48,2,64,-3,39,7,64,35,ok,2,0,0.003,10,-0.08,-2.05,8.98,54,0.013,8.11
10.6147,-0.15882,0.04014,0.15708,0.00000,0.00000,0.00000,48,2,62,-4,40,6,65,36,ok,2,0,0.003,10,-0.08,-2.05,8.98,54,0.025,8.11
10.6272,-0.15882,0.04014,0.15708,0.00000,0.00000,0.00000,48,2,61,-5,42,6,66,35,ok,2,0,0.003,10,-0.08,-2.05,8.98,54,0.038,8.11
10.6498,-0.15882,0.04014,0.15708,0.00000,0.00000,0.00000,48,2,60,-7,43,6,68,32,ok,2,0,0.003,10,-0.08,-2.05,8.98,54,0.050,8.11
10.6530,-0.15882,0.04014,0.15708,0.00000,0.00000,0.00000,50,2,57,-7,43,7,70,27,ok,2,0,0.003,10,-0.08,-2.05,8.98,54,0.063,8.11
10.6659,-0.15882,0.04014,0.15708,0.00000,0.00000,0.00000,50,2,55,-8,44,7,71,24,ok,2,0,0.003,10,-0.08,-2.05,8.98,54,0.076,8.11
10.6859,-0.15882,0.04014,0.15708,0.00000,0.00000,0.00000,50,1,53,-8,46,7,73,21,ok,2,0,0.003,10,-0.08,-2.05,8.98,54,0.088,8.11
10.6907,-0.15882,0.04014,0.15708,0.00000,0.00000,0.00000,50,4,51,-9,47,7,73,21,ok,2,0,0.003,10,-0.08,-2.05,8.98,54,0.101,8.11
10.7034,-0.15882,0.04014,0.15708,0.00000,0.00000,0.00000,51,4,49,-9,48,7,73,19,ok,2,0,0.003,10,-0.08,-2.05,8.98,54,0.113,8.11
10.7258,-0.15882,0.04014,0.15708,0.00000,0.00000,0.00000,51,4,46,-10,49,7,73,15,ok,2,0,0.003,11,-0.08,-2.05,8.98,54,0.126,8.11
10.7290,-0.15882,0.04014,0.15708,0.00000,0.00000,0.00000,52,5,44,-9,49,7,72,12,ok,2,0,0.003,11,-0.08,-2.05,8.98,54,0.139,8.11
10.7417,-0.15882,0.04014,0.15708,0.00000,0.00000,0.00000,52,7,41,-10,50,7,72,11,ok,2,0,0.003,11,-0.08,-2.05,8.98,54,0.152,8.11
10.7618,-0.15882,0.04014,0.15708,0.00000,0.00000,0.00000,53,7,39,-10,51,7,71,7,ok,2,0,0.003,11,-0.08,-2.05,8.98,54,0.164,8.11
10.7667,-0.15882,0.04014,0.15708,0.00000,0.00000,0.00000,53,7,36,-9,52,6,71,6,ok,2,0,0.003,11,-0.08,-2.05,8.98,54,0.177,8.11
10.7794,-0.15882,0.04014,0.15708,0.00000,0.00000,0.00000,54,7,33,-9,52,7,70,4,ok,2,0,0.003,11,-0.08,-2.05,8.98,54,0.190,8.11
10.8018,-0.06109,0.00000,0.15533,0.00000,0.00000,0.00000,54,8,30,-7,53,7,68,2,ok,2,0,0.003,11,0.11,-0.36,10.32,55,0.000,8.11
10.8050,-0.06109,0.00000,0.15533,0.00000,0.00000,0.00000,54,8,27,-7,54,8,66,2,ok,2,0,0.003,11,0.11,-0.36,10.32,55,0.013,8.11
10.8178,-0.06109,0.00000,0.15533,0.00000,0.00000,0.00000,54,9,24,-5,55,8,65,0,ok,2,0,0.003,11,0.11,-0.36,10.32,55,0.026,8.11
10.8378,-0.06109,0.00000,0.15533,0.00000,0.00000,0.00000,55,10,20,-3,56,8,64,-2,ok,2,0,0.003,11,0.11,-0.36,10.32,55,0.039,8.11
10.8427,-0.06109,0.00000,0.15533,0.00000,0.00000,0.00000,55,10,19,-1,58,6,62,-3,ok,2,0,0.003,11,0.11,-0.36,10.32,55,0.051,8.11
10.8552,-0.06109,0.00000,0.15533,0.00000,0.00000,0.00000,56,10,18,0,58,7,59,-4,ok,2,0,0.003,11,0.11,-0.36,10.32,55,0.064,8.11
10.8778,-0.06109,0.00000,0.15533,0.00000,0.00000,0.00000,56,11,16,2,59,8,58,-5,ok,2,0,0.003,11,0.11,-0.36,10.32,55,0.076,8.11
10.8810,-0.06109,0.00000,0.15533,0.00000,0.00000,0.00000,56,12,15,5,59,8,55,-6,ok,2,0,0.003,11,0.11,-0.36,10.32,55,0.089,8.11
10.8937,-0.06109,0.00000,0.15533,0.00000,0.00000,0.00000,56,13,13,9,60,9,53,-6,ok,2,0,0.003,11,0.11,-0.36,10.32,55,0.102,8.11
10.9138,-0.06109,0.00000,0.15533,0.00000,0.00000,0.00000,56,13,13,11,60,9,50,-5,ok,2,0,0.003,11,0.11,-0.36,10.32,55,0.114,8.11
10.9187,-0.06109,0.00000,0.15533,0.00000,0.00000,0.00000,56,14,14,11,60,9,48,-5,ok,2,0,0.003,11,0.11,-0.36,10.32,55,0.127,8.11
10.9312,-0.06109,0.00000,0.15533,0.00000,0.00000,0.00000,56,14,15,11,61,10,45,-5,ok,2,0,0.003,11,0.11,-0.36,10.32,55,0.140,8.11
10.9538,-0.06109,0.00000,0.15533,0.00000,0.00000,0.00000,56,14,17,10,61,11,42,-4,ok,2,0,0.003,11,0.11,-0.36,10.32,55,0.152,8.11
10.9573,-0.06109,0.00000,0.15533,0.00000,0.00000,0.00000,56,15,19,9,61,12,40,-4,ok,2,0,0.003,11,0.11,-0.36,10.32,55,0.165,8.11
10.9698,-0.06109,0.00000,0.15533,0.00000,0.00000,0.00000,56,16,19,9,61,12,37,-3,ok,2,0,0.003,11,0.11,-0.36,10.32,55,0.178,8.11
10.9898,-0.06109,0.00000,0.15533,0.00000,0.00000,0.00000,56,16,21,8,62,13,35,-3,ok,2,0,0.003,11,0.11,-0.36,10.32,55,0.191,8.11
10.9950,-0.06109,0.00000,0.15533,0.00000,0.00000,0.00000,56,18,21,7,62,14,31,-1,ok,2,0,0.003,11,0.11,-0.36,10.32,55,0.203,8.11
11.0075,-0.02094,0.10996,0.12392,0.00000,0.00000,0.00000,58,19,23,6,63,14,30,0,ok,2,0,0.003,11,1.68,-0.99,9.86,56,0.000,8.11
11.0298,-0.02094,0.10996,0.12392,0.00000,0.00000,0.00000,58,20,24,5,62,15,27,2,ok,2,0,0.003,11,1.68,-0.99,9.86,56,0.012,8.11
11.0332,-0.02094,0.10996,0.12392,0.00000,0.00000,0.00000,58,21,24,5,62,16,25,5,ok,2,0,0.003,11,1.68,-0.99,9.86,56,0.026,8.11
11.0457,-0.02094,0.10996,0.12392,0.00000,0.00000,0.00000,58,22,25,4,63,17,24,7,ok,2,0,0.003,11,1.68,-0.99,9.86,56,0.038,8.11
11.0658,-0.02094,0.10996,0.12392,0.00000,0.00000,0.00000,58,23,25,3,64,17,23,11,ok,2,0,0.003,11,1.68,-0.99,9.86,56,0.051,8.11
11.0707,-0.02094,0.10996,0.12392,0.00000,0.00000,0.00000,57,26,26,3,64,18,22,13,ok,2,0,0.003,11,1.68,-0.99,9.86,56,0.063,8.11
11.0831,-0.02094,0.10996,0.12392,0.00000,0.00000,0.00000,57,27,27,2,64,20,24,12,ok,2,0,0.003,11,1.68,-0.99,9.86,56,0.076,8.11
11.1058,-0.02094,0.10996,0.12392,0.00000,0.00000,0.00000,58,25,28,2,64,21,25,12,ok,2,0,0.003,11,1.68,-0.99,9.86,56,0.088,8.11
11.1093,-0.02094,0.10996,0.12392,0.00000,0.00000,0.00000,58,21,29,2,65,22,26,10,ok,2,0,0.003,11,1.68,-0.99,9.86,56,0.102,8.11
11.1218,-0.02094,0.10996,0.12392,0.00000,0.00000,0.00000,60,18,30,1,64,23,27,9,ok,2,0,0.003,11,1.68,-0.99,9.86,56,0.114,8.11
11.1418,-0.02094,0.10996,0.12392,0.00000,0.00000,0.00000,60,13,32,2,64,25,28,10,ok,2,0,0.003,11,1.68,-0.99,9.86,56,0.127,8.11
11.1468,-0.02094,0.10996,0.12392,0.00000,0.00000,0.00000,60,11,33,2,65,25,29,9,ok,2,0,0.003,11,1.68,-0.99,9.86,56,0.139,8.11
11.1592,-0.02094,0.10996,0.12392,0.00000,0.00000,0.00000,60,10,35,2,64,28,31,9,ok,2,0,0.003,11,1.68,-0.99,9.86,56,0.152,8.11
11.1818,-0.02094,0.10996,0.12392,0.00000,0.00000,0.00000,60,7,36,2,64,29,33,9,ok,2,0,0.003,11,1.68,-0.99,9.86,56,0.164,8.11
11.1852,-0.02094,0.10996,0.12392,0.00000,0.00000,0.00000,60,4,38,3,64,30,33,9,ok,2,0,0.003,11,1.68,-0.99,9.86,56,0.178,8.11
11.1981,-0.09425,0.00698,0.17279,0.00000,0.00000,0.00000,59,2,39,3,65,32,35,8,ok,2,0,0.003,11,-1.09,-0.06,8.75,57,0.000,8.11
11.2178,-0.09425,0.00698,0.17279,0.00000,0.00000,0.00000,59,-1,41,3,64,34,37,8,ok,2,0,0.003,11,-1.09,-0.06,8.75,57,0.013,8.11
11.2227,-0.09425,0.00698,0.17279,0.00000,0.00000,0.00000,58,-3,42,2,64,35,37,8,ok,2,0,0.003,11,-1.09,-0.06,8.75,57,0.025,8.11
11.2353,-0.09425,0.00698,0.17279,0.00000,0.00000,0.00000,58,-4,43,2,65,35,39,8,ok,2,0,0.003,11,-1.09,-0.06,8.75,57,0.038,8.11
11.2578,-0.09425,0.00698,0.17279,0.00000,0.00000,0.00000,56,-5,44,3,66,35,40,8,ok,2,0,0.003,11,-1.09,-0.06,8.75,57,0.050,8.11
11.2610,-0.09425,0.00698,0.17279,0.00000,0.00000,0.00000,56,-7,45,3,67,33,41,7,ok,2,0,0.003,11,-1.09,-0.06,8.75,57,0.063,8.11
11.2737,-0.09425,0.00698,0.17279,0.00000,0.00000,0.00000,56,-9,46,3,69,28,42,7,ok,2,0,0.003,11,-1.09,-0.06,8.75,57,0.076,8.11
11.2938,-0.09425,0.00698,0.17279,0.00000,0.00000,0.00000,54,-9,48,4,71,24,44,7,ok,2,0,0.003,11,-1.09,-0.06,8.75,57,0.089,8.11
11.2987,-0.09425,0.00698,0.17279,0.00000,0.00000,0.00000,54,-10,49,4,73,21,44,7,ok,2,0,0.003,11,-1.09,-0.06,8.75,57,0.101,8.11
11.3113,-0.09425,0.00698,0.17279,0.00000,0.00000,0.00000,52,-11,50,4,74,20,45,7,ok,2,0,0.003,11,-1.09,-0.06,8.75,57,0.114,8.11
11.3338,-0.09425,0.00698,0.17279,0.00000,0.00000,0.00000,51,-11,50,6,74,18,46,7,ok,2,0,0.003,11,-1.09,-0.06,8.75,57,0.126,8.11
11.3372,-0.09425,0.00698,0.17279,0.00000,0.00000,0.00000,50,-11,51,6,74,14,47,8,ok,2,0,0.003,11,-1.09,-0.06,8.75,57,0.139,8.11
11.3497,-0.09425,0.00698,0.17279,0.00000,0.00000,0.00000,48,-11,52,6,73,11,48,8,ok,2,0,0.003,11,-1.09,-0.06,8.75,57,0.152,8.11
11.3698,-0.09425,0.00698,0.17279,0.00000,0.00000,0.00000,48,-10,53,6,73,10,49,8,ok,2,0,0.003,11,-1.09,-0.06,8.75,57,0.165,8.11
11.3747,-0.09425,0.00698,0.17279,0.00000,0.00000,0.00000,46,-10,53,7,72,6,49,9,ok,2,0,0.003,11,-1.09,-0.06,8.75,57,0.177,8.11
11.3871,-0.09425,0.00698,0.17279,0.00000,0.00000,0.00000,44,-11,56,7,72,5,50,8,ok,2,0,0.003,11,-1.09,-0.06,8.75,57,0.190,8.11
11.4098,-0.09425,0.00698,0.17279,0.00000,0.00000,0.00000,44,-10,56,7,71,3,51,9,ok,2,0,0.003,11,-1.09,-0.06,8.75,57,0.202,8.11
11.4134,0.02793,0.01396,0.18500,0.00000,0.00000,0.00000,42,-8,57,7,69,1,52,8,ok,2,0,0.003,11,0.93,0.62,9.40,58,0.000,8.11
11.4259,0.02793,0.01396,0.18500,0.00000,0.00000,0.00000,40,-7,57,8,66,2,52,8,ok,2,0,0.003,11,0.93,0.62,9.40,58,0.013,8.11
11.4458,0.02793,0.01396,0.18500,0.00000,0.00000,0.00000,38,-5,58,7,65,-1,52,9,ok,2,0,0.003,11,0.93,0.62,9.40,58,0.025,8.11
11.4507,0.02793,0.01396,0.18500,0.00000,0.00000,0.00000,37,-3,58,8,64,-2,53,9,ok,2,0,0.003,11,0.93,0.62,9.40,58,0.038,8.11
11.4632,0.02793,0.01396,0.18500,0.00000,0.00000,0.00000,35,-1,59,9,62,-4,54,9,ok,2,0,0.003,11,0.93,0.62,9.40,58,0.050,8.11
11.4859,0.02793,0.01396,0.18500,0.00000,0.00000,0.00000,34,0,60,10,61,-5,54,8,ok,2,0,0.003,11,0.93,0.62,9.40,58,0.063,8.11
11.4890,0.02793,0.01396,0.18500,0.00000,0.00000,0.00000,34,1,61,9,59,-6,56,6,ok,2,0,0.003,11,0.93,0.62,9.40,58,0.076,8.11
11.5017,0.02793,0.01396,0.18500,0.00000,0.00000,0.00000,33,3,61,10,56,-6,57,7,ok,2,0,0.003,11,0.93,0.62,9.40,58,0.089,8.11
11.5218,0.02793,0.01396,0.18500,0.00000,0.00000,0.00000,32,6,61,10,54,-7,58,8,ok,2,0,0.003,11,0.93,0.62,9.40,58,0.101,8.11
11.5267,0.02793,0.01396,0.18500,0.00000,0.00000,0.00000,32,9,61,11,51,-7,58,8,ok,2,0,0.003,11,0.93,0.62,9.40,58,0.114,8.11
11.5394,0.02793,0.01396,0.18500,0.00000,0.00000,0.00000,31,11,61,11,48,-6,59,9,ok,2,0,0.003,11,0.93,0.62,9.40,58,0.126,8.11
11.5618,0.02793,0.01396,0.18500,0.00000,0.00000,0.00000,32,11,61,12,46,-6,60,10,ok,2,0,0.003,11,0.93,0.62,9.40,58,0.139,8.11
11.5650,0.02793,0.01396,0.18500,0.00000,0.00000,0.00000,32,11,61,13,43,-5,60,10,ok,2,0,0.003,11,0.93,0.62,9.40,58,0.152,8.11
11.5779,0.02793,0.01396,0.18500,0.00000,0.00000,0.00000,33,10,62,14,40,-5,60,11,ok,2,0,0.003,11,0.93,0.62,9.40,58,0.165,8.11
11.5978,0.02793,0.01396,0.18500,0.00000,0.00000,0.00000,34,9,62,14,37,-4,61,11,ok,2,0,0.003,11,0.93,0.62,9.40,58,0.177,8.11
11.6027,0.02793,0.01396,0.18500,0.00000,0.00000,0.00000,34,8,62,15,35,-3,61,13,ok,2,0,0.003,11,0.93,0.62,9.40,58,0.190,8.11
11.6155,-0.04014,0.06283,0.15882,0.00000,0.00000,0.00000,35,7,63,16,32,-2,61,13,ok,2,0,0.003,11,1.29,0.74,10.01,59,0.000,8.11
11.6378,-0.04014,0.06283,0.15882,0.00000,0.00000,0.00000,36,7,63,17,29,-1,62,14,ok,2,0,0.003,11,1.29,0.74,10.01,59,0.012,8.11
11.6410,-0.04014,0.06283,0.15882,0.00000,0.00000,0.00000,36,6,64,18,27,1,62,15,ok,2,0,0.003,11,1.29,0.74,10.01,59,0.026,8.11
11.6537,-0.04014,0.06283,0.15882,0.00000,0.00000,0.00000,37,5,64,20,25,4,63,15,ok,2,0,0.003,11,1.29,0.74,10.01,59,0.039,8.11
11.6738,-0.04014,0.06283,0.15882,0.00000,0.00000,0.00000,38,4,64,21,24,7,63,16,ok,2,0,0.003,11,1.29,0.74,10.01,59,0.051,8.11
11.6787,-0.04014,0.06283,0.15882,0.00000,0.00000,0.00000,38,3,64,22,23,11,63,18,ok,2,0,0.003,11,1.29,0.74,10.01,59,0.064,8.11
11.6912,-0.04014,0.06283,0.15882,0.00000,0.00000,0.00000,38,3,64,23,22,14,64,18,ok,2,0,0.003,11,1.29,0.74,10.01,59,0.076,8.11
11.7139,-0.04014,0.06283,0.15882,0.00000,0.00000,0.00000,38,2,63,26,24,13,64,19,ok,2,0,0.003,11,1.29,0.74,10.01,59,0.089,8.11
11.7173,-0.04014,0.06283,0.15882,0.00000,0.00000,0.00000,39,2,63,28,24,13,64,20,ok,2,0,0.003,11,1.29,0.74,10.01,59,0.102,8.11
11.7298,-0.04014,0.06283,0.15882,0.00000,0.00000,0.00000,40,1,64,26,25,11,64,21,ok,2,0,0.003,12,1.29,0.74,10.01,59,0.115,8.11
11.7498,-0.04014,0.06283,0.15882,0.00000,0.00000,0.00000,40,1,67,23,27,10,65,22,ok,2,0,0.003,12,1.29,0.74,10.01,59,0.127,8.11
11.7547,-0.04014,0.06283,0.15882,0.00000,0.00000,0.00000,41,1,69,19,28,10,65,23,ok,2,0,0.003,12,1.29,0.74,10.01,59,0.140,8.11
11.7672,-0.04014,0.06283,0.15882,0.00000,0.00000,0.00000,42,1,70,15,29,10,65,24,ok,2,0,0.003,12,1.29,0.74,10.01,59,0.152,8.11
11.7898,-0.04014,0.06283,0.15882,0.00000,0.00000,0.00000,42,1,70,12,30,9,65,26,ok,2,0,0.003,12,1.29,0.74,10.01,59,0.165,8.11
11.7932,-0.04014,0.06283,0.15882,0.00000,0.00000,0.00000,44,1,70,12,33,9,65,26,ok,2,0,0.003,12,1.29,0.74,10.01,59,0.178,8.11
11.8058,-0.04014,0.06283,0.15882,0.00000,0.00000,0.00000,44,1,70,8,33,9,64,29,ok,2,0,0.003,12,1.29,0.74,10.01,59,0.191,8.11
11.8258,-0.13788,-0.00349,0.16232,0.00000,0.00000,0.00000,45,2,69,5,35,9,64,30,ok,2,0,0.003,12,-0.16,-1.83,9.14,60,0.000,8.11
11.8309,-0.13788,-0.00349,0.16232,0.00000,0.00000,0.00000,46,2,68,3,37,8,65,31,ok,2,0,0.003,12,-0.16,-1.83,9.14,60,0.012,8.11
11.8432,-0.13788,-0.00349,0.16232,0.00000,0.00000,0.00000,46,2,67,0,38,8,64,33,ok,2,0,0.003,12,-0.16,-1.83,9.14,60,0.025,8.11
11.8658,-0.13788,-0.00349,0.16232,0.00000,0.00000,0.00000,47,1,66,-2,39,7,64,34,ok,2,0,0.003,12,-0.16,-1.83,9.14,60,0.038,8.11
11.8690,-0.13788,-0.00349,0.16232,0.00000,0.00000,0.00000,48,2,64,-3,39,8,64,36,ok,2,0,0.003,12,-0.16,-1.83,9.14,60,0.051,8.11
11.8817,-0.13788,-0.00349,0.16232,0.00000,0.00000,0.00000,48,2,62,-4,41,7,65,36,ok,2,0,0.003,12,-0.16,-1.83,9.14,60,0.063,8.11
11.9018,-0.13788,-0.00349,0.16232,0.00000,0.00000,0.00000,48,2,61,-5,42,7,66,35,ok,2,0,0.003,12,-0.16,-1.83,9.14,60,0.076,8.11
11.9067,-0.13788,-0.00349,0.16232,0.00000,0.00000,0.00000,49,2,60,-7,43,7,68,33,ok,2,0,0.003,12,-0.16,-1.83,9.14,60,0.088,8.11
11.9192,-0.13788,-0.00349,0.16232,0.00000,0.00000,0.00000,50,3,58,-8,44,7,69,28,ok,2,0,0.003,12,-0.16,-1.83,9.14,60,0.101,8.11
11.9418,-0.13788,-0.00349,0.16232,0.00000,0.00000,0.00000,50,3,56,-9,45,7,71,24,ok,2,0,0.003,12,-0.16,-1.83,9.14,60,0.113,8.11
11.9452,-0.13788,-0.00349,0.16232,0.00000,0.00000,0.00000,50,3,53,-9,46,7,72,21,ok,2,0,0.003,12,-0.16,-1.83,9.14,60,0.127,8.11
11.9577,-0.13788,-0.00349,0.16232,0.00000,0.00000,0.00000,50,5,51,-10,47,7,72,21,ok,2,0,0.003,12,-0.16,-1.83,9.14,60,0.139,8.11
11.9778,-0.13788,-0.00349,0.16232,0.00000,0.00000,0.00000,51,6,49,-10,47,7,72,19,ok,2,0,0.003,12,-0.16,-1.83,9.14,60,0.152,8.11
11.9827,-0.13788,-0.00349,0.16232,0.00000,0.00000,0.00000,52,6,46,-10,48,7,72,15,ok,2,0,0.003,12,-0.16,-1.83,9.14,60,0.164,8.11
11.9953,-0.13788,-0.00349,0.16232,0.00000,0.00000,0.00000,52,6,44,-10,49,7,72,13,ok,2,0,0.003,12,-0.16,-1.83,9.14,60,0.177,8.11
12.0218,-0.13788,-0.00349,0.16232,0.00000,0.00000,0.00000,52,7,41,-10,50,7,71,11,ok,2,0,0.003,12,-0.16,-1.83,9.14,60,0.189,8.11
12.0254,-0.09250,-0.04014,0.19024,0.00000,0.00000,0.00000,54,7,39,-10,51,7,71,7,ok,2,0,0.003,12,-0.79,-1.20,9.30,61,0.000,8.11
12.0378,-0.09250,-0.04014,0.19024,0.00000,0.00000,0.00000,54,7,37,-10,52,6,70,6,ok,2,0,0.003,12,-0.79,-1.20,9.30,61,0.013,8.11
12.0578,-0.09250,-0.04014,0.19024,0.00000,0.00000,0.00000,54,7,33,-9,52,7,70,4,ok,2,0,0.003,12,-0.79,-1.20,9.30,61,0.025,8.11
12.0629,-0.09250,-0.04014,0.19024,0.00000,0.00000,0.00000,54,8,31,-8,53,7,68,2,ok,2,0,0.003,12,-0.79,-1.20,9.30,61,0.038,8.11
12.0752,-0.09250,-0.04014,0.19024,0.00000,0.00000,0.00000,54,8,27,-7,54,8,66,2,ok,2,0,0.003,12,-0.79,-1.20,9.30,61,0.050,8.11
12.0978,-0.09250,-0.04014,0.19024,0.00000,0.00000,0.00000,55,9,25,-5,55,8,65,0,ok,2,0,0.003,12,-0.79,-1.20,9.30,61,0.063,8.11
12.1010,-0.09250,-0.04014,0.19024,0.00000,0.00000,0.00000,56,10,21,-2,56,8,64,-1,ok,2,0,0.003,12,-0.79,-1.20,9.30,61,0.076,8.11
12.1137,-0.09250,-0.04014,0.19024,0.00000,0.00000,0.00000,56,10,19,-1,58,6,61,-3,ok,2,0,0.003,12,-0.79,-1.20,9.30,61,0.089,8.11
12.1338,-0.09250,-0.04014,0.19024,0.00000,0.00000,0.00000,56,10,19,0,58,7,59,-4,ok,2,0,0.003,12,-0.79,-1.20,9.30,61,0.101,8.11
12.1390,-0.09250,-0.04014,0.19024,0.00000,0.00000,0.00000,56,11,16,3,59,8,58,-4,ok,2,0,0.003,12,-0.79,-1.20,9.30,61,0.114,8.11
12.1512,-0.09250,-0.04014,0.19024,0.00000,0.00000,0.00000,56,11,15,6,59,8,55,-5,ok,2,0,0.003,12,-0.79,-1.20,9.30,61,0.126,8.11
12.1738,-0.09250,-0.04014,0.19024,0.00000,0.00000,0.00000,56,12,13,9,59,9,53,-6,ok,2,0,0.003,12,-0.79,-1.20,9.30,61,0.139,8.11
12.1770,-0.09250,-0.04014,0.19024,0.00000,0.00000,0.00000,56,12,13,12,60,9,50,-5,ok,2,0,0.003,12,-0.79,-1.20,9.30,61,0.152,8.11
12.1899,-0.09250,-0.04014,0.19024,0.00000,0.00000,0.00000,56,13,15,12,60,9,47,-5,ok,2,0,0.003,12,-0.79,-1.20,9.30,61,0.165,8.11
12.2098,-0.09250,-0.04014,0.19024,0.00000,0.00000,0.00000,56,14,16,11,61,10,45,-5,ok,2,0,0.003,12,-0.79,-1.20,9.30,61,0.177,8.11
12.2147,-0.09250,-0.04014,0.19024,0.00000,0.00000,0.00000,56,14,17,10,61,10,42,-4,ok,2,0,0.003,12,-0.79,-1.20,9.30,61,0.190,8.11
12.2275,0.02269,0.09774,0.12741,0.00000,0.00000,0.00000,56,15,19,9,61,12,40,-4,ok,2,0,0.003,12,-0.34,0.82,10.96,62,0.000,8.11
12.2498,0.02269,0.09774,0.12741,0.00000,0.00000,0.00000,56,16,20,9,61,12,36,-3,ok,2,0,0.003,12,-0.34,0.82,10.96,62,0.012,8.11
12.2530,0.02269,0.09774,0.12741,0.00000,0.00000,0.00000,56,17,21,8,61,13,34,-3,ok,2,0,0.003,12,-0.34,0.82,10.96,62,0.026,8.11
12.2657,0.02269,0.09774,0.12741,0.00000,0.00000,0.00000,56,18,21,8,62,14,30,-1,ok,2,0,0.003,12,-0.34,0.82,10.96,62,0.038,8.11
12.2858,0.02269,0.09774,0.12741,0.00000,0.00000,0.00000,58,20,23,6,63,14,29,0,ok,2,0,0.003,12,-0.34,0.82,10.96,62,0.051,8.11
12.2907,0.02269,0.09774,0.12741,0.00000,0.00000,0.00000,58,21,24,5,63,15,26,2,ok,2,0,0.003,12,-0.34,0.82,10.96,62,0.063,8.11
12.3031,0.02269,0.09774,0.12741,0.00000,0.00000,0.00000,58,21,24,4,63,16,25,5,ok,2,0,0.003,12,-0.34,0.82,10.96,62,0.076,8.11
