# run_gait log  cmd_fwd=0.100 hz=80.0 fw_balance=off policy_yaw_sign=-1
t,roll,pitch,yaw,gx,gy,gz,j0,j1,j2,j3,j4,j5,j6,j7,guard_state,hottest_j,hottest_tier,hottest_frac,duty_s,ax,ay,az,imu_n,imu_age_s,volt
0.0363,-0.02094,0.02094,0.00000,0.00000,0.00000,0.00000,36,0,57,10,60,-3,54,8,ok,3,0,0.000,0,0.21,-0.18,10.01,9,0.000,nan
0.0410,-0.02094,0.02094,0.00000,0.00000,0.00000,0.00000,34,1,59,10,59,-4,56,6,ok,2,0,0.000,0,0.21,-0.18,10.01,9,0.022,nan
0.0540,-0.02094,0.02094,0.00000,0.00000,0.00000,0.00000,34,4,59,11,56,-5,56,8,ok,4,0,0.000,0,0.21,-0.18,10.01,9,0.034,8.16
0.0762,-0.02094,0.02094,0.00000,0.00000,0.00000,0.00000,33,6,60,12,55,-6,57,8,ok,4,0,0.000,0,0.21,-0.18,10.01,9,0.047,8.16
0.0807,-0.02094,0.02094,0.00000,0.00000,0.00000,0.00000,32,10,59,13,52,-5,57,9,ok,4,0,0.000,0,0.21,-0.18,10.01,9,0.062,8.16
0.0932,-0.02094,0.02094,0.00000,0.00000,0.00000,0.00000,31,12,60,13,50,-5,58,10,ok,4,0,0.000,0,0.21,-0.18,10.01,9,0.074,8.16
0.1163,-0.02094,0.02094,0.00000,0.00000,0.00000,0.00000,32,13,60,14,47,-5,59,11,ok,4,0,0.000,0,0.21,-0.18,10.01,9,0.087,8.16
0.1215,-0.02094,0.02094,0.00000,0.00000,0.00000,0.00000,32,13,60,15,44,-4,59,11,ok,4,0,0.000,0,0.21,-0.18,10.01,9,0.102,8.16
0.1323,-0.02094,0.02094,0.00000,0.00000,0.00000,0.00000,33,12,61,15,42,-4,60,12,ok,4,0,0.000,0,0.21,-0.18,10.01,9,0.114,8.16
0.1521,-0.02094,0.02094,0.00000,0.00000,0.00000,0.00000,34,11,60,16,39,-3,60,12,ok,4,0,0.000,0,0.21,-0.18,10.01,9,0.127,8.16
0.1574,-0.02094,0.02094,0.00000,0.00000,0.00000,0.00000,34,11,61,17,36,-2,61,13,ok,4,0,0.000,0,0.21,-0.18,10.01,9,0.139,8.16
0.1697,-0.02094,0.02094,0.00000,0.00000,0.00000,0.00000,34,9,61,18,32,-1,61,14,ok,4,0,0.000,0,0.21,-0.18,10.01,9,0.152,8.16
0.1921,-0.02094,0.02094,0.00000,0.00000,0.00000,0.00000,34,9,61,19,30,0,62,15,ok,4,0,0.000,0,0.21,-0.18,10.01,9,0.164,8.16
0.1955,-0.02094,0.02094,0.00000,0.00000,0.00000,0.00000,36,8,62,20,27,2,62,16,ok,4,0,0.000,0,0.21,-0.18,10.01,9,0.177,8.16
0.2084,-0.00698,-0.11519,0.00000,0.00000,0.00000,0.00000,36,7,62,21,25,5,63,16,ok,4,0,0.000,0,-1.49,-0.41,11.58,10,0.000,8.16
0.2281,-0.00698,-0.11519,0.00000,0.00000,0.00000,0.00000,37,6,62,21,23,8,64,17,ok,4,0,0.000,0,-1.49,-0.41,11.58,10,0.013,8.16
0.2329,-0.00698,-0.11519,0.00000,0.00000,0.00000,0.00000,38,6,62,22,22,12,64,18,ok,4,0,0.000,0,-1.49,-0.41,11.58,10,0.025,8.16
0.2456,-0.00698,-0.11519,0.00000,0.00000,0.00000,0.00000,38,6,62,23,21,14,65,18,ok,4,0,0.000,0,-1.49,-0.41,11.58,10,0.037,8.16
0.2681,-0.00698,-0.11519,0.00000,0.00000,0.00000,0.00000,39,6,61,26,23,14,65,19,ok,4,0,0.000,0,-1.49,-0.41,11.58,10,0.050,8.16
0.2712,-0.00698,-0.11519,0.00000,0.00000,0.00000,0.00000,40,5,62,27,23,14,65,20,ok,4,0,0.000,0,-1.49,-0.41,11.58,10,0.063,8.16
0.2839,-0.00698,-0.11519,0.00000,0.00000,0.00000,0.00000,40,5,64,26,24,12,65,21,ok,4,0,0.000,0,-1.49,-0.41,11.58,10,0.076,8.16
0.3041,-0.00698,-0.11519,0.00000,0.00000,0.00000,0.00000,40,5,67,23,25,11,66,22,ok,4,0,0.000,0,-1.49,-0.41,11.58,10,0.088,8.16
0.3090,-0.00698,-0.11519,0.00000,0.00000,0.00000,0.00000,42,4,69,19,26,11,66,24,ok,4,0,0.000,0,-1.49,-0.41,11.58,10,0.101,8.16
0.3214,-0.00698,-0.11519,0.00000,0.00000,0.00000,0.00000,42,4,71,16,27,11,65,25,ok,4,0,0.000,0,-1.49,-0.41,11.58,10,0.113,8.16
0.3441,-0.00698,-0.11519,0.00000,0.00000,0.00000,0.00000,43,4,71,13,28,10,65,27,ok,4,0,0.000,0,-1.49,-0.41,11.58,10,0.126,8.16
0.3472,-0.00698,-0.11519,0.00000,0.00000,0.00000,0.00000,44,3,71,13,30,10,65,27,ok,4,0,0.000,0,-1.49,-0.41,11.58,10,0.139,8.16
0.3601,-0.00698,-0.11519,0.00000,0.00000,0.00000,0.00000,44,3,71,10,30,10,64,30,ok,4,0,0.000,0,-1.49,-0.41,11.58,10,0.152,8.16
0.3801,-0.00698,-0.11519,0.00000,0.00000,0.00000,0.00000,45,4,71,7,32,10,64,31,ok,4,0,0.000,0,-1.49,-0.41,11.58,10,0.165,8.16
0.3849,-0.00698,-0.11519,0.00000,0.00000,0.00000,0.00000,46,4,70,4,34,9,65,32,ok,4,0,0.000,0,-1.49,-0.41,11.58,10,0.177,8.16
0.3974,-0.00698,-0.11519,0.00000,0.00000,0.00000,0.00000,46,3,69,1,35,9,64,33,ok,4,0,0.000,0,-1.49,-0.41,11.58,10,0.189,8.16
0.4201,-0.13439,0.00873,0.04189,0.00000,0.00000,0.00000,47,3,68,0,36,8,64,35,ok,4,0,0.000,0,-0.05,-1.28,8.76,11,0.000,8.16
0.4233,-0.13439,0.00873,0.04189,0.00000,0.00000,0.00000,48,3,67,-1,37,7,64,36,ok,4,0,0.000,0,-0.05,-1.28,8.76,11,0.013,8.16
0.4362,-0.13439,0.00873,0.04189,0.00000,0.00000,0.00000,48,3,65,-2,38,6,65,36,ok,4,0,0.000,0,-0.05,-1.28,8.76,11,0.026,8.16
0.4561,-0.13439,0.00873,0.04189,0.00000,0.00000,0.00000,49,3,63,-4,40,6,66,35,ok,4,0,0.000,0,-0.05,-1.28,8.76,11,0.039,8.16
0.4609,-0.13439,0.00873,0.04189,0.00000,0.00000,0.00000,50,3,62,-6,42,6,68,32,ok,4,0,0.000,0,-0.05,-1.28,8.76,11,0.051,8.16
0.4735,-0.13439,0.00873,0.04189,0.00000,0.00000,0.00000,50,4,59,-7,43,6,70,27,ok,4,0,0.000,0,-0.05,-1.28,8.76,11,0.064,8.16
0.4961,-0.13439,0.00873,0.04189,0.00000,0.00000,0.00000,50,3,56,-8,44,6,71,23,ok,4,0,0.000,0,-0.05,-1.28,8.76,11,0.076,8.16
0.4993,-0.13439,0.00873,0.04189,0.00000,0.00000,0.00000,51,3,54,-8,46,6,73,20,ok,4,0,0.000,0,-0.05,-1.28,8.76,11,0.089,8.16
0.5120,-0.13439,0.00873,0.04189,0.00000,0.00000,0.00000,51,5,52,-9,47,7,73,20,ok,4,0,0.000,0,-0.05,-1.28,8.76,11,0.102,8.16
0.5321,-0.13439,0.00873,0.04189,0.00000,0.00000,0.00000,52,5,49,-10,48,7,73,18,ok,4,0,0.000,1,-0.05,-1.28,8.76,11,0.115,8.16
0.5371,-0.13439,0.00873,0.04189,0.00000,0.00000,0.00000,52,5,47,-10,49,7,73,14,ok,4,0,0.000,1,-0.05,-1.28,8.76,11,0.127,8.16
0.5494,-0.13439,0.00873,0.04189,0.00000,0.00000,0.00000,52,6,45,-10,50,7,73,11,ok,4,0,0.000,1,-0.05,-1.28,8.76,11,0.140,8.16
0.5721,-0.13439,0.00873,0.04189,0.00000,0.00000,0.00000,52,7,42,-10,51,7,72,10,ok,4,0,0.000,1,-0.05,-1.28,8.76,11,0.152,8.16
0.5753,-0.13439,0.00873,0.04189,0.00000,0.00000,0.00000,54,7,39,-11,52,7,72,6,ok,4,0,0.000,1,-0.05,-1.28,8.76,11,0.165,8.16
0.5880,-0.13439,0.00873,0.04189,0.00000,0.00000,0.00000,54,7,37,-10,53,6,72,4,ok,4,0,0.000,1,-0.05,-1.28,8.76,11,0.178,8.16
0.6081,-0.13439,0.00873,0.04189,0.00000,0.00000,0.00000,54,7,33,-9,53,7,70,3,ok,4,0,0.000,1,-0.05,-1.28,8.76,11,0.191,8.16
0.6133,-0.01920,0.01571,0.02793,0.00000,0.00000,0.00000,54,8,31,-8,53,7,69,1,ok,4,0,0.000,1,0.57,-0.16,9.93,12,0.000,8.16
0.6254,-0.01920,0.01571,0.02793,0.00000,0.00000,0.00000,54,8,27,-7,54,8,66,0,ok,2,0,0.000,1,0.57,-0.16,9.93,12,0.013,8.16
0.6481,-0.01920,0.01571,0.02793,0.00000,0.00000,0.00000,54,9,24,-5,55,8,65,-2,ok,2,0,0.000,1,0.57,-0.16,9.93,12,0.025,8.16
0.6512,-0.01920,0.01571,0.02793,0.00000,0.00000,0.00000,55,11,20,-2,56,9,64,-3,ok,2,0,0.000,1,0.57,-0.16,9.93,12,0.038,8.16
0.6640,-0.01920,0.01571,0.02793,0.00000,0.00000,0.00000,55,11,19,-1,58,7,62,-4,ok,2,0,0.000,1,0.57,-0.16,9.93,12,0.051,8.16
0.6843,-0.01920,0.01571,0.02793,0.00000,0.00000,0.00000,56,10,18,0,58,8,60,-5,ok,2,0,0.000,1,0.57,-0.16,9.93,12,0.064,8.16
0.6890,-0.01920,0.01571,0.02793,0.00000,0.00000,0.00000,56,11,16,2,59,9,58,-6,ok,2,0,0.000,1,0.57,-0.16,9.93,12,0.076,8.16
0.7014,-0.01920,0.01571,0.02793,0.00000,0.00000,0.00000,56,11,14,6,59,9,55,-6,ok,2,0,0.000,1,0.57,-0.16,9.93,12,0.089,8.16
0.7241,-0.01920,0.01571,0.02793,0.00000,0.00000,0.00000,56,13,12,9,60,10,53,-7,ok,2,0,0.000,1,0.57,-0.16,9.93,12,0.101,8.16
0.7273,-0.01920,0.01571,0.02793,0.00000,0.00000,0.00000,56,13,12,11,60,10,50,-6,ok,2,0,0.000,1,0.57,-0.16,9.93,12,0.114,8.16
0.7402,-0.01920,0.01571,0.02793,0.00000,0.00000,0.00000,56,13,13,12,60,10,48,-6,ok,2,0,0.000,1,0.57,-0.16,9.93,12,0.127,8.16
0.7601,-0.01920,0.01571,0.02793,0.00000,0.00000,0.00000,56,14,15,11,60,11,45,-6,ok,2,0,0.000,1,0.57,-0.16,9.93,12,0.140,8.16
0.7650,-0.01920,0.01571,0.02793,0.00000,0.00000,0.00000,56,14,16,10,61,11,42,-5,ok,2,0,0.000,1,0.57,-0.16,9.93,12,0.152,8.16
0.7774,-0.01920,0.01571,0.02793,0.00000,0.00000,0.00000,56,15,19,9,61,12,41,-5,ok,2,0,0.000,1,0.57,-0.16,9.93,12,0.165,8.16
0.8001,-0.01920,0.01571,0.02793,0.00000,0.00000,0.00000,56,15,19,9,61,13,37,-4,ok,2,0,0.000,1,0.57,-0.16,9.93,12,0.177,8.16
0.8033,-0.01920,0.01571,0.02793,0.00000,0.00000,0.00000,56,16,21,7,61,13,35,-3,ok,2,0,0.000,1,0.57,-0.16,9.93,12,0.190,8.16
0.8163,-0.08203,0.11694,0.01047,0.00000,0.00000,0.00000,56,17,21,7,62,14,31,-1,ok,2,0,0.000,1,1.47,-0.82,9.21,13,0.000,8.16
0.8361,-0.08203,0.11694,0.01047,0.00000,0.00000,0.00000,58,19,23,6,62,14,30,0,ok,2,0,0.000,1,1.47,-0.82,9.21,13,0.013,8.16
0.8410,-0.08203,0.11694,0.01047,0.00000,0.00000,0.00000,58,20,24,5,62,15,28,1,ok,2,0,0.000,1,1.47,-0.82,9.21,13,0.025,8.16
0.8535,-0.08203,0.11694,0.01047,0.00000,0.00000,0.00000,58,20,24,5,62,16,26,4,ok,2,0,0.000,1,1.47,-0.82,9.21,13,0.038,8.16
0.8761,-0.08203,0.11694,0.01047,0.00000,0.00000,0.00000,58,21,25,4,63,16,24,7,ok,2,0,0.000,1,1.47,-0.82,9.21,13,0.050,8.16
0.8792,-0.08203,0.11694,0.01047,0.00000,0.00000,0.00000,58,22,25,3,64,17,23,11,ok,2,0,0.000,1,1.47,-0.82,9.21,13,0.063,8.16
0.8921,-0.08203,0.11694,0.01047,0.00000,0.00000,0.00000,57,25,26,3,64,18,23,13,ok,2,0,0.000,1,1.47,-0.82,9.21,13,0.076,8.16
0.9121,-0.08203,0.11694,0.01047,0.00000,0.00000,0.00000,56,25,27,2,64,20,25,12,ok,2,0,0.000,1,1.47,-0.82,9.21,13,0.089,8.16
0.9170,-0.08203,0.11694,0.01047,0.00000,0.00000,0.00000,58,24,28,2,64,21,25,12,ok,2,0,0.000,1,1.47,-0.82,9.21,13,0.101,8.16
0.9294,-0.08203,0.11694,0.01047,0.00000,0.00000,0.00000,58,20,29,2,65,22,26,10,ok,2,0,0.000,1,1.47,-0.82,9.21,13,0.114,8.16
0.9521,-0.08203,0.11694,0.01047,0.00000,0.00000,0.00000,60,17,31,1,64,23,27,9,ok,2,0,0.000,1,1.47,-0.82,9.21,13,0.126,8.16
0.9552,-0.08203,0.11694,0.01047,0.00000,0.00000,0.00000,60,13,32,2,64,25,28,10,ok,2,0,0.000,1,1.47,-0.82,9.21,13,0.139,8.16
0.9680,-0.08203,0.11694,0.01047,0.00000,0.00000,0.00000,60,11,33,1,65,25,30,9,ok,2,0,0.000,1,1.47,-0.82,9.21,13,0.152,8.16
0.9881,-0.08203,0.11694,0.01047,0.00000,0.00000,0.00000,60,11,35,1,64,28,31,8,ok,2,0,0.000,1,1.47,-0.82,9.21,13,0.165,8.16
0.9930,-0.08203,0.11694,0.01047,0.00000,0.00000,0.00000,60,7,36,1,64,29,33,8,ok,2,0,0.000,1,1.47,-0.82,9.21,13,0.177,8.16
1.0054,-0.08203,0.11694,0.01047,0.00000,0.00000,0.00000,60,5,38,3,64,30,34,9,ok,2,0,0.000,1,1.47,-0.82,9.21,13,0.190,8.16
1.0281,-0.08203,0.11694,0.01047,0.00000,0.00000,0.00000,60,2,39,3,64,32,35,8,ok,2,0,0.000,1,1.47,-0.82,9.21,13,0.202,8.16
1.0316,-0.07156,0.04363,0.12043,0.00000,0.00000,0.00000,59,-1,41,2,64,34,36,8,ok,2,0,0.000,1,0.87,-0.83,11.25,14,0.000,8.16
1.0442,-0.07156,0.04363,0.12043,0.00000,0.00000,0.00000,58,-3,42,2,64,35,37,8,ok,2,0,0.000,1,0.87,-0.83,11.25,14,0.013,8.16
1.0641,-0.07156,0.04363,0.12043,0.00000,0.00000,0.00000,58,-4,43,2,65,35,39,8,ok,2,0,0.000,1,0.87,-0.83,11.25,14,0.025,8.16
1.0690,-0.07156,0.04363,0.12043,0.00000,0.00000,0.00000,56,-5,43,2,66,35,40,7,ok,2,0,0.000,1,0.87,-0.83,11.25,14,0.038,8.16
1.0814,-0.07156,0.04363,0.12043,0.00000,0.00000,0.00000,56,-6,45,2,68,33,41,7,ok,2,0,0.000,1,0.87,-0.83,11.25,14,0.050,8.16
1.1041,-0.07156,0.04363,0.12043,0.00000,0.00000,0.00000,56,-8,46,2,70,29,42,7,ok,2,0,0.000,1,0.87,-0.83,11.25,14,0.063,8.16
1.1074,-0.07156,0.04363,0.12043,0.00000,0.00000,0.00000,54,-9,48,4,71,24,44,7,ok,2,0,0.000,1,0.87,-0.83,11.25,14,0.076,8.16
1.1200,-0.07156,0.04363,0.12043,0.00000,0.00000,0.00000,53,-10,49,3,73,21,44,7,ok,2,0,0.000,1,0.87,-0.83,11.25,14,0.089,8.16
1.1401,-0.07156,0.04363,0.12043,0.00000,0.00000,0.00000,52,-10,49,3,74,21,45,7,ok,2,0,0.000,1,0.87,-0.83,11.25,14,0.101,8.16
1.1449,-0.07156,0.04363,0.12043,0.00000,0.00000,0.00000,51,-11,49,5,74,18,46,7,ok,2,0,0.000,1,0.87,-0.83,11.25,14,0.114,8.16
1.1574,-0.07156,0.04363,0.12043,0.00000,0.00000,0.00000,50,-11,51,6,74,15,47,8,ok,2,0,0.000,1,0.87,-0.83,11.25,14,0.126,8.16
1.1801,-0.07156,0.04363,0.12043,0.00000,0.00000,0.00000,48,-11,52,6,73,12,48,8,ok,2,0,0.000,1,0.87,-0.83,11.25,14,0.139,8.16
1.1834,-0.07156,0.04363,0.12043,0.00000,0.00000,0.00000,47,-10,53,6,72,10,49,8,ok,2,0,0.000,1,0.87,-0.83,11.25,14,0.152,8.16
1.1962,-0.07156,0.04363,0.12043,0.00000,0.00000,0.00000,46,-11,53,7,72,6,50,9,ok,2,0,0.000,1,0.87,-0.83,11.25,14,0.165,8.16
1.2161,-0.07156,0.04363,0.12043,0.00000,0.00000,0.00000,44,-11,55,7,72,5,50,8,ok,2,0,0.000,1,0.87,-0.83,11.25,14,0.177,8.16
1.2214,-0.02443,-0.01745,0.11519,0.00000,0.00000,0.00000,43,-10,56,7,71,4,51,9,ok,2,0,0.000,1,-0.32,-0.15,9.34,15,0.000,8.16
1.2335,-0.02443,-0.01745,0.11519,0.00000,0.00000,0.00000,42,-8,57,7,69,1,52,7,ok,2,0,0.000,1,-0.32,-0.15,9.34,15,0.013,8.16
1.2561,-0.02443,-0.01745,0.11519,0.00000,0.00000,0.00000,40,-7,57,7,66,2,52,8,ok,2,0,0.000,1,-0.32,-0.15,9.34,15,0.025,8.16
1.2594,-0.02443,-0.01745,0.11519,0.00000,0.00000,0.00000,38,-6,58,7,65,-1,53,8,ok,2,0,0.000,1,-0.32,-0.15,9.34,15,0.038,8.16
1.2720,-0.02443,-0.01745,0.11519,0.00000,0.00000,0.00000,37,-4,58,8,64,-2,54,9,ok,2,0,0.000,1,-0.32,-0.15,9.34,15,0.051,8.16
1.2921,-0.02443,-0.01745,0.11519,0.00000,0.00000,0.00000,35,-1,59,9,62,-4,55,8,ok,2,0,0.000,1,-0.32,-0.15,9.34,15,0.063,8.16
1.2969,-0.02443,-0.01745,0.11519,0.00000,0.00000,0.00000,35,-1,60,10,60,-5,55,8,ok,2,0,0.000,1,-0.32,-0.15,9.34,15,0.076,8.16
1.3094,-0.02443,-0.01745,0.11519,0.00000,0.00000,0.00000,34,0,61,10,58,-5,57,6,ok,2,0,0.000,1,-0.32,-0.15,9.34,15,0.088,8.16
1.3321,-0.02443,-0.01745,0.11519,0.00000,0.00000,0.00000,34,3,61,10,55,-6,57,7,ok,2,0,0.000,1,-0.32,-0.15,9.34,15,0.101,8.16
1.3353,-0.02443,-0.01745,0.11519,0.00000,0.00000,0.00000,32,6,61,10,54,-7,58,8,ok,2,0,0.000,1,-0.32,-0.15,9.34,15,0.114,8.16
1.3481,-0.02443,-0.01745,0.11519,0.00000,0.00000,0.00000,32,9,61,12,51,-6,59,8,ok,2,0,0.000,1,-0.32,-0.15,9.34,15,0.127,8.16
1.3681,-0.02443,-0.01745,0.11519,0.00000,0.00000,0.00000,32,11,61,11,48,-6,59,9,ok,2,0,0.000,1,-0.32,-0.15,9.34,15,0.139,8.16
1.3730,-0.02443,-0.01745,0.11519,0.00000,0.00000,0.00000,32,11,62,13,46,-6,60,10,ok,2,0,0.000,1,-0.32,-0.15,9.34,15,0.152,8.16
1.3854,-0.02443,-0.01745,0.11519,0.00000,0.00000,0.00000,32,11,61,13,42,-5,60,10,ok,2,0,0.000,1,-0.32,-0.15,9.34,15,0.164,8.16
1.4081,-0.02443,-0.01745,0.11519,0.00000,0.00000,0.00000,33,10,62,14,40,-5,61,11,ok,2,0,0.000,1,-0.32,-0.15,9.34,15,0.177,8.16
1.4112,-0.02443,-0.01745,0.11519,0.00000,0.00000,0.00000,34,9,62,14,37,-4,61,12,ok,4,0,0.000,1,-0.32,-0.15,9.34,15,0.190,8.16
1.4242,-0.02443,-0.01745,0.11519,0.00000,0.00000,0.00000,34,9,62,15,34,-3,61,13,ok,4,0,0.000,1,-0.32,-0.15,9.34,15,0.203,8.16
1.4441,-0.04189,0.03316,0.09599,0.00000,0.00000,0.00000,35,8,63,16,31,-2,61,13,ok,4,0,0.000,1,-0.33,-0.70,8.97,16,0.000,8.16
1.4489,-0.04189,0.03316,0.09599,0.00000,0.00000,0.00000,36,7,63,17,29,0,62,14,ok,4,0,0.000,1,-0.33,-0.70,8.97,16,0.012,8.16
1.4614,-0.04189,0.03316,0.09599,0.00000,0.00000,0.00000,36,6,64,18,27,1,62,15,ok,4,0,0.000,1,-0.33,-0.70,8.97,16,0.025,8.16
1.4841,-0.04189,0.03316,0.09599,0.00000,0.00000,0.00000,37,5,64,19,25,4,63,15,ok,4,0,0.000,1,-0.33,-0.70,8.97,16,0.038,8.16
1.4873,-0.04189,0.03316,0.09599,0.00000,0.00000,0.00000,38,5,64,21,24,7,63,16,ok,4,0,0.000,1,-0.33,-0.70,8.97,16,0.051,8.16
1.5000,-0.04189,0.03316,0.09599,0.00000,0.00000,0.00000,38,4,64,22,23,11,63,18,ok,4,0,0.000,1,-0.33,-0.70,8.97,16,0.063,8.16
1.5201,-0.04189,0.03316,0.09599,0.00000,0.00000,0.00000,38,4,64,23,22,14,64,18,ok,4,0,0.000,1,-0.33,-0.70,8.97,16,0.076,8.16
1.5250,-0.04189,0.03316,0.09599,0.00000,0.00000,0.00000,39,3,63,26,24,13,64,19,ok,4,0,0.000,1,-0.33,-0.70,8.97,16,0.088,8.16
1.5374,-0.04189,0.03316,0.09599,0.00000,0.00000,0.00000,39,2,63,27,24,13,64,20,ok,4,0,0.000,1,-0.33,-0.70,8.97,16,0.101,8.16
1.5601,-0.04189,0.03316,0.09599,0.00000,0.00000,0.00000,40,2,64,26,25,11,64,21,ok,4,0,0.000,2,-0.33,-0.70,8.97,16,0.113,8.16
1.5632,-0.04189,0.03316,0.09599,0.00000,0.00000,0.00000,40,2,67,22,26,11,65,21,ok,4,0,0.000,2,-0.33,-0.70,8.97,16,0.127,8.16
1.5759,-0.04189,0.03316,0.09599,0.00000,0.00000,0.00000,41,1,69,19,28,10,65,22,ok,4,0,0.000,2,-0.33,-0.70,8.97,16,0.140,8.16
1.5961,-0.04189,0.03316,0.09599,0.00000,0.00000,0.00000,42,1,70,15,29,10,64,24,ok,4,0,0.000,2,-0.33,-0.70,8.97,16,0.152,8.16
1.6012,-0.04189,0.03316,0.09599,0.00000,0.00000,0.00000,42,1,70,12,30,9,64,26,ok,4,0,0.000,2,-0.33,-0.70,8.97,16,0.164,8.16
1.6134,-0.04189,0.03316,0.09599,0.00000,0.00000,0.00000,44,2,70,12,33,9,65,26,ok,4,0,0.000,2,-0.33,-0.70,8.97,16,0.177,8.16
1.6361,-0.04189,0.03316,0.09599,0.00000,0.00000,0.00000,44,2,70,8,33,9,64,28,ok,4,0,0.000,2,-0.33,-0.70,8.97,16,0.189,8.16
1.6397,-0.15708,-0.01745,0.07854,0.00000,0.00000,0.00000,45,3,69,5,35,9,64,30,ok,4,0,0.000,2,0.68,-1.59,11.61,17,0.000,8.16
1.6522,-0.15708,-0.01745,0.07854,0.00000,0.00000,0.00000,46,2,68,3,36,8,65,31,ok,4,0,0.000,2,0.68,-1.59,11.61,17,0.013,8.16
1.6721,-0.15708,-0.01745,0.07854,0.00000,0.00000,0.00000,46,2,67,0,37,8,64,33,ok,4,0,0.000,2,0.68,-1.59,11.61,17,0.025,8.16
1.6770,-0.15708,-0.01745,0.07854,0.00000,0.00000,0.00000,47,2,66,-2,38,8,64,35,ok,4,0,0.000,2,0.68,-1.59,11.61,17,0.038,8.16
1.6894,-0.15708,-0.01745,0.07854,0.00000,0.00000,0.00000,48,2,64,-3,39,8,64,36,ok,4,0,0.000,2,0.68,-1.59,11.61,17,0.050,8.16
1.7121,-0.15708,-0.01745,0.07854,0.00000,0.00000,0.00000,48,2,62,-4,40,7,65,36,ok,4,0,0.000,2,0.68,-1.59,11.61,17,0.063,8.16
1.7153,-0.15708,-0.01745,0.07854,0.00000,0.00000,0.00000,48,2,61,-5,42,7,66,35,ok,4,0,0.000,2,0.68,-1.59,11.61,17,0.076,8.16
1.7280,-0.15708,-0.01745,0.07854,0.00000,0.00000,0.00000,49,2,60,-7,43,7,68,33,ok,4,0,0.000,2,0.68,-1.59,11.61,17,0.089,8.16
1.7481,-0.15708,-0.01745,0.07854,0.00000,0.00000,0.00000,50,3,58,-7,44,7,69,27,ok,4,0,0.000,2,0.68,-1.59,11.61,17,0.101,8.16
1.7530,-0.15708,-0.01745,0.07854,0.00000,0.00000,0.00000,50,3,56,-9,45,7,71,24,ok,4,0,0.000,2,0.68,-1.59,11.61,17,0.114,8.16
1.7655,-0.15708,-0.01745,0.07854,0.00000,0.00000,0.00000,50,3,53,-9,46,7,72,21,ok,4,0,0.000,2,0.68,-1.59,11.61,17,0.126,8.16
1.7881,-0.15708,-0.01745,0.07854,0.00000,0.00000,0.00000,50,5,51,-10,47,7,72,21,ok,4,0,0.001,2,0.68,-1.59,11.61,17,0.139,8.16
1.7913,-0.15708,-0.01745,0.07854,0.00000,0.00000,0.00000,51,6,49,-10,47,7,72,19,ok,4,0,0.001,2,0.68,-1.59,11.61,17,0.152,8.16
1.8040,-0.15708,-0.01745,0.07854,0.00000,0.00000,0.00000,52,6,46,-10,48,7,72,15,ok,4,0,0.001,2,0.68,-1.59,11.61,17,0.165,8.16
1.8241,-0.15708,-0.01745,0.07854,0.00000,0.00000,0.00000,52,7,44,-10,49,7,72,13,ok,4,0,0.001,2,0.68,-1.59,11.61,17,0.177,8.16
1.8290,-0.15708,-0.01745,0.07854,0.00000,0.00000,0.00000,52,7,41,-10,50,7,71,11,ok,2,0,0.001,2,0.68,-1.59,11.61,17,0.190,8.16
1.8417,-0.07330,-0.02094,0.07854,0.00000,0.00000,0.00000,54,7,39,-10,50,7,71,8,ok,2,0,0.001,2,-0.26,-0.70,9.73,18,0.000,8.16
1.8641,-0.07330,-0.02094,0.07854,0.00000,0.00000,0.00000,54,8,37,-10,52,7,70,6,ok,2,0,0.001,2,-0.26,-0.70,9.73,18,0.013,8.16
1.8672,-0.07330,-0.02094,0.07854,0.00000,0.00000,0.00000,54,8,33,-9,52,7,69,4,ok,2,0,0.001,2,-0.26,-0.70,9.73,18,0.026,8.16
1.8800,-0.07330,-0.02094,0.07854,0.00000,0.00000,0.00000,54,9,31,-8,53,8,67,2,ok,2,0,0.001,2,-0.26,-0.70,9.73,18,0.039,8.16
1.9001,-0.07330,-0.02094,0.07854,0.00000,0.00000,0.00000,54,9,27,-7,54,8,65,2,ok,2,0,0.001,2,-0.26,-0.70,9.73,18,0.051,8.16
1.9051,-0.07330,-0.02094,0.07854,0.00000,0.00000,0.00000,54,10,25,-5,55,8,64,0,ok,2,0,0.001,2,-0.26,-0.70,9.73,18,0.063,8.16
1.9174,-0.07330,-0.02094,0.07854,0.00000,0.00000,0.00000,56,11,21,-3,56,8,64,-2,ok,2,0,0.001,2,-0.26,-0.70,9.73,18,0.076,8.16
1.9441,-0.07330,-0.02094,0.07854,0.00000,0.00000,0.00000,56,11,19,-1,58,6,61,-3,ok,2,0,0.001,2,-0.26,-0.70,9.73,18,0.089,8.16
1.9475,-0.07330,-0.02094,0.07854,0.00000,0.00000,0.00000,56,11,18,0,58,7,59,-4,ok,2,0,0.001,2,-0.26,-0.70,9.73,18,0.106,8.16
1.9599,-0.07330,-0.02094,0.07854,0.00000,0.00000,0.00000,56,11,16,3,59,8,58,-5,ok,2,0,0.001,2,-0.26,-0.70,9.73,18,0.119,8.16
1.9801,-0.07330,-0.02094,0.07854,0.00000,0.00000,0.00000,56,11,15,6,59,8,55,-6,ok,2,0,0.001,2,-0.26,-0.70,9.73,18,0.131,8.16
1.9850,-0.07330,-0.02094,0.07854,0.00000,0.00000,0.00000,56,12,13,9,59,9,53,-6,ok,2,0,0.001,2,-0.26,-0.70,9.73,18,0.143,8.16
1.9975,-0.07330,-0.02094,0.07854,0.00000,0.00000,0.00000,56,12,13,12,60,9,50,-5,ok,2,0,0.001,2,-0.26,-0.70,9.73,18,0.156,8.16
2.0201,-0.07330,-0.02094,0.07854,0.00000,0.00000,0.00000,56,13,14,12,60,9,48,-5,ok,2,0,0.001,2,-0.26,-0.70,9.73,18,0.169,8.16
2.0232,-0.07330,-0.02094,0.07854,0.00000,0.00000,0.00000,56,14,15,11,61,10,45,-5,ok,2,0,0.001,2,-0.26,-0.70,9.73,18,0.182,8.16
2.0362,-0.07330,-0.02094,0.07854,0.00000,0.00000,0.00000,56,14,17,10,61,11,42,-4,ok,2,0,0.001,2,-0.26,-0.70,9.73,18,0.194,8.16
2.0561,0.04189,0.08029,0.04363,0.00000,0.00000,0.00000,56,15,19,9,61,12,40,-4,ok,2,0,0.001,2,0.95,0.64,9.83,19,0.000,8.16
2.0610,0.04189,0.08029,0.04363,0.00000,0.00000,0.00000,56,16,19,9,61,13,36,-3,ok,2,0,0.001,2,0.95,0.64,9.83,19,0.012,8.16
2.0734,0.04189,0.08029,0.04363,0.00000,0.00000,0.00000,56,17,21,7,61,13,34,-3,ok,2,0,0.001,2,0.95,0.64,9.83,19,0.025,8.16
2.0961,0.04189,0.08029,0.04363,0.00000,0.00000,0.00000,56,18,21,7,62,14,30,-1,ok,2,0,0.001,2,0.95,0.64,9.83,19,0.038,8.16
2.0993,0.04189,0.08029,0.04363,0.00000,0.00000,0.00000,58,20,23,6,63,14,29,0,ok,2,0,0.001,2,0.95,0.64,9.83,19,0.051,8.16
2.1122,0.04189,0.08029,0.04363,0.00000,0.00000,0.00000,58,21,24,5,63,15,27,2,ok,2,0,0.001,2,0.95,0.64,9.83,19,0.064,8.16
2.1321,0.04189,0.08029,0.04363,0.00000,0.00000,0.00000,58,22,24,4,63,16,25,5,ok,2,0,0.001,2,0.95,0.64,9.83,19,0.076,8.16
2.1370,0.04189,0.08029,0.04363,0.00000,0.00000,0.00000,58,23,25,3,63,17,24,7,ok,2,0,0.001,2,0.95,0.64,9.83,19,0.089,8.16
2.1494,0.04189,0.08029,0.04363,0.00000,0.00000,0.00000,58,23,25,3,64,17,23,11,ok,2,0,0.001,2,0.95,0.64,9.83,19,0.101,8.16
2.1721,0.04189,0.08029,0.04363,0.00000,0.00000,0.00000,57,26,26,2,64,19,22,13,ok,2,0,0.001,2,0.95,0.64,9.83,19,0.114,8.16
2.1752,0.04189,0.08029,0.04363,0.00000,0.00000,0.00000,57,27,27,2,64,20,24,12,ok,2,0,0.001,2,0.95,0.64,9.83,19,0.127,8.16
2.1881,0.04189,0.08029,0.04363,0.00000,0.00000,0.00000,58,25,28,2,64,21,25,11,ok,2,0,0.001,2,0.95,0.64,9.83,19,0.140,8.16
2.2081,0.04189,0.08029,0.04363,0.00000,0.00000,0.00000,58,21,29,2,65,22,25,10,ok,2,0,0.001,2,0.95,0.64,9.83,19,0.152,8.16
2.2130,0.04189,0.08029,0.04363,0.00000,0.00000,0.00000,60,18,30,1,64,23,27,9,ok,2,0,0.001,2,0.95,0.64,9.83,19,0.165,8.16
2.2254,0.04189,0.08029,0.04363,0.00000,0.00000,0.00000,60,13,32,2,64,25,28,10,ok,2,0,0.001,2,0.95,0.64,9.83,19,0.177,8.16
2.2481,0.04189,0.08029,0.04363,0.00000,0.00000,0.00000,60,11,33,2,65,26,29,9,ok,2,0,0.001,2,0.95,0.64,9.83,19,0.190,8.16
2.2516,-0.11170,0.07505,0.04887,0.00000,0.00000,0.00000,60,10,35,2,64,28,30,8,ok,2,0,0.001,2,1.36,-1.73,9.90,20,0.000,8.16
2.2641,-0.11170,0.07505,0.04887,0.00000,0.00000,0.00000,60,7,36,2,64,28,33,9,ok,2,0,0.001,2,1.36,-1.73,9.90,20,0.013,8.16
2.2841,-0.11170,0.07505,0.04887,0.00000,0.00000,0.00000,60,4,39,3,64,30,34,9,ok,2,0,0.001,2,1.36,-1.73,9.90,20,0.025,8.16
2.2889,-0.11170,0.07505,0.04887,0.00000,0.00000,0.00000,60,1,39,3,64,31,35,8,ok,2,0,0.001,2,1.36,-1.73,9.90,20,0.038,8.16
2.3015,-0.11170,0.07505,0.04887,0.00000,0.00000,0.00000,59,-1,41,3,63,33,37,8,ok,2,0,0.001,2,1.36,-1.73,9.90,20,0.050,8.16
2.3241,-0.11170,0.07505,0.04887,0.00000,0.00000,0.00000,58,-4,42,3,63,35,37,8,ok,2,0,0.001,2,1.36,-1.73,9.90,20,0.063,8.16
2.3273,-0.11170,0.07505,0.04887,0.00000,0.00000,0.00000,58,-5,44,3,64,35,39,8,ok,2,0,0.001,2,1.36,-1.73,9.90,20,0.076,8.16
2.3400,-0.11170,0.07505,0.04887,0.00000,0.00000,0.00000,56,-6,44,3,66,35,40,8,ok,2,0,0.001,2,1.36,-1.73,9.90,20,0.089,8.16
2.3601,-0.11170,0.07505,0.04887,0.00000,0.00000,0.00000,56,-7,45,4,67,33,41,7,ok,2,0,0.001,2,1.36,-1.73,9.90,20,0.101,8.16
2.3650,-0.11170,0.07505,0.04887,0.00000,0.00000,0.00000,56,-9,46,3,69,28,42,7,ok,2,0,0.001,2,1.36,-1.73,9.90,20,0.114,8.16
2.3774,-0.11170,0.07505,0.04887,0.00000,0.00000,0.00000,54,-10,47,4,71,24,44,7,ok,2,0,0.001,2,1.36,-1.73,9.90,20,0.126,8.16
2.4001,-0.11170,0.07505,0.04887,0.00000,0.00000,0.00000,53,-11,49,4,73,21,44,7,ok,2,0,0.001,2,1.36,-1.73,9.90,20,0.139,8.16
2.4033,-0.11170,0.07505,0.04887,0.00000,0.00000,0.00000,52,-10,49,3,74,20,45,8,ok,2,0,0.001,2,1.36,-1.73,9.90,20,0.152,8.16
2.4159,-0.11170,0.07505,0.04887,0.00000,0.00000,0.00000,51,-11,49,5,74,18,46,8,ok,2,0,0.001,2,1.36,-1.73,9.90,20,0.165,8.16
2.4361,-0.11170,0.07505,0.04887,0.00000,0.00000,0.00000,50,-11,51,6,74,14,47,8,ok,2,0,0.001,2,1.36,-1.73,9.90,20,0.177,8.16
2.4412,-0.11170,0.07505,0.04887,0.00000,0.00000,0.00000,48,-11,51,6,73,11,48,8,ok,2,0,0.001,2,1.36,-1.73,9.90,20,0.190,8.16
2.4537,0.02793,-0.00349,0.02967,0.00000,0.00000,0.00000,47,-10,52,6,73,10,49,8,ok,2,0,0.001,2,0.07,0.26,10.18,21,0.000,8.16
2.4761,0.02793,-0.00349,0.02967,0.00000,0.00000,0.00000,46,-11,53,6,73,7,50,9,ok,2,0,0.001,2,0.07,0.26,10.18,21,0.013,8.16
2.4792,0.02793,-0.00349,0.02967,0.00000,0.00000,0.00000,44,-11,55,6,72,5,50,8,ok,2,0,0.001,2,0.07,0.26,10.18,21,0.026,8.16
2.4920,0.02793,-0.00349,0.02967,0.00000,0.00000,0.00000,43,-9,56,6,71,4,51,9,ok,2,0,0.001,2,0.07,0.26,10.18,21,0.039,8.16
2.5121,0.02793,-0.00349,0.02967,0.00000,0.00000,0.00000,42,-8,57,6,70,1,51,8,ok,2,0,0.001,2,0.07,0.26,10.18,21,0.051,8.16
2.5171,0.02793,-0.00349,0.02967,0.00000,0.00000,0.00000,40,-6,57,7,67,2,52,8,ok,2,0,0.001,2,0.07,0.26,10.18,21,0.064,8.16
2.5294,0.02793,-0.00349,0.02967,0.00000,0.00000,0.00000,38,-5,58,6,65,-1,52,8,ok,2,0,0.001,2,0.07,0.26,10.18,21,0.076,8.16
2.5521,0.02793,-0.00349,0.02967,0.00000,0.00000,0.00000,37,-2,58,7,64,-2,54,9,ok,2,0,0.001,2,0.07,0.26,10.18,21,0.089,8.16
2.5553,0.02793,-0.00349,0.02967,0.00000,0.00000,0.00000,35,0,59,8,62,-4,55,8,ok,2,0,0.001,3,0.07,0.26,10.18,21,0.102,8.16
2.5679,0.02793,-0.00349,0.02967,0.00000,0.00000,0.00000,35,0,60,10,61,-5,54,8,ok,2,0,0.001,3,0.07,0.26,10.18,21,0.115,8.16
2.5881,0.02793,-0.00349,0.02967,0.00000,0.00000,0.00000,34,1,60,9,58,-6,56,6,ok,2,0,0.001,3,0.07,0.26,10.18,21,0.127,8.16
2.5931,0.02793,-0.00349,0.02967,0.00000,0.00000,0.00000,34,3,61,10,56,-6,57,7,ok,2,0,0.001,3,0.07,0.26,10.18,21,0.139,8.16
2.6055,0.02793,-0.00349,0.02967,0.00000,0.00000,0.00000,32,5,61,11,54,-7,58,8,ok,2,0,0.001,3,0.07,0.26,10.18,21,0.152,8.16
2.6281,0.02793,-0.00349,0.02967,0.00000,0.00000,0.00000,32,8,61,12,51,-6,58,8,ok,2,0,0.001,3,0.07,0.26,10.18,21,0.165,8.16
2.6314,0.02793,-0.00349,0.02967,0.00000,0.00000,0.00000,31,11,61,12,48,-6,59,9,ok,2,0,0.001,3,0.07,0.26,10.18,21,0.178,8.16
2.6443,0.02793,-0.00349,0.02967,0.00000,0.00000,0.00000,32,11,62,13,46,-6,60,10,ok,2,0,0.001,3,0.07,0.26,10.18,21,0.191,8.16
2.6641,-0.03840,0.02094,0.05585,0.00000,0.00000,0.00000,32,11,61,13,43,-5,59,10,ok,2,0,0.001,3,0.43,-0.57,9.07,22,0.000,8.16
2.6690,-0.03840,0.02094,0.05585,0.00000,0.00000,0.00000,33,9,62,14,40,-5,60,11,ok,2,0,0.001,3,0.43,-0.57,9.07,22,0.012,8.16
2.6815,-0.03840,0.02094,0.05585,0.00000,0.00000,0.00000,34,9,62,15,37,-4,61,12,ok,2,0,0.001,3,0.43,-0.57,9.07,22,0.025,8.16
2.7041,-0.03840,0.02094,0.05585,0.00000,0.00000,0.00000,34,8,62,15,34,-4,61,13,ok,2,0,0.001,3,0.43,-0.57,9.07,22,0.038,8.16
2.7072,-0.03840,0.02094,0.05585,0.00000,0.00000,0.00000,35,7,63,16,31,-2,62,13,ok,2,0,0.001,3,0.43,-0.57,9.07,22,0.051,8.16
2.7199,-0.03840,0.02094,0.05585,0.00000,0.00000,0.00000,36,7,63,17,29,-1,62,14,ok,2,0,0.001,3,0.43,-0.57,9.07,22,0.063,8.16
2.7401,-0.03840,0.02094,0.05585,0.00000,0.00000,0.00000,36,5,64,18,28,1,62,15,ok,2,0,0.001,3,0.43,-0.57,9.07,22,0.076,8.16
2.7449,-0.03840,0.02094,0.05585,0.00000,0.00000,0.00000,37,4,64,20,25,4,63,15,ok,4,0,0.001,3,0.43,-0.57,9.07,22,0.088,8.16
2.7574,-0.03840,0.02094,0.05585,0.00000,0.00000,0.00000,37,4,64,21,24,7,63,17,ok,4,0,0.001,3,0.43,-0.57,9.07,22,0.101,8.16
2.7801,-0.03840,0.02094,0.05585,0.00000,0.00000,0.00000,38,3,64,22,23,11,63,18,ok,4,0,0.001,3,0.43,-0.57,9.07,22,0.113,8.16
2.7832,-0.03840,0.02094,0.05585,0.00000,0.00000,0.00000,38,3,64,23,22,14,64,18,ok,4,0,0.001,3,0.43,-0.57,9.07,22,0.127,8.16
2.7960,-0.03840,0.02094,0.05585,0.00000,0.00000,0.00000,39,3,63,26,24,13,64,19,ok,4,0,0.001,3,0.43,-0.57,9.07,22,0.139,8.16
2.8161,-0.03840,0.02094,0.05585,0.00000,0.00000,0.00000,40,3,63,27,24,13,64,20,ok,4,0,0.001,3,0.43,-0.57,9.07,22,0.152,8.16
2.8211,-0.03840,0.02094,0.05585,0.00000,0.00000,0.00000,40,2,64,26,25,11,64,21,ok,4,0,0.001,3,0.43,-0.57,9.07,22,0.164,8.16
2.8334,-0.03840,0.02094,0.05585,0.00000,0.00000,0.00000,40,2,67,22,27,10,65,21,ok,4,0,0.001,3,0.43,-0.57,9.07,22,0.177,8.16
2.8561,-0.03840,0.02094,0.05585,0.00000,0.00000,0.00000,41,1,69,19,28,10,65,23,ok,4,0,0.001,3,0.43,-0.57,9.07,22,0.189,8.16
2.8596,-0.04712,0.01745,0.04887,0.00000,0.00000,0.00000,42,1,70,15,29,10,64,24,ok,4,0,0.001,3,-1.41,-0.77,9.54,23,0.000,8.16
2.8721,-0.04712,0.01745,0.04887,0.00000,0.00000,0.00000,42,1,70,12,30,9,64,26,ok,4,0,0.001,3,-1.41,-0.77,9.54,23,0.013,8.16
2.8921,-0.04712,0.01745,0.04887,0.00000,0.00000,0.00000,44,2,70,12,33,9,65,26,ok,4,0,0.001,3,-1.41,-0.77,9.54,23,0.025,8.16
2.8970,-0.04712,0.01745,0.04887,0.00000,0.00000,0.00000,44,2,70,8,33,9,64,29,ok,4,0,0.001,3,-1.41,-0.77,9.54,23,0.038,8.16
2.9094,-0.04712,0.01745,0.04887,0.00000,0.00000,0.00000,45,3,69,6,35,9,64,30,ok,4,0,0.001,3,-1.41,-0.77,9.54,23,0.050,8.16
2.9321,-0.04712,0.01745,0.04887,0.00000,0.00000,0.00000,46,3,69,3,36,8,64,31,ok,4,0,0.001,3,-1.41,-0.77,9.54,23,0.063,8.16
2.9353,-0.04712,0.01745,0.04887,0.00000,0.00000,0.00000,46,2,67,0,37,9,64,33,ok,4,0,0.001,3,-1.41,-0.77,9.54,23,0.076,8.16
2.9480,-0.04712,0.01745,0.04887,0.00000,0.00000,0.00000,47,2,66,-2,39,8,63,34,ok,4,0,0.001,3,-1.41,-0.77,9.54,23,0.089,8.16
2.9681,-0.04712,0.01745,0.04887,0.00000,0.00000,0.00000,48,2,64,-3,40,8,63,36,ok,4,0,0.001,3,-1.41,-0.77,9.54,23,0.101,8.16
2.9731,-0.04712,0.01745,0.04887,0.00000,0.00000,0.00000,48,3,62,-4,41,7,64,36,ok,4,0,0.001,3,-1.41,-0.77,9.54,23,0.114,8.16
2.9854,-0.04712,0.01745,0.04887,0.00000,0.00000,0.00000,48,3,61,-6,42,7,65,35,ok,4,0,0.001,3,-1.41,-0.77,9.54,23,0.126,8.16
3.0081,-0.04712,0.01745,0.04887,0.00000,0.00000,0.00000,49,3,60,-8,43,7,67,33,ok,4,0,0.001,3,-1.41,-0.77,9.54,23,0.139,8.16
3.0113,-0.04712,0.01745,0.04887,0.00000,0.00000,0.00000,50,3,58,-8,44,7,69,27,ok,4,0,0.001,3,-1.41,-0.77,9.54,23,0.152,8.16
3.0242,-0.04712,0.01745,0.04887,0.00000,0.00000,0.00000,50,3,55,-9,45,7,70,24,ok,2,0,0.001,3,-1.41,-0.77,9.54,23,0.165,8.16
3.0441,-0.04712,0.01745,0.04887,0.00000,0.00000,0.00000,50,3,53,-9,46,7,72,21,ok,2,0,0.001,3,-1.41,-0.77,9.54,23,0.177,8.16
3.0490,-0.04712,0.01745,0.04887,0.00000,0.00000,0.00000,50,5,51,-10,47,7,72,20,ok,2,0,0.001,3,-1.41,-0.77,9.54,23,0.190,8.16
3.0618,-0.16232,0.04189,0.09076,0.00000,0.00000,0.00000,51,6,49,-10,47,7,72,18,ok,2,0,0.001,3,0.48,-1.62,10.15,24,0.000,8.16
3.0841,-0.16232,0.04189,0.09076,0.00000,0.00000,0.00000,52,5,46,-10,48,7,73,15,ok,2,0,0.001,3,0.48,-1.62,10.15,24,0.013,8.16
3.0873,-0.16232,0.04189,0.09076,0.00000,0.00000,0.00000,52,6,44,-9,49,7,72,12,ok,2,0,0.001,3,0.48,-1.62,10.15,24,0.026,8.16
3.0999,-0.16232,0.04189,0.09076,0.00000,0.00000,0.00000,52,6,41,-9,49,7,72,11,ok,2,0,0.001,3,0.48,-1.62,10.15,24,0.038,8.16
3.1201,-0.16232,0.04189,0.09076,0.00000,0.00000,0.00000,53,6,39,-10,50,7,71,7,ok,2,0,0.001,3,0.48,-1.62,10.15,24,0.051,8.16
3.1250,-0.16232,0.04189,0.09076,0.00000,0.00000,0.00000,54,6,36,-9,51,6,71,6,ok,2,0,0.001,3,0.48,-1.62,10.15,24,0.063,8.16
3.1376,-0.16232,0.04189,0.09076,0.00000,0.00000,0.00000,54,6,33,-8,52,7,70,4,ok,2,0,0.001,3,0.48,-1.62,10.15,24,0.076,8.16
3.1601,-0.16232,0.04189,0.09076,0.00000,0.00000,0.00000,54,7,30,-7,53,7,68,2,ok,2,0,0.001,3,0.48,-1.62,10.15,24,0.088,8.16
3.1632,-0.16232,0.04189,0.09076,0.00000,0.00000,0.00000,54,7,27,-6,54,8,66,2,ok,2,0,0.001,3,0.48,-1.62,10.15,24,0.102,8.16
3.1760,-0.16232,0.04189,0.09076,0.00000,0.00000,0.00000,54,8,24,-4,55,8,65,0,ok,2,0,0.001,3,0.48,-1.62,10.15,24,0.114,8.16
3.1961,-0.16232,0.04189,0.09076,0.00000,0.00000,0.00000,55,9,20,-2,56,8,64,-2,ok,2,0,0.001,3,0.48,-1.62,10.15,24,0.127,8.16
3.2010,-0.16232,0.04189,0.09076,0.00000,0.00000,0.00000,55,10,19,-1,58,6,62,-3,ok,2,0,0.001,3,0.48,-1.62,10.15,24,0.139,8.16
3.2134,-0.16232,0.04189,0.09076,0.00000,0.00000,0.00000,56,10,18,0,58,7,60,-4,ok,2,0,0.001,3,0.48,-1.62,10.15,24,0.152,8.16
3.2361,-0.16232,0.04189,0.09076,0.00000,0.00000,0.00000,56,11,16,3,59,8,58,-4,ok,2,0,0.001,3,0.48,-1.62,10.15,24,0.164,8.16
3.2392,-0.16232,0.04189,0.09076,0.00000,0.00000,0.00000,56,11,14,6,59,8,55,-5,ok,2,0,0.001,3,0.48,-1.62,10.15,24,0.178,8.16
3.2520,-0.16232,0.04189,0.09076,0.00000,0.00000,0.00000,56,12,13,9,60,8,54,-6,ok,2,0,0.001,3,0.48,-1.62,10.15,24,0.190,8.16
3.2721,-0.07854,0.17104,0.09425,0.00000,0.00000,0.00000,56,12,12,11,60,9,50,-5,ok,2,0,0.001,3,1.25,-0.72,9.88,25,0.000,8.16
3.2770,-0.07854,0.17104,0.09425,0.00000,0.00000,0.00000,56,13,14,12,60,9,48,-5,ok,2,0,0.001,3,1.25,-0.72,9.88,25,0.012,8.16
3.2894,-0.07854,0.17104,0.09425,0.00000,0.00000,0.00000,56,14,15,11,61,10,45,-5,ok,2,0,0.001,3,1.25,-0.72,9.88,25,0.025,8.16
3.3121,-0.07854,0.17104,0.09425,0.00000,0.00000,0.00000,56,14,16,10,61,10,42,-4,ok,2,0,0.001,3,1.25,-0.72,9.88,25,0.038,8.16
3.3153,-0.07854,0.17104,0.09425,0.00000,0.00000,0.00000,56,15,18,9,62,11,40,-4,ok,2,0,0.001,3,1.25,-0.72,9.88,25,0.051,8.16
3.3282,-0.07854,0.17104,0.09425,0.00000,0.00000,0.00000,56,16,18,8,62,12,37,-3,ok,2,0,0.001,3,1.25,-0.72,9.88,25,0.064,8.16
3.3481,-0.07854,0.17104,0.09425,0.00000,0.00000,0.00000,56,16,20,7,62,12,35,-3,ok,2,0,0.001,3,1.25,-0.72,9.88,25,0.076,8.16
3.3530,-0.07854,0.17104,0.09425,0.00000,0.00000,0.00000,56,17,20,7,62,14,31,-1,ok,2,0,0.001,3,1.25,-0.72,9.88,25,0.089,8.16
3.3654,-0.07854,0.17104,0.09425,0.00000,0.00000,0.00000,57,19,21,6,63,14,30,0,ok,2,0,0.001,3,1.25,-0.72,9.88,25,0.101,8.16
3.3881,-0.07854,0.17104,0.09425,0.00000,0.00000,0.00000,57,20,23,5,63,15,28,2,ok,2,0,0.001,3,1.25,-0.72,9.88,25,0.114,8.16
3.3913,-0.07854,0.17104,0.09425,0.00000,0.00000,0.00000,57,21,23,5,63,16,26,5,ok,2,0,0.001,3,1.25,-0.72,9.88,25,0.127,8.16
3.4042,-0.07854,0.17104,0.09425,0.00000,0.00000,0.00000,57,22,24,4,64,17,25,7,ok,2,0,0.001,3,1.25,-0.72,9.88,25,0.140,8.16
3.4241,-0.07854,0.17104,0.09425,0.00000,0.00000,0.00000,57,22,24,3,65,17,24,11,ok,2,0,0.001,3,1.25,-0.72,9.88,25,0.152,8.16
3.4290,-0.07854,0.17104,0.09425,0.00000,0.00000,0.00000,56,25,26,3,64,18,23,13,ok,2,0,0.001,3,1.25,-0.72,9.88,25,0.165,8.16
3.4414,-0.07854,0.17104,0.09425,0.00000,0.00000,0.00000,56,26,26,2,65,19,25,12,ok,2,0,0.001,3,1.25,-0.72,9.88,25,0.177,8.16
3.4641,-0.07854,0.17104,0.09425,0.00000,0.00000,0.00000,57,24,27,2,65,21,25,12,ok,2,0,0.001,3,1.25,-0.72,9.88,25,0.190,8.16
3.4676,-0.07854,0.04189,0.10821,0.00000,0.00000,0.00000,58,21,29,2,65,22,26,10,ok,2,0,0.001,3,0.49,-1.35,10.16,26,0.000,8.16
3.4802,-0.07854,0.04189,0.10821,0.00000,0.00000,0.00000,60,17,30,1,65,23,27,10,ok,2,0,0.001,3,0.49,-1.35,10.16,26,0.013,8.16
3.5001,-0.07854,0.04189,0.10821,0.00000,0.00000,0.00000,60,12,31,1,65,25,29,10,ok,2,0,0.001,3,0.49,-1.35,10.16,26,0.025,8.16
3.5050,-0.07854,0.04189,0.10821,0.00000,0.00000,0.00000,60,10,33,1,66,25,30,9,ok,2,0,0.001,3,0.49,-1.35,10.16,26,0.038,8.16
3.5174,-0.07854,0.04189,0.10821,0.00000,0.00000,0.00000,60,10,35,1,65,28,31,9,ok,2,0,0.001,3,0.49,-1.35,10.16,26,0.050,8.16
3.5401,-0.07854,0.04189,0.10821,0.00000,0.00000,0.00000,60,7,36,1,65,29,33,9,ok,2,0,0.001,3,0.49,-1.35,10.16,26,0.063,8.16
3.5433,-0.07854,0.04189,0.10821,0.00000,0.00000,0.00000,60,5,38,2,65,30,34,9,ok,2,0,0.001,3,0.49,-1.35,10.16,26,0.076,8.16
3.5562,-0.07854,0.04189,0.10821,0.00000,0.00000,0.00000,60,2,40,2,65,32,35,9,ok,2,0,0.001,3,0.49,-1.35,10.16,26,0.089,8.16
3.5761,-0.07854,0.04189,0.10821,0.00000,0.00000,0.00000,59,0,41,2,64,33,36,8,ok,2,0,0.001,4,0.49,-1.35,10.16,26,0.101,8.16
3.5809,-0.07854,0.04189,0.10821,0.00000,0.00000,0.00000,58,-2,42,2,64,35,37,8,ok,2,0,0.001,4,0.49,-1.35,10.16,26,0.114,8.16
3.5934,-0.07854,0.04189,0.10821,0.00000,0.00000,0.00000,58,-3,44,2,65,35,38,8,ok,2,0,0.001,4,0.49,-1.35,10.16,26,0.126,8.16
3.6161,-0.07854,0.04189,0.10821,0.00000,0.00000,0.00000,56,-5,44,2,66,35,39,8,ok,2,0,0.001,4,0.49,-1.35,10.16,26,0.139,8.16
3.6193,-0.07854,0.04189,0.10821,0.00000,0.00000,0.00000,56,-6,45,3,68,33,41,7,ok,2,0,0.001,4,0.49,-1.35,10.16,26,0.152,8.16
3.6320,-0.07854,0.04189,0.10821,0.00000,0.00000,0.00000,56,-8,46,3,70,28,42,7,ok,2,0,0.001,4,0.49,-1.35,10.16,26,0.165,8.16
3.6521,-0.07854,0.04189,0.10821,0.00000,0.00000,0.00000,54,-9,48,4,71,24,43,7,ok,2,0,0.001,4,0.49,-1.35,10.16,26,0.177,8.16
3.6570,-0.07854,0.04189,0.10821,0.00000,0.00000,0.00000,54,-10,49,4,73,21,44,7,ok,2,0,0.001,4,0.49,-1.35,10.16,26,0.190,8.16
3.6698,-0.01571,0.04712,0.10821,0.00000,0.00000,0.00000,52,-10,49,4,74,20,45,8,ok,2,0,0.001,4,-0.03,-0.17,10.49,27,0.000,8.16
3.6921,-0.01571,0.04712,0.10821,0.00000,0.00000,0.00000,51,-11,49,5,74,18,46,7,ok,2,0,0.001,4,-0.03,-0.17,10.49,27,0.013,8.16
3.6953,-0.01571,0.04712,0.10821,0.00000,0.00000,0.00000,50,-11,51,6,74,15,47,8,ok,2,0,0.001,4,-0.03,-0.17,10.49,27,0.026,8.16
3.7082,-0.01571,0.04712,0.10821,0.00000,0.00000,0.00000,48,-11,52,6,74,12,48,8,ok,2,0,0.001,4,-0.03,-0.17,10.49,27,0.039,8.16
3.7281,-0.01571,0.04712,0.10821,0.00000,0.00000,0.00000,47,-10,53,6,73,10,49,8,ok,2,0,0.001,4,-0.03,-0.17,10.49,27,0.051,8.16
3.7330,-0.01571,0.04712,0.10821,0.00000,0.00000,0.00000,46,-10,53,7,72,6,49,9,ok,2,0,0.001,4,-0.03,-0.17,10.49,27,0.063,8.16
3.7454,-0.01571,0.04712,0.10821,0.00000,0.00000,0.00000,44,-10,55,7,72,5,50,8,ok,2,0,0.001,4,-0.03,-0.17,10.49,27,0.076,8.16
3.7681,-0.01571,0.04712,0.10821,0.00000,0.00000,0.00000,43,-9,55,6,71,3,51,9,ok,2,0,0.001,4,-0.03,-0.17,10.49,27,0.089,8.16
3.7712,-0.01571,0.04712,0.10821,0.00000,0.00000,0.00000,42,-8,56,7,69,1,52,8,ok,2,0,0.001,4,-0.03,-0.17,10.49,27,0.102,8.16
3.7839,-0.01571,0.04712,0.10821,0.00000,0.00000,0.00000,40,-7,57,8,66,1,52,8,ok,2,0,0.001,4,-0.03,-0.17,10.49,27,0.115,8.16
3.8081,-0.01571,0.04712,0.10821,0.00000,0.00000,0.00000,38,-6,57,7,65,-1,53,8,ok,2,0,0.001,4,-0.03,-0.17,10.49,27,0.127,8.16
3.8114,-0.01571,0.04712,0.10821,0.00000,0.00000,0.00000,37,-4,58,8,64,-3,54,9,ok,2,0,0.001,4,-0.03,-0.17,10.49,27,0.142,8.16
3.8240,-0.01571,0.04712,0.10821,0.00000,0.00000,0.00000,35,-2,59,9,62,-4,55,9,ok,2,0,0.001,4,-0.03,-0.17,10.49,27,0.155,8.16
3.8442,-0.01571,0.04712,0.10821,0.00000,0.00000,0.00000,34,-2,60,11,61,-5,55,8,ok,2,0,0.001,4,-0.03,-0.17,10.49,27,0.167,8.16
3.8491,-0.01571,0.04712,0.10821,0.00000,0.00000,0.00000,34,-1,60,10,59,-6,57,6,ok,2,0,0.001,4,-0.03,-0.17,10.49,27,0.180,8.16
3.8615,-0.01571,0.04712,0.10821,0.00000,0.00000,0.00000,33,2,60,11,56,-7,57,7,ok,2,0,0.001,4,-0.03,-0.17,10.49,27,0.192,8.16
3.8841,-0.02094,0.03316,0.12741,0.00000,0.00000,0.00000,32,5,61,11,54,-7,58,8,ok,2,0,0.001,4,0.01,-0.72,10.14,28,0.000,8.16
3.8874,-0.02094,0.03316,0.12741,0.00000,0.00000,0.00000,32,8,61,12,51,-7,59,9,ok,2,0,0.001,4,0.01,-0.72,10.14,28,0.013,8.16
3.9000,-0.02094,0.03316,0.12741,0.00000,0.00000,0.00000,31,10,61,12,48,-6,59,9,ok,2,0,0.001,4,0.01,-0.72,10.14,28,0.026,8.16
3.9201,-0.02094,0.03316,0.12741,0.00000,0.00000,0.00000,32,11,61,13,46,-6,60,10,ok,2,0,0.001,4,0.01,-0.72,10.14,28,0.038,8.16
3.9249,-0.02094,0.03316,0.12741,0.00000,0.00000,0.00000,32,11,61,13,43,-5,60,10,ok,2,0,0.001,4,0.01,-0.72,10.14,28,0.051,8.16
3.9377,-0.02094,0.03316,0.12741,0.00000,0.00000,0.00000,33,9,62,14,41,-5,61,11,ok,2,0,0.001,4,0.01,-0.72,10.14,28,0.063,8.16
3.9601,-0.02094,0.03316,0.12741,0.00000,0.00000,0.00000,34,9,61,14,38,-4,61,12,ok,2,0,0.001,4,0.01,-0.72,10.14,28,0.076,8.16
3.9634,-0.02094,0.03316,0.12741,0.00000,0.00000,0.00000,34,8,62,15,35,-4,61,13,ok,2,0,0.001,4,0.01,-0.72,10.14,28,0.089,8.16
3.9759,-0.02094,0.03316,0.12741,0.00000,0.00000,0.00000,35,7,62,16,32,-2,61,13,ok,2,0,0.001,4,0.01,-0.72,10.14,28,0.102,8.16
3.9961,-0.02094,0.03316,0.12741,0.00000,0.00000,0.00000,35,7,62,17,30,0,62,14,ok,2,0,0.001,4,0.01,-0.72,10.14,28,0.114,8.16
4.0009,-0.02094,0.03316,0.12741,0.00000,0.00000,0.00000,36,6,64,18,28,1,62,15,ok,2,0,0.001,4,0.01,-0.72,10.14,28,0.127,8.16
4.0136,-0.02094,0.03316,0.12741,0.00000,0.00000,0.00000,37,5,64,19,26,4,63,15,ok,2,0,0.001,4,0.01,-0.72,10.14,28,0.139,8.16
4.0361,-0.02094,0.03316,0.12741,0.00000,0.00000,0.00000,37,4,64,20,24,7,63,16,ok,2,0,0.001,4,0.01,-0.72,10.14,28,0.152,8.16
4.0393,-0.02094,0.03316,0.12741,0.00000,0.00000,0.00000,38,4,64,22,23,11,63,18,ok,2,0,0.001,4,0.01,-0.72,10.14,28,0.165,8.16
4.0520,-0.02094,0.03316,0.12741,0.00000,0.00000,0.00000,38,3,64,23,22,14,64,18,ok,2,0,0.001,4,0.01,-0.72,10.14,28,0.178,8.16
4.0721,-0.02094,0.03316,0.12741,0.00000,0.00000,0.00000,39,3,63,25,24,13,64,19,ok,2,0,0.001,4,0.01,-0.72,10.14,28,0.191,8.16
4.0772,-0.02094,0.03316,0.12741,0.00000,0.00000,0.00000,40,2,63,27,24,13,64,20,ok,2,0,0.001,4,0.01,-0.72,10.14,28,0.203,8.16
4.0898,-0.05411,0.01920,0.06981,0.00000,0.00000,0.00000,40,2,64,25,25,11,64,21,ok,2,0,0.001,4,0.78,0.29,10.33,29,0.000,8.16
4.1121,-0.05411,0.01920,0.06981,0.00000,0.00000,0.00000,40,1,67,22,27,10,65,21,ok,2,0,0.001,4,0.78,0.29,10.33,29,0.012,8.16
4.1154,-0.05411,0.01920,0.06981,0.00000,0.00000,0.00000,41,1,69,19,28,10,65,23,ok,2,0,0.001,4,0.78,0.29,10.33,29,0.026,8.16
4.1280,-0.05411,0.01920,0.06981,0.00000,0.00000,0.00000,42,1,70,15,29,10,64,24,ok,2,0,0.001,4,0.78,0.29,10.33,29,0.038,8.16
4.1481,-0.05411,0.01920,0.06981,0.00000,0.00000,0.00000,42,1,70,12,30,9,64,26,ok,2,0,0.001,4,0.78,0.29,10.33,29,0.051,8.16
4.1529,-0.05411,0.01920,0.06981,0.00000,0.00000,0.00000,44,1,70,12,33,9,65,27,ok,2,0,0.001,4,0.78,0.29,10.33,29,0.063,8.16
4.1655,-0.05411,0.01920,0.06981,0.00000,0.00000,0.00000,44,1,70,9,33,9,64,29,ok,2,0,0.001,4,0.78,0.29,10.33,29,0.076,8.16
4.1881,-0.05411,0.01920,0.06981,0.00000,0.00000,0.00000,45,2,69,6,35,9,64,30,ok,2,0,0.001,4,0.78,0.29,10.33,29,0.088,8.16
4.1913,-0.05411,0.01920,0.06981,0.00000,0.00000,0.00000,46,2,69,3,37,8,64,31,ok,2,0,0.001,4,0.78,0.29,10.33,29,0.102,8.16
4.2039,-0.05411,0.01920,0.06981,0.00000,0.00000,0.00000,46,2,67,0,38,9,64,33,ok,2,0,0.001,4,0.78,0.29,10.33,29,0.114,8.16
4.2241,-0.05411,0.01920,0.06981,0.00000,0.00000,0.00000,47,2,66,-2,39,8,63,35,ok,2,0,0.001,4,0.78,0.29,10.33,29,0.127,8.16
4.2289,-0.05411,0.01920,0.06981,0.00000,0.00000,0.00000,48,2,64,-3,40,8,63,36,ok,2,0,0.001,4,0.78,0.29,10.33,29,0.139,8.16
4.2415,-0.05411,0.01920,0.06981,0.00000,0.00000,0.00000,48,3,62,-4,41,7,64,36,ok,2,0,0.001,4,0.78,0.29,10.33,29,0.152,8.16
4.2641,-0.05411,0.01920,0.06981,0.00000,0.00000,0.00000,48,3,61,-6,42,7,65,35,ok,2,0,0.001,4,0.78,0.29,10.33,29,0.164,8.16
4.2674,-0.05411,0.01920,0.06981,0.00000,0.00000,0.00000,49,3,60,-8,43,7,67,33,ok,2,0,0.001,4,0.78,0.29,10.33,29,0.178,8.16
4.2799,-0.05411,0.01920,0.06981,0.00000,0.00000,0.00000,50,3,58,-8,44,7,69,27,ok,2,0,0.001,4,0.78,0.29,10.33,29,0.190,8.16
4.3001,-0.10297,0.04538,0.08029,0.00000,0.00000,0.00000,50,3,55,-9,45,7,70,24,ok,2,0,0.001,4,0.30,-0.26,10.38,30,0.000,8.16
4.3049,-0.10297,0.04538,0.08029,0.00000,0.00000,0.00000,50,3,53,-9,46,7,72,21,ok,2,0,0.001,4,0.30,-0.26,10.38,30,0.012,8.16
4.3175,-0.10297,0.04538,0.08029,0.00000,0.00000,0.00000,50,5,51,-10,47,7,72,21,ok,2,0,0.001,4,0.30,-0.26,10.38,30,0.025,8.16
4.3401,-0.10297,0.04538,0.08029,0.00000,0.00000,0.00000,51,5,49,-10,47,7,73,19,ok,2,0,0.001,4,0.30,-0.26,10.38,30,0.038,8.16
4.3433,-0.10297,0.04538,0.08029,0.00000,0.00000,0.00000,52,5,46,-10,49,7,73,15,ok,2,0,0.001,4,0.30,-0.26,10.38,30,0.051,8.16
4.3561,-0.10297,0.04538,0.08029,0.00000,0.00000,0.00000,52,6,44,-9,49,7,72,12,ok,2,0,0.001,4,0.30,-0.26,10.38,30,0.064,8.16
4.3761,-0.10297,0.04538,0.08029,0.00000,0.00000,0.00000,52,6,41,-10,50,7,72,11,ok,2,0,0.001,4,0.30,-0.26,10.38,30,0.076,8.16
4.3810,-0.10297,0.04538,0.08029,0.00000,0.00000,0.00000,53,6,39,-10,51,7,71,7,ok,2,0,0.001,4,0.30,-0.26,10.38,30,0.088,8.16
4.3935,-0.10297,0.04538,0.08029,0.00000,0.00000,0.00000,53,6,36,-9,52,6,71,6,ok,2,0,0.001,4,0.30,-0.26,10.38,30,0.101,8.16
4.4161,-0.10297,0.04538,0.08029,0.00000,0.00000,0.00000,54,7,33,-8,52,7,70,4,ok,2,0,0.001,4,0.30,-0.26,10.38,30,0.114,8.16
4.4196,-0.10297,0.04538,0.08029,0.00000,0.00000,0.00000,54,8,30,-7,53,7,68,2,ok,2,0,0.001,4,0.30,-0.26,10.38,30,0.127,8.16
4.4320,-0.10297,0.04538,0.08029,0.00000,0.00000,0.00000,54,8,27,-6,54,8,66,2,ok,2,0,0.001,4,0.30,-0.26,10.38,30,0.140,8.16
4.4521,-0.10297,0.04538,0.08029,0.00000,0.00000,0.00000,54,8,24,-4,55,8,65,0,ok,2,0,0.001,4,0.30,-0.26,10.38,30,0.152,8.16
4.4570,-0.10297,0.04538,0.08029,0.00000,0.00000,0.00000,55,10,20,-2,56,8,64,-2,ok,2,0,0.001,4,0.30,-0.26,10.38,30,0.165,8.16
4.4695,-0.10297,0.04538,0.08029,0.00000,0.00000,0.00000,55,10,19,-1,58,6,62,-3,ok,2,0,0.001,4,0.30,-0.26,10.38,30,0.177,8.16
4.4921,-0.10297,0.04538,0.08029,0.00000,0.00000,0.00000,56,9,18,1,58,7,60,-4,ok,2,0,0.001,4,0.30,-0.26,10.38,30,0.190,8.16
4.4957,0.01745,0.07156,0.03665,0.00000,0.00000,0.00000,56,10,16,3,59,8,58,-4,ok,2,0,0.001,4,0.63,0.51,10.19,31,0.000,8.16
4.5080,0.01745,0.07156,0.03665,0.00000,0.00000,0.00000,56,11,14,6,59,8,55,-5,ok,2,0,0.001,4,0.63,0.51,10.19,31,0.013,8.16
4.5281,0.01745,0.07156,0.03665,0.00000,0.00000,0.00000,56,12,13,9,60,9,53,-6,ok,2,0,0.001,4,0.63,0.51,10.19,31,0.025,8.16
4.5331,0.01745,0.07156,0.03665,0.00000,0.00000,0.00000,56,12,12,11,61,9,50,-5,ok,2,0,0.001,4,0.63,0.51,10.19,31,0.038,8.16
4.5455,0.01745,0.07156,0.03665,0.00000,0.00000,0.00000,56,13,14,12,61,10,47,-5,ok,2,0,0.001,4,0.63,0.51,10.19,31,0.050,8.16
4.5681,0.01745,0.07156,0.03665,0.00000,0.00000,0.00000,56,14,15,11,61,10,45,-5,ok,2,0,0.001,4,0.63,0.51,10.19,31,0.063,8.16
4.5713,0.01745,0.07156,0.03665,0.00000,0.00000,0.00000,56,14,16,10,62,11,42,-4,ok,2,0,0.001,4,0.63,0.51,10.19,31,0.076,8.16
4.5845,0.01745,0.07156,0.03665,0.00000,0.00000,0.00000,56,15,18,9,62,12,40,-4,ok,2,0,0.001,5,0.63,0.51,10.19,31,0.089,8.16
4.6041,0.01745,0.07156,0.03665,0.00000,0.00000,0.00000,56,16,19,8,61,12,37,-3,ok,2,0,0.001,5,0.63,0.51,10.19,31,0.101,8.16
4.6091,0.01745,0.07156,0.03665,0.00000,0.00000,0.00000,56,17,20,7,62,13,35,-3,ok,2,0,0.001,5,0.63,0.51,10.19,31,0.114,8.16
4.6215,0.01745,0.07156,0.03665,0.00000,0.00000,0.00000,56,18,21,7,62,14,31,-1,ok,2,0,0.001,5,0.63,0.51,10.19,31,0.126,8.16
4.6441,0.01745,0.07156,0.03665,0.00000,0.00000,0.00000,57,19,22,6,63,14,30,0,ok,2,0,0.001,5,0.63,0.51,10.19,31,0.139,8.16
4.6474,0.01745,0.07156,0.03665,0.00000,0.00000,0.00000,57,19,24,5,63,15,27,1,ok,2,0,0.001,5,0.63,0.51,10.19,31,0.152,8.16
4.6599,0.01745,0.07156,0.03665,0.00000,0.00000,0.00000,57,20,24,5,63,16,25,5,ok,2,0,0.001,5,0.63,0.51,10.19,31,0.165,8.16
4.6841,0.01745,0.07156,0.03665,0.00000,0.00000,0.00000,57,21,25,4,64,17,24,7,ok,2,0,0.001,5,0.63,0.51,10.19,31,0.177,8.16
4.6873,0.01745,0.07156,0.03665,0.00000,0.00000,0.00000,57,22,25,3,64,18,23,11,ok,2,0,0.001,5,0.63,0.51,10.19,31,0.192,8.16
4.7003,-0.07330,0.08901,0.05585,0.00000,0.00000,0.00000,57,25,27,3,64,19,22,13,ok,2,0,0.001,5,0.87,-1.34,9.04,32,0.000,8.16
4.7201,-0.07330,0.08901,0.05585,0.00000,0.00000,0.00000,57,26,27,2,64,19,25,12,ok,2,0,0.001,5,0.87,-1.34,9.04,32,0.013,8.16
4.7250,-0.07330,0.08901,0.05585,0.00000,0.00000,0.00000,58,24,29,2,64,20,25,12,ok,2,0,0.001,5,0.87,-1.34,9.04,32,0.025,8.16
4.7374,-0.07330,0.08901,0.05585,0.00000,0.00000,0.00000,58,21,30,2,65,22,26,10,ok,2,0,0.001,5,0.87,-1.34,9.04,32,0.038,8.16
4.7601,-0.07330,0.08901,0.05585,0.00000,0.00000,0.00000,60,17,31,2,64,23,27,9,ok,2,0,0.001,5,0.87,-1.34,9.04,32,0.050,8.16
4.7633,-0.07330,0.08901,0.05585,0.00000,0.00000,0.00000,60,12,32,2,64,24,28,10,ok,2,0,0.001,5,0.87,-1.34,9.04,32,0.063,8.16
4.7762,-0.07330,0.08901,0.05585,0.00000,0.00000,0.00000,60,10,33,2,65,25,29,9,ok,2,0,0.001,5,0.87,-1.34,9.04,32,0.076,8.16
4.7961,-0.07330,0.08901,0.05585,0.00000,0.00000,0.00000,60,10,35,2,64,27,31,9,ok,2,0,0.001,5,0.87,-1.34,9.04,32,0.089,8.16
4.8010,-0.07330,0.08901,0.05585,0.00000,0.00000,0.00000,60,6,36,2,64,29,33,9,ok,2,0,0.001,5,0.87,-1.34,9.04,32,0.101,8.16
4.8134,-0.07330,0.08901,0.05585,0.00000,0.00000,0.00000,60,4,38,3,64,30,33,9,ok,2,0,0.001,5,0.87,-1.34,9.04,32,0.114,8.16
4.8361,-0.07330,0.08901,0.05585,0.00000,0.00000,0.00000,60,1,39,3,64,32,35,9,ok,2,0,0.001,5,0.87,-1.34,9.04,32,0.126,8.16
4.8394,-0.07330,0.08901,0.05585,0.00000,0.00000,0.00000,59,-1,41,3,64,34,36,9,ok,2,0,0.001,5,0.87,-1.34,9.04,32,0.139,8.16
4.8520,-0.07330,0.08901,0.05585,0.00000,0.00000,0.00000,58,-3,42,2,64,35,37,9,ok,2,0,0.001,5,0.87,-1.34,9.04,32,0.152,8.16
4.8721,-0.07330,0.08901,0.05585,0.00000,0.00000,0.00000,58,-4,43,3,65,35,38,8,ok,2,0,0.001,5,0.87,-1.34,9.04,32,0.165,8.16
4.8769,-0.07330,0.08901,0.05585,0.00000,0.00000,0.00000,56,-5,44,3,66,35,39,8,ok,2,0,0.001,5,0.87,-1.34,9.04,32,0.177,8.16
4.8894,-0.07330,0.08901,0.05585,0.00000,0.00000,0.00000,56,-6,45,3,68,33,41,7,ok,2,0,0.001,5,0.87,-1.34,9.04,32,0.190,8.16
4.9121,-0.01396,0.01920,0.09599,0.00000,0.00000,0.00000,56,-8,46,3,70,28,42,7,ok,2,0,0.001,5,1.64,0.52,10.93,33,0.000,8.16
4.9155,-0.01396,0.01920,0.09599,0.00000,0.00000,0.00000,54,-9,47,4,72,24,43,7,ok,2,0,0.001,5,1.64,0.52,10.93,33,0.013,8.16
4.9280,-0.01396,0.01920,0.09599,0.00000,0.00000,0.00000,53,-10,49,3,73,22,44,7,ok,2,0,0.001,5,1.64,0.52,10.93,33,0.026,8.16
4.9481,-0.01396,0.01920,0.09599,0.00000,0.00000,0.00000,52,-10,49,3,74,21,45,7,ok,2,0,0.001,5,1.64,0.52,10.93,33,0.039,8.16
4.9530,-0.01396,0.01920,0.09599,0.00000,0.00000,0.00000,51,-11,49,5,74,19,46,7,ok,2,0,0.001,5,1.64,0.52,10.93,33,0.051,8.16
4.9655,-0.01396,0.01920,0.09599,0.00000,0.00000,0.00000,50,-11,51,6,74,15,47,8,ok,2,0,0.001,5,1.64,0.52,10.93,33,0.064,8.16
4.9881,-0.01396,0.01920,0.09599,0.00000,0.00000,0.00000,48,-11,52,5,74,12,48,8,ok,2,0,0.001,5,1.64,0.52,10.93,33,0.076,8.16
4.9914,-0.01396,0.01920,0.09599,0.00000,0.00000,0.00000,47,-10,53,6,73,10,49,8,ok,2,0,0.001,5,1.64,0.52,10.93,33,0.089,8.16
5.0040,-0.01396,0.01920,0.09599,0.00000,0.00000,0.00000,46,-10,53,6,72,6,49,9,ok,2,0,0.001,5,1.64,0.52,10.93,33,0.102,8.16
5.0241,-0.01396,0.01920,0.09599,0.00000,0.00000,0.00000,44,-11,55,7,72,5,50,8,ok,2,0,0.001,5,1.64,0.52,10.93,33,0.115,8.16
5.0360,-0.01396,0.01920,0.09599,0.00000,0.00000,0.00000,43,-10,56,7,71,3,51,9,ok,2,0,0.001,5,1.64,0.52,10.93,33,0.127,8.16
5.0414,-0.01396,0.01920,0.09599,0.00000,0.00000,0.00000,42,-8,57,7,69,1,52,8,ok,2,0,0.001,5,1.64,0.52,10.93,33,0.140,8.16
5.0641,-0.01396,0.01920,0.09599,0.00000,0.00000,0.00000,40,-7,57,8,66,1,52,8,ok,2,0,0.001,5,1.64,0.52,10.93,33,0.152,8.16
5.0675,-0.01396,0.01920,0.09599,0.00000,0.00000,0.00000,38,-6,58,8,65,-1,53,8,ok,2,0,0.001,5,1.64,0.52,10.93,33,0.165,8.16
5.0800,-0.01396,0.01920,0.09599,0.00000,0.00000,0.00000,37,-4,58,8,64,-3,54,9,ok,2,0,0.001,5,1.64,0.52,10.93,33,0.178,8.16
5.1001,-0.01396,0.01920,0.09599,0.00000,0.00000,0.00000,35,-2,59,9,61,-4,55,9,ok,2,0,0.001,5,1.64,0.52,10.93,33,0.191,8.16
5.1053,-0.01396,0.01920,0.09599,0.00000,0.00000,0.00000,34,-2,60,11,60,-5,55,8,ok,2,0,0.001,5,1.64,0.52,10.93,33,0.203,8.16
5.1177,0.01222,-0.01920,0.09599,0.00000,0.00000,0.00000,34,-1,61,10,59,-6,57,6,ok,2,0,0.001,5,0.30,0.52,10.26,34,0.000,8.16
5.1401,0.01222,-0.01920,0.09599,0.00000,0.00000,0.00000,33,2,61,11,56,-6,57,7,ok,2,0,0.001,5,0.30,0.52,10.26,34,0.012,8.16
5.1434,0.01222,-0.01920,0.09599,0.00000,0.00000,0.00000,32,5,61,11,54,-7,58,8,ok,2,0,0.001,5,0.30,0.52,10.26,34,0.026,8.16
5.1560,0.01222,-0.01920,0.09599,0.00000,0.00000,0.00000,32,8,61,12,51,-6,58,9,ok,2,0,0.001,5,0.30,0.52,10.26,34,0.038,8.16
5.1761,0.01222,-0.01920,0.09599,0.00000,0.00000,0.00000,31,11,61,12,48,-6,59,9,ok,2,0,0.001,5,0.30,0.52,10.26,34,0.051,8.16
5.1812,0.01222,-0.01920,0.09599,0.00000,0.00000,0.00000,32,11,62,13,46,-6,60,10,ok,2,0,0.001,5,0.30,0.52,10.26,34,0.063,8.16
5.1934,0.01222,-0.01920,0.09599,0.00000,0.00000,0.00000,32,11,62,13,43,-5,60,10,ok,2,0,0.001,5,0.30,0.52,10.26,34,0.076,8.16
5.2161,0.01222,-0.01920,0.09599,0.00000,0.00000,0.00000,33,10,62,14,40,-5,60,11,ok,2,0,0.001,5,0.30,0.52,10.26,34,0.088,8.16
5.2193,0.01222,-0.01920,0.09599,0.00000,0.00000,0.00000,34,9,62,14,37,-4,61,12,ok,2,0,0.001,5,0.30,0.52,10.26,34,0.102,8.16
5.2324,0.01222,-0.01920,0.09599,0.00000,0.00000,0.00000,34,9,63,15,34,-3,61,13,ok,2,0,0.001,5,0.30,0.52,10.26,34,0.115,8.16
5.2521,0.01222,-0.01920,0.09599,0.00000,0.00000,0.00000,35,8,63,15,31,-2,61,13,ok,2,0,0.001,5,0.30,0.52,10.26,34,0.127,8.16
5.2569,0.01222,-0.01920,0.09599,0.00000,0.00000,0.00000,36,7,63,17,30,0,62,14,ok,2,0,0.001,5,0.30,0.52,10.26,34,0.139,8.16
5.2694,0.01222,-0.01920,0.09599,0.00000,0.00000,0.00000,36,6,64,18,28,1,62,15,ok,2,0,0.001,5,0.30,0.52,10.26,34,0.152,8.16
5.2921,0.01222,-0.01920,0.09599,0.00000,0.00000,0.00000,37,5,64,19,25,5,63,15,ok,2,0,0.001,5,0.30,0.52,10.26,34,0.164,8.16
5.2953,0.01222,-0.01920,0.09599,0.00000,0.00000,0.00000,38,5,64,20,24,8,63,16,ok,2,0,0.001,5,0.30,0.52,10.26,34,0.178,8.16
5.3079,0.01222,-0.01920,0.09599,0.00000,0.00000,0.00000,38,4,64,22,23,11,63,18,ok,2,0,0.001,5,0.30,0.52,10.26,34,0.190,8.16
5.3281,-0.06458,0.02618,0.07505,0.00000,0.00000,0.00000,38,4,64,23,22,14,63,18,ok,2,0,0.001,5,1.47,0.71,11.12,35,0.000,8.16
5.3330,-0.06458,0.02618,0.07505,0.00000,0.00000,0.00000,39,3,63,26,24,13,64,19,ok,2,0,0.001,5,1.47,0.71,11.12,35,0.012,8.16
5.3454,-0.06458,0.02618,0.07505,0.00000,0.00000,0.00000,40,2,63,27,24,13,64,20,ok,2,0,0.001,5,1.47,0.71,11.12,35,0.025,8.16
5.3681,-0.06458,0.02618,0.07505,0.00000,0.00000,0.00000,40,2,65,26,25,11,64,21,ok,2,0,0.001,5,1.47,0.71,11.12,35,0.038,8.16
5.3714,-0.06458,0.02618,0.07505,0.00000,0.00000,0.00000,40,1,67,23,26,10,65,21,ok,2,0,0.001,5,1.47,0.71,11.12,35,0.051,8.16
5.3840,-0.06458,0.02618,0.07505,0.00000,0.00000,0.00000,41,1,69,19,27,10,65,23,ok,2,0,0.001,5,1.47,0.71,11.12,35,0.064,8.16
5.4041,-0.06458,0.02618,0.07505,0.00000,0.00000,0.00000,42,1,70,15,29,10,64,24,ok,2,0,0.001,5,1.47,0.71,11.12,35,0.076,8.16
5.4089,-0.06458,0.02618,0.07505,0.00000,0.00000,0.00000,42,1,71,13,30,9,64,26,ok,2,0,0.001,5,1.47,0.71,11.12,35,0.089,8.16
5.4215,-0.06458,0.02618,0.07505,0.00000,0.00000,0.00000,44,1,70,13,33,9,65,27,ok,2,0,0.001,5,1.47,0.71,11.12,35,0.101,8.16
5.4441,-0.06458,0.02618,0.07505,0.00000,0.00000,0.00000,44,1,70,9,33,9,64,29,ok,2,0,0.001,5,1.47,0.71,11.12,35,0.114,8.16
5.4475,-0.06458,0.02618,0.07505,0.00000,0.00000,0.00000,45,2,69,6,35,9,64,30,ok,2,0,0.001,5,1.47,0.71,11.12,35,0.127,8.16
5.4600,-0.06458,0.02618,0.07505,0.00000,0.00000,0.00000,46,2,69,3,36,8,64,31,ok,2,0,0.001,5,1.47,0.71,11.12,35,0.140,8.16
5.4801,-0.06458,0.02618,0.07505,0.00000,0.00000,0.00000,46,2,67,0,37,8,64,33,ok,2,0,0.001,5,1.47,0.71,11.12,35,0.152,8.16
5.4852,-0.06458,0.02618,0.07505,0.00000,0.00000,0.00000,47,2,66,-2,39,8,64,35,ok,2,0,0.001,5,1.47,0.71,11.12,35,0.165,8.16
5.4977,-0.06458,0.02618,0.07505,0.00000,0.00000,0.00000,48,3,64,-3,40,8,63,36,ok,2,0,0.001,5,1.47,0.71,11.12,35,0.177,8.16
5.5201,-0.06458,0.02618,0.07505,0.00000,0.00000,0.00000,48,3,62,-4,41,7,64,36,ok,2,0,0.001,5,1.47,0.71,11.12,35,0.190,8.16
5.5236,-0.13963,0.03316,0.10821,0.00000,0.00000,0.00000,48,3,61,-6,42,7,65,35,ok,2,0,0.001,5,-0.18,-1.26,7.48,36,0.000,8.16
5.5360,-0.13963,0.03316,0.10821,0.00000,0.00000,0.00000,49,3,60,-8,43,6,68,33,ok,2,0,0.001,5,-0.18,-1.26,7.48,36,0.013,8.16
5.5561,-0.13963,0.03316,0.10821,0.00000,0.00000,0.00000,50,3,58,-8,44,7,70,28,ok,2,0,0.001,5,-0.18,-1.26,7.48,36,0.025,8.16
5.5610,-0.13963,0.03316,0.10821,0.00000,0.00000,0.00000,50,3,55,-9,45,7,71,24,ok,2,0,0.001,5,-0.18,-1.26,7.48,36,0.038,8.16
5.5736,-0.13963,0.03316,0.10821,0.00000,0.00000,0.00000,50,3,53,-9,46,7,73,21,ok,2,0,0.001,5,-0.18,-1.26,7.48,36,0.050,8.16
5.5961,-0.13963,0.03316,0.10821,0.00000,0.00000,0.00000,50,5,51,-10,47,7,73,21,ok,2,0,0.001,5,-0.18,-1.26,7.48,36,0.063,8.16
5.5993,-0.13963,0.03316,0.10821,0.00000,0.00000,0.00000,51,5,49,-10,47,7,73,19,ok,2,0,0.001,6,-0.18,-1.26,7.48,36,0.076,8.16
5.6120,-0.13963,0.03316,0.10821,0.00000,0.00000,0.00000,52,5,46,-10,49,7,73,15,ok,2,0,0.002,6,-0.18,-1.26,7.48,36,0.089,8.16
5.6321,-0.13963,0.03316,0.10821,0.00000,0.00000,0.00000,52,6,44,-9,49,7,72,13,ok,2,0,0.002,6,-0.18,-1.26,7.48,36,0.101,8.16
5.6370,-0.13963,0.03316,0.10821,0.00000,0.00000,0.00000,52,6,41,-10,50,7,72,11,ok,2,0,0.002,6,-0.18,-1.26,7.48,36,0.114,8.16
5.6495,-0.13963,0.03316,0.10821,0.00000,0.00000,0.00000,53,7,39,-10,51,7,71,7,ok,2,0,0.002,6,-0.18,-1.26,7.48,36,0.126,8.16
5.6721,-0.13963,0.03316,0.10821,0.00000,0.00000,0.00000,54,7,36,-9,52,6,71,6,ok,2,0,0.002,6,-0.18,-1.26,7.48,36,0.139,8.16
5.6753,-0.13963,0.03316,0.10821,0.00000,0.00000,0.00000,54,7,33,-9,52,7,70,4,ok,2,0,0.002,6,-0.18,-1.26,7.48,36,0.152,8.16
5.6880,-0.13963,0.03316,0.10821,0.00000,0.00000,0.00000,54,8,30,-7,53,7,68,2,ok,2,0,0.002,6,-0.18,-1.26,7.48,36,0.165,8.16
5.7081,-0.13963,0.03316,0.10821,0.00000,0.00000,0.00000,54,8,27,-6,54,8,66,2,ok,2,0,0.002,6,-0.18,-1.26,7.48,36,0.177,8.16
5.7130,-0.13963,0.03316,0.10821,0.00000,0.00000,0.00000,54,9,24,-4,55,8,65,0,ok,2,0,0.002,6,-0.18,-1.26,7.48,36,0.190,8.16
5.7256,-0.13963,0.03316,0.10821,0.00000,0.00000,0.00000,55,10,20,-2,56,8,64,-2,ok,2,0,0.002,6,-0.18,-1.26,7.48,36,0.202,8.16
5.7481,-0.05760,0.01222,0.06109,0.00000,0.00000,0.00000,55,10,19,-1,58,6,62,-3,ok,2,0,0.002,6,0.91,-0.16,10.96,37,0.000,8.16
5.7514,-0.05760,0.01222,0.06109,0.00000,0.00000,0.00000,56,10,18,0,58,7,59,-4,ok,2,0,0.002,6,0.91,-0.16,10.96,37,0.013,8.16
5.7640,-0.05760,0.01222,0.06109,0.00000,0.00000,0.00000,56,11,16,2,59,8,58,-4,ok,2,0,0.002,6,0.91,-0.16,10.96,37,0.026,8.16
5.7841,-0.05760,0.01222,0.06109,0.00000,0.00000,0.00000,56,11,14,5,59,8,55,-5,ok,2,0,0.002,6,0.91,-0.16,10.96,37,0.038,8.16
5.7889,-0.05760,0.01222,0.06109,0.00000,0.00000,0.00000,56,12,13,9,60,9,53,-6,ok,2,0,0.002,6,0.91,-0.16,10.96,37,0.051,8.16
5.8014,-0.05760,0.01222,0.06109,0.00000,0.00000,0.00000,56,12,12,11,60,9,50,-5,ok,2,0,0.002,6,0.91,-0.16,10.96,37,0.063,8.16
5.8241,-0.05760,0.01222,0.06109,0.00000,0.00000,0.00000,56,14,14,11,61,9,47,-5,ok,2,0,0.002,6,0.91,-0.16,10.96,37,0.076,8.16
5.8274,-0.05760,0.01222,0.06109,0.00000,0.00000,0.00000,56,14,15,11,61,10,45,-5,ok,2,0,0.002,6,0.91,-0.16,10.96,37,0.089,8.16
5.8400,-0.05760,0.01222,0.06109,0.00000,0.00000,0.00000,56,14,17,10,61,10,42,-4,ok,2,0,0.002,6,0.91,-0.16,10.96,37,0.102,8.16
5.8601,-0.05760,0.01222,0.06109,0.00000,0.00000,0.00000,56,15,19,9,61,12,40,-4,ok,2,0,0.002,6,0.91,-0.16,10.96,37,0.114,8.16
5.8649,-0.05760,0.01222,0.06109,0.00000,0.00000,0.00000,56,16,19,8,61,12,37,-3,ok,2,0,0.002,6,0.91,-0.16,10.96,37,0.127,8.16
5.8777,-0.05760,0.01222,0.06109,0.00000,0.00000,0.00000,56,17,21,7,62,13,35,-3,ok,2,0,0.002,6,0.91,-0.16,10.96,37,0.139,8.16
5.9001,-0.05760,0.01222,0.06109,0.00000,0.00000,0.00000,56,17,21,7,62,14,31,-1,ok,2,0,0.002,6,0.91,-0.16,10.96,37,0.152,8.16
5.9033,-0.05760,0.01222,0.06109,0.00000,0.00000,0.00000,58,19,23,6,63,14,30,0,ok,2,0,0.002,6,0.91,-0.16,10.96,37,0.165,8.16
5.9159,-0.05760,0.01222,0.06109,0.00000,0.00000,0.00000,58,20,24,5,63,15,27,2,ok,2,0,0.002,6,0.91,-0.16,10.96,37,0.178,8.16
5.9361,-0.05760,0.01222,0.06109,0.00000,0.00000,0.00000,58,21,24,5,63,16,25,5,ok,2,0,0.002,6,0.91,-0.16,10.96,37,0.190,8.16
5.9413,-0.11868,0.12741,0.03840,0.00000,0.00000,0.00000,58,22,25,4,63,17,24,7,ok,2,0,0.002,6,1.33,-1.48,9.42,38,0.000,8.16
5.9534,-0.11868,0.12741,0.03840,0.00000,0.00000,0.00000,58,23,26,4,63,17,23,11,ok,2,0,0.002,6,1.33,-1.48,9.42,38,0.013,8.16
5.9761,-0.11868,0.12741,0.03840,0.00000,0.00000,0.00000,57,26,27,3,63,18,22,13,ok,2,0,0.002,6,1.33,-1.48,9.42,38,0.025,8.16
5.9795,-0.11868,0.12741,0.03840,0.00000,0.00000,0.00000,57,26,27,3,63,19,25,12,ok,2,0,0.002,6,1.33,-1.48,9.42,38,0.038,8.16
5.9920,-0.11868,0.12741,0.03840,0.00000,0.00000,0.00000,58,25,28,2,64,20,25,12,ok,2,0,0.002,6,1.33,-1.48,9.42,38,0.051,8.16
6.0121,-0.11868,0.12741,0.03840,0.00000,0.00000,0.00000,58,21,29,2,65,21,25,10,ok,2,0,0.002,6,1.33,-1.48,9.42,38,0.064,8.16
6.0170,-0.11868,0.12741,0.03840,0.00000,0.00000,0.00000,60,17,30,2,64,23,27,10,ok,2,0,0.002,6,1.33,-1.48,9.42,38,0.076,8.16
6.0294,-0.11868,0.12741,0.03840,0.00000,0.00000,0.00000,60,12,32,3,64,24,28,11,ok,2,0,0.002,6,1.33,-1.48,9.42,38,0.089,8.16
6.0521,-0.11868,0.12741,0.03840,0.00000,0.00000,0.00000,60,10,33,3,65,25,29,10,ok,2,0,0.002,6,1.33,-1.48,9.42,38,0.101,8.16
6.0552,-0.11868,0.12741,0.03840,0.00000,0.00000,0.00000,60,10,35,2,64,27,31,10,ok,2,0,0.002,6,1.33,-1.48,9.42,38,0.114,8.16
6.0679,-0.11868,0.12741,0.03840,0.00000,0.00000,0.00000,60,7,36,2,64,28,33,9,ok,2,0,0.002,6,1.33,-1.48,9.42,38,0.127,8.16
6.0881,-0.11868,0.12741,0.03840,0.00000,0.00000,0.00000,60,4,38,3,64,30,33,10,ok,2,0,0.002,6,1.33,-1.48,9.42,38,0.140,8.16
6.0930,-0.11868,0.12741,0.03840,0.00000,0.00000,0.00000,59,2,39,3,65,31,35,9,ok,2,0,0.002,6,1.33,-1.48,9.42,38,0.152,8.16
6.1056,-0.11868,0.12741,0.03840,0.00000,0.00000,0.00000,59,-1,40,3,64,33,36,9,ok,2,0,0.002,6,1.33,-1.48,9.42,38,0.165,8.16
6.1281,-0.11868,0.12741,0.03840,0.00000,0.00000,0.00000,58,-3,42,2,64,34,37,9,ok,2,0,0.002,6,1.33,-1.48,9.42,38,0.177,8.16
6.1313,-0.11868,0.12741,0.03840,0.00000,0.00000,0.00000,58,-4,43,2,65,35,38,8,ok,2,0,0.002,6,1.33,-1.48,9.42,38,0.190,8.16
6.1443,-0.03316,0.00175,0.07156,0.00000,0.00000,0.00000,56,-5,43,2,66,35,40,8,ok,2,0,0.002,6,0.77,0.86,10.55,39,0.000,8.16
6.1641,-0.03316,0.00175,0.07156,0.00000,0.00000,0.00000,56,-6,44,2,69,33,41,7,ok,2,0,0.002,6,0.77,0.86,10.55,39,0.012,8.16
6.1691,-0.03316,0.00175,0.07156,0.00000,0.00000,0.00000,56,-8,46,2,71,29,42,7,ok,2,0,0.002,6,0.77,0.86,10.55,39,0.025,8.16
6.1814,-0.03316,0.00175,0.07156,0.00000,0.00000,0.00000,54,-9,47,3,72,24,44,7,ok,2,0,0.002,6,0.77,0.86,10.55,39,0.038,8.16
6.2041,-0.03316,0.00175,0.07156,0.00000,0.00000,0.00000,53,-10,49,3,73,22,44,7,ok,2,0,0.002,6,0.77,0.86,10.55,39,0.050,8.16
6.2072,-0.03316,0.00175,0.07156,0.00000,0.00000,0.00000,52,-10,49,3,74,21,45,7,ok,2,0,0.002,6,0.77,0.86,10.55,39,0.063,8.16
6.2200,-0.03316,0.00175,0.07156,0.00000,0.00000,0.00000,51,-11,49,5,74,18,46,7,ok,2,0,0.002,6,0.77,0.86,10.55,39,0.076,8.16
6.2401,-0.03316,0.00175,0.07156,0.00000,0.00000,0.00000,50,-10,51,5,74,15,47,8,ok,2,0,0.002,6,0.77,0.86,10.55,39,0.089,8.16
6.2452,-0.03316,0.00175,0.07156,0.00000,0.00000,0.00000,48,-10,52,5,73,11,48,8,ok,2,0,0.002,6,0.77,0.86,10.55,39,0.101,8.16
6.2575,-0.03316,0.00175,0.07156,0.00000,0.00000,0.00000,48,-10,53,6,73,9,49,8,ok,2,0,0.002,6,0.77,0.86,10.55,39,0.113,8.16
6.2801,-0.03316,0.00175,0.07156,0.00000,0.00000,0.00000,46,-10,53,6,72,6,49,9,ok,2,0,0.002,6,0.77,0.86,10.55,39,0.126,8.16
6.2834,-0.03316,0.00175,0.07156,0.00000,0.00000,0.00000,44,-11,55,7,72,5,50,8,ok,2,0,0.002,6,0.77,0.86,10.55,39,0.139,8.16
6.2960,-0.03316,0.00175,0.07156,0.00000,0.00000,0.00000,44,-10,56,7,71,3,51,9,ok,2,0,0.002,6,0.77,0.86,10.55,39,0.152,8.16
6.3161,-0.03316,0.00175,0.07156,0.00000,0.00000,0.00000,42,-8,57,7,69,1,52,8,ok,2,0,0.002,6,0.77,0.86,10.55,39,0.164,8.16
6.3209,-0.03316,0.00175,0.07156,0.00000,0.00000,0.00000,40,-7,57,8,66,1,52,9,ok,2,0,0.002,6,0.77,0.86,10.55,39,0.177,8.16
6.3334,-0.03316,0.00175,0.07156,0.00000,0.00000,0.00000,38,-6,58,8,65,-1,52,9,ok,2,0,0.002,6,0.77,0.86,10.55,39,0.190,8.16
6.3561,-0.03316,0.00175,0.07156,0.00000,0.00000,0.00000,37,-4,58,8,64,-3,54,9,ok,2,0,0.002,6,0.77,0.86,10.55,39,0.202,8.16
6.3596,0.04887,0.00524,0.09425,0.00000,0.00000,0.00000,35,-2,59,9,62,-4,55,9,ok,2,0,0.002,6,-0.06,-0.05,8.75,40,0.000,8.16
6.3722,0.04887,0.00524,0.09425,0.00000,0.00000,0.00000,34,-1,60,10,61,-5,54,8,ok,2,0,0.002,6,-0.06,-0.05,8.75,40,0.013,8.16
6.3921,0.04887,0.00524,0.09425,0.00000,0.00000,0.00000,34,0,60,10,59,-5,56,6,ok,2,0,0.002,6,-0.06,-0.05,8.75,40,0.025,8.16
6.3970,0.04887,0.00524,0.09425,0.00000,0.00000,0.00000,33,2,61,11,56,-6,56,7,ok,2,0,0.002,6,-0.06,-0.05,8.75,40,0.038,8.16
6.4094,0.04887,0.00524,0.09425,0.00000,0.00000,0.00000,32,6,61,10,54,-7,57,8,ok,2,0,0.002,6,-0.06,-0.05,8.75,40,0.050,8.16
6.4321,0.04887,0.00524,0.09425,0.00000,0.00000,0.00000,32,9,61,11,51,-6,58,9,ok,2,0,0.002,6,-0.06,-0.05,8.75,40,0.063,8.16
6.4353,0.04887,0.00524,0.09425,0.00000,0.00000,0.00000,31,11,61,11,48,-6,59,9,ok,2,0,0.002,6,-0.06,-0.05,8.75,40,0.076,8.16
6.4480,0.04887,0.00524,0.09425,0.00000,0.00000,0.00000,32,12,62,12,46,-6,60,10,ok,2,0,0.002,6,-0.06,-0.05,8.75,40,0.089,8.16
6.4681,0.04887,0.00524,0.09425,0.00000,0.00000,0.00000,32,11,61,13,43,-5,59,10,ok,2,0,0.002,6,-0.06,-0.05,8.75,40,0.101,8.16
6.4730,0.04887,0.00524,0.09425,0.00000,0.00000,0.00000,33,10,62,13,40,-5,60,11,ok,2,0,0.002,6,-0.06,-0.05,8.75,40,0.114,8.16
6.4855,0.04887,0.00524,0.09425,0.00000,0.00000,0.00000,34,9,62,14,37,-4,61,12,ok,2,0,0.002,6,-0.06,-0.05,8.75,40,0.126,8.16
6.5081,0.04887,0.00524,0.09425,0.00000,0.00000,0.00000,34,9,62,15,35,-3,61,13,ok,2,0,0.002,6,-0.06,-0.05,8.75,40,0.139,8.16
6.5113,0.04887,0.00524,0.09425,0.00000,0.00000,0.00000,35,7,63,15,32,-2,61,13,ok,2,0,0.002,6,-0.06,-0.05,8.75,40,0.152,8.16
6.5240,0.04887,0.00524,0.09425,0.00000,0.00000,0.00000,36,7,63,17,30,0,62,14,ok,2,0,0.002,6,-0.06,-0.05,8.75,40,0.165,8.16
6.5441,0.04887,0.00524,0.09425,0.00000,0.00000,0.00000,36,6,64,18,28,1,62,15,ok,2,0,0.002,6,-0.06,-0.05,8.75,40,0.177,8.16
6.5494,-0.06283,-0.01571,0.09599,0.00000,0.00000,0.00000,37,5,64,19,26,5,63,15,ok,2,0,0.002,6,0.62,-0.29,9.61,41,0.000,8.16
6.5614,-0.06283,-0.01571,0.09599,0.00000,0.00000,0.00000,38,4,64,21,24,7,63,16,ok,2,0,0.002,6,0.62,-0.29,9.61,41,0.013,8.16
6.5841,-0.06283,-0.01571,0.09599,0.00000,0.00000,0.00000,38,4,64,22,23,11,63,18,ok,2,0,0.002,6,0.62,-0.29,9.61,41,0.025,8.16
6.5873,-0.06283,-0.01571,0.09599,0.00000,0.00000,0.00000,38,3,64,23,22,14,64,18,ok,2,0,0.002,6,0.62,-0.29,9.61,41,0.038,8.16
6.6000,-0.06283,-0.01571,0.09599,0.00000,0.00000,0.00000,39,3,63,26,23,13,64,19,ok,2,0,0.002,6,0.62,-0.29,9.61,41,0.051,8.16
6.6201,-0.06283,-0.01571,0.09599,0.00000,0.00000,0.00000,40,2,63,28,24,13,65,20,ok,2,0,0.002,7,0.62,-0.29,9.61,41,0.063,8.16
6.6252,-0.06283,-0.01571,0.09599,0.00000,0.00000,0.00000,40,1,65,26,25,11,64,21,ok,2,0,0.002,7,0.62,-0.29,9.61,41,0.076,8.16
6.6374,-0.06283,-0.01571,0.09599,0.00000,0.00000,0.00000,40,1,67,23,26,10,65,22,ok,2,0,0.002,7,0.62,-0.29,9.61,41,0.088,8.16
6.6601,-0.06283,-0.01571,0.09599,0.00000,0.00000,0.00000,41,0,70,20,27,10,65,23,ok,2,0,0.002,7,0.62,-0.29,9.61,41,0.101,8.16
6.6632,-0.06283,-0.01571,0.09599,0.00000,0.00000,0.00000,42,0,71,15,29,10,64,24,ok,2,0,0.002,7,0.62,-0.29,9.61,41,0.114,8.16
6.6771,-0.06283,-0.01571,0.09599,0.00000,0.00000,0.00000,42,1,71,13,30,9,64,26,ok,2,0,0.002,7,0.62,-0.29,9.61,41,0.127,8.16
6.6961,-0.06283,-0.01571,0.09599,0.00000,0.00000,0.00000,44,1,71,12,32,9,65,27,ok,2,0,0.002,7,0.62,-0.29,9.61,41,0.140,8.16
6.7012,-0.06283,-0.01571,0.09599,0.00000,0.00000,0.00000,44,2,71,9,33,9,64,29,ok,2,0,0.002,7,0.62,-0.29,9.61,41,0.152,8.16
6.7134,-0.06283,-0.01571,0.09599,0.00000,0.00000,0.00000,45,3,70,6,35,9,63,30,ok,2,0,0.002,7,0.62,-0.29,9.61,41,0.164,8.16
6.7361,-0.06283,-0.01571,0.09599,0.00000,0.00000,0.00000,46,3,69,3,36,8,64,31,ok,2,0,0.002,7,0.62,-0.29,9.61,41,0.177,8.16
6.7395,-0.06283,-0.01571,0.09599,0.00000,0.00000,0.00000,46,3,68,0,37,8,64,33,ok,2,0,0.002,7,0.62,-0.29,9.61,41,0.190,8.16
6.7523,-0.06283,-0.01571,0.09599,0.00000,0.00000,0.00000,47,2,66,-2,38,8,63,35,ok,2,0,0.002,7,0.62,-0.29,9.61,41,0.203,8.16
6.7721,-0.12217,0.05585,0.12741,0.00000,0.00000,0.00000,48,3,65,-3,39,8,63,36,ok,2,0,0.002,7,0.13,-1.19,6.19,42,0.000,8.16
6.7770,-0.12217,0.05585,0.12741,0.00000,0.00000,0.00000,48,3,62,-4,40,6,64,36,ok,2,0,0.002,7,0.13,-1.19,6.19,42,0.012,8.16
6.7894,-0.12217,0.05585,0.12741,0.00000,0.00000,0.00000,48,3,61,-5,42,6,65,35,ok,2,0,0.002,7,0.13,-1.19,6.19,42,0.025,8.16
6.8121,-0.12217,0.05585,0.12741,0.00000,0.00000,0.00000,49,3,60,-8,43,6,67,33,ok,2,0,0.002,7,0.13,-1.19,6.19,42,0.038,8.16
6.8152,-0.12217,0.05585,0.12741,0.00000,0.00000,0.00000,50,3,58,-8,44,7,69,28,ok,2,0,0.002,7,0.13,-1.19,6.19,42,0.051,8.16
6.8281,-0.12217,0.05585,0.12741,0.00000,0.00000,0.00000,50,3,55,-9,45,7,70,24,ok,2,0,0.002,7,0.13,-1.19,6.19,42,0.063,8.16
6.8481,-0.12217,0.05585,0.12741,0.00000,0.00000,0.00000,50,3,53,-9,46,7,72,21,ok,2,0,0.002,7,0.13,-1.19,6.19,42,0.076,8.16
6.8530,-0.12217,0.05585,0.12741,0.00000,0.00000,0.00000,50,4,51,-10,47,7,72,21,ok,2,0,0.002,7,0.13,-1.19,6.19,42,0.088,8.16
6.8656,-0.12217,0.05585,0.12741,0.00000,0.00000,0.00000,51,5,48,-10,48,7,72,19,ok,2,0,0.002,7,0.13,-1.19,6.19,42,0.101,8.16
6.8881,-0.12217,0.05585,0.12741,0.00000,0.00000,0.00000,52,5,46,-10,49,7,72,15,ok,2,0,0.002,7,0.13,-1.19,6.19,42,0.114,8.16
6.8913,-0.12217,0.05585,0.12741,0.00000,0.00000,0.00000,52,6,44,-9,49,7,72,12,ok,2,0,0.002,7,0.13,-1.19,6.19,42,0.127,8.16
6.9040,-0.12217,0.05585,0.12741,0.00000,0.00000,0.00000,52,7,41,-10,50,7,72,11,ok,2,0,0.002,7,0.13,-1.19,6.19,42,0.140,8.16
6.9241,-0.12217,0.05585,0.12741,0.00000,0.00000,0.00000,53,7,39,-10,51,7,71,7,ok,2,0,0.002,7,0.13,-1.19,6.19,42,0.152,8.16
6.9289,-0.12217,0.05585,0.12741,0.00000,0.00000,0.00000,53,7,36,-9,52,6,71,6,ok,2,0,0.002,7,0.13,-1.19,6.19,42,0.164,8.16
6.9416,-0.12217,0.05585,0.12741,0.00000,0.00000,0.00000,54,7,33,-9,52,7,70,4,ok,2,0,0.002,7,0.13,-1.19,6.19,42,0.177,8.16
6.9641,-0.12217,0.05585,0.12741,0.00000,0.00000,0.00000,54,8,30,-7,53,7,68,2,ok,2,0,0.002,7,0.13,-1.19,6.19,42,0.190,8.16
6.9676,-0.05760,-0.00349,0.11519,0.00000,0.00000,0.00000,54,8,27,-6,54,8,66,2,ok,2,0,0.002,7,0.10,-0.29,9.80,43,0.000,8.16
6.9800,-0.05760,-0.00349,0.11519,0.00000,0.00000,0.00000,54,9,24,-5,55,8,65,0,ok,2,0,0.002,7,0.10,-0.29,9.80,43,0.013,8.16
7.0001,-0.05760,-0.00349,0.11519,0.00000,0.00000,0.00000,55,10,20,-3,56,8,64,-2,ok,2,0,0.002,7,0.10,-0.29,9.80,43,0.025,8.16
7.0050,-0.05760,-0.00349,0.11519,0.00000,0.00000,0.00000,55,10,19,-1,58,6,62,-3,ok,2,0,0.002,7,0.10,-0.29,9.80,43,0.038,8.16
7.0174,-0.05760,-0.00349,0.11519,0.00000,0.00000,0.00000,56,10,18,0,58,7,60,-4,ok,2,0,0.002,7,0.10,-0.29,9.80,43,0.050,8.16
7.0401,-0.05760,-0.00349,0.11519,0.00000,0.00000,0.00000,56,11,16,2,59,8,58,-4,ok,2,0,0.002,7,0.10,-0.29,9.80,43,0.063,8.16
7.0432,-0.05760,-0.00349,0.11519,0.00000,0.00000,0.00000,56,11,15,5,59,8,55,-5,ok,2,0,0.002,7,0.10,-0.29,9.80,43,0.076,8.16
7.0560,-0.05760,-0.00349,0.11519,0.00000,0.00000,0.00000,56,13,13,9,60,9,53,-6,ok,2,0,0.002,7,0.10,-0.29,9.80,43,0.089,8.16
7.0761,-0.05760,-0.00349,0.11519,0.00000,0.00000,0.00000,56,13,13,11,60,9,50,-5,ok,2,0,0.002,7,0.10,-0.29,9.80,43,0.101,8.16
7.0811,-0.05760,-0.00349,0.11519,0.00000,0.00000,0.00000,56,14,14,11,60,9,48,-5,ok,2,0,0.002,7,0.10,-0.29,9.80,43,0.114,8.16
7.0934,-0.05760,-0.00349,0.11519,0.00000,0.00000,0.00000,56,14,15,11,61,10,45,-5,ok,2,0,0.002,7,0.10,-0.29,9.80,43,0.126,8.16
7.1161,-0.05760,-0.00349,0.11519,0.00000,0.00000,0.00000,56,14,17,10,61,11,42,-4,ok,2,0,0.002,7,0.10,-0.29,9.80,43,0.139,8.16
7.1193,-0.05760,-0.00349,0.11519,0.00000,0.00000,0.00000,56,15,19,9,61,12,40,-4,ok,2,0,0.002,7,0.10,-0.29,9.80,43,0.152,8.16
7.1322,-0.05760,-0.00349,0.11519,0.00000,0.00000,0.00000,56,15,19,9,61,12,37,-3,ok,2,0,0.002,7,0.10,-0.29,9.80,43,0.165,8.16
7.1521,-0.05760,-0.00349,0.11519,0.00000,0.00000,0.00000,56,16,21,8,62,13,35,-3,ok,2,0,0.002,7,0.10,-0.29,9.80,43,0.177,8.16
7.1571,-0.05760,-0.00349,0.11519,0.00000,0.00000,0.00000,56,17,22,7,62,14,31,-1,ok,2,0,0.002,7,0.10,-0.29,9.80,43,0.190,8.16
7.1697,-0.02443,0.13963,0.09076,0.00000,0.00000,0.00000,58,19,23,6,63,14,29,0,ok,2,0,0.002,7,1.61,-0.69,10.30,44,0.000,8.16
7.1921,-0.02443,0.13963,0.09076,0.00000,0.00000,0.00000,58,20,24,5,62,15,27,2,ok,2,0,0.002,7,1.61,-0.69,10.30,44,0.013,8.16
7.1954,-0.02443,0.13963,0.09076,0.00000,0.00000,0.00000,58,21,24,5,62,16,25,5,ok,2,0,0.002,7,1.61,-0.69,10.30,44,0.026,8.16
7.2082,-0.02443,0.13963,0.09076,0.00000,0.00000,0.00000,58,22,25,4,63,17,24,7,ok,2,0,0.002,7,1.61,-0.69,10.30,44,0.038,8.16
7.2281,-0.02443,0.13963,0.09076,0.00000,0.00000,0.00000,58,23,25,3,64,17,22,11,ok,2,0,0.002,7,1.61,-0.69,10.30,44,0.051,8.16
7.2329,-0.02443,0.13963,0.09076,0.00000,0.00000,0.00000,57,26,26,3,64,18,22,13,ok,2,0,0.002,7,1.61,-0.69,10.30,44,0.063,8.16
7.2454,-0.02443,0.13963,0.09076,0.00000,0.00000,0.00000,56,26,27,2,64,19,24,12,ok,2,0,0.002,7,1.61,-0.69,10.30,44,0.076,8.16
7.2681,-0.02443,0.13963,0.09076,0.00000,0.00000,0.00000,58,25,28,2,64,21,25,12,ok,2,0,0.002,7,1.61,-0.69,10.30,44,0.088,8.16
7.2713,-0.02443,0.13963,0.09076,0.00000,0.00000,0.00000,58,21,29,2,65,22,26,10,ok,2,0,0.002,7,1.61,-0.69,10.30,44,0.102,8.16
7.2842,-0.02443,0.13963,0.09076,0.00000,0.00000,0.00000,60,18,30,1,64,23,27,10,ok,2,0,0.002,7,1.61,-0.69,10.30,44,0.114,8.16
7.3041,-0.02443,0.13963,0.09076,0.00000,0.00000,0.00000,60,13,32,2,64,25,28,10,ok,2,0,0.002,7,1.61,-0.69,10.30,44,0.127,8.16
7.3091,-0.02443,0.13963,0.09076,0.00000,0.00000,0.00000,60,11,33,2,65,25,29,9,ok,2,0,0.002,7,1.61,-0.69,10.30,44,0.139,8.16
7.3214,-0.02443,0.13963,0.09076,0.00000,0.00000,0.00000,60,10,35,2,65,28,31,9,ok,2,0,0.002,7,1.61,-0.69,10.30,44,0.152,8.16
7.3441,-0.02443,0.13963,0.09076,0.00000,0.00000,0.00000,60,7,36,2,64,29,33,9,ok,2,0,0.002,7,1.61,-0.69,10.30,44,0.164,8.16
7.3473,-0.02443,0.13963,0.09076,0.00000,0.00000,0.00000,60,4,38,3,65,30,33,9,ok,2,0,0.002,7,1.61,-0.69,10.30,44,0.178,8.16
7.3603,-0.02443,0.13963,0.09076,0.00000,0.00000,0.00000,59,1,39,3,65,32,35,9,ok,2,0,0.002,7,1.61,-0.69,10.30,44,0.190,8.16
7.3801,-0.10472,0.00349,0.12741,0.00000,0.00000,0.00000,58,-1,41,3,64,34,36,8,ok,2,0,0.002,7,-0.59,-0.62,9.79,45,0.000,8.16
7.3849,-0.10472,0.00349,0.12741,0.00000,0.00000,0.00000,58,-3,42,2,64,35,37,9,ok,2,0,0.002,7,-0.59,-0.62,9.79,45,0.013,8.16
7.3974,-0.10472,0.00349,0.12741,0.00000,0.00000,0.00000,58,-4,43,2,65,35,39,8,ok,2,0,0.002,7,-0.59,-0.62,9.79,45,0.025,8.16
7.4201,-0.10472,0.00349,0.12741,0.00000,0.00000,0.00000,56,-6,44,2,66,35,40,8,ok,2,0,0.002,7,-0.59,-0.62,9.79,45,0.038,8.16
7.4233,-0.10472,0.00349,0.12741,0.00000,0.00000,0.00000,56,-7,45,3,68,33,42,7,ok,2,0,0.002,7,-0.59,-0.62,9.79,45,0.051,8.16
7.4359,-0.10472,0.00349,0.12741,0.00000,0.00000,0.00000,56,-9,46,3,70,28,43,7,ok,2,0,0.002,7,-0.59,-0.62,9.79,45,0.064,8.16
7.4561,-0.10472,0.00349,0.12741,0.00000,0.00000,0.00000,54,-9,48,4,71,24,44,7,ok,2,0,0.002,7,-0.59,-0.62,9.79,45,0.076,8.16
7.4610,-0.10472,0.00349,0.12741,0.00000,0.00000,0.00000,54,-10,49,4,73,21,44,7,ok,2,0,0.002,7,-0.59,-0.62,9.79,45,0.088,8.16
7.4734,-0.10472,0.00349,0.12741,0.00000,0.00000,0.00000,52,-11,50,4,74,20,45,7,ok,2,0,0.002,7,-0.59,-0.62,9.79,45,0.101,8.16
7.4961,-0.10472,0.00349,0.12741,0.00000,0.00000,0.00000,51,-12,50,6,74,18,46,7,ok,2,0,0.002,7,-0.59,-0.62,9.79,45,0.113,8.16
7.4992,-0.10472,0.00349,0.12741,0.00000,0.00000,0.00000,50,-11,51,6,74,14,47,8,ok,2,0,0.002,7,-0.59,-0.62,9.79,45,0.127,8.16
7.5120,-0.10472,0.00349,0.12741,0.00000,0.00000,0.00000,48,-11,52,6,73,11,48,8,ok,2,0,0.002,7,-0.59,-0.62,9.79,45,0.140,8.16
7.5321,-0.10472,0.00349,0.12741,0.00000,0.00000,0.00000,48,-10,53,6,73,10,49,8,ok,2,0,0.002,7,-0.59,-0.62,9.79,45,0.152,8.16
7.5370,-0.10472,0.00349,0.12741,0.00000,0.00000,0.00000,46,-10,53,7,72,6,49,9,ok,2,0,0.002,7,-0.59,-0.62,9.79,45,0.164,8.16
7.5494,-0.10472,0.00349,0.12741,0.00000,0.00000,0.00000,44,-11,55,7,72,4,50,8,ok,2,0,0.002,7,-0.59,-0.62,9.79,45,0.177,8.16
7.5721,0.03491,0.01920,0.14312,0.00000,0.00000,0.00000,44,-10,56,7,71,3,51,9,ok,2,0,0.002,7,0.42,0.18,8.86,46,0.000,8.16
7.5752,0.03491,0.01920,0.14312,0.00000,0.00000,0.00000,42,-8,57,7,69,1,51,8,ok,2,0,0.002,7,0.42,0.18,8.86,46,0.013,8.16
7.5879,0.03491,0.01920,0.14312,0.00000,0.00000,0.00000,40,-7,57,8,66,2,52,9,ok,2,0,0.002,7,0.42,0.18,8.86,46,0.026,8.16
7.6081,0.03491,0.01920,0.14312,0.00000,0.00000,0.00000,38,-5,58,7,65,-1,52,9,ok,2,0,0.002,7,0.42,0.18,8.86,46,0.039,8.16
7.6132,0.03491,0.01920,0.14312,0.00000,0.00000,0.00000,37,-3,58,8,64,-2,53,9,ok,2,0,0.002,7,0.42,0.18,8.86,46,0.051,8.16
7.6254,0.03491,0.01920,0.14312,0.00000,0.00000,0.00000,35,0,59,8,62,-4,54,9,ok,2,0,0.002,8,0.42,0.18,8.86,46,0.063,8.16
7.6481,0.03491,0.01920,0.14312,0.00000,0.00000,0.00000,35,0,60,10,61,-5,54,8,ok,2,0,0.002,8,0.42,0.18,8.86,46,0.076,8.16
7.6514,0.03491,0.01920,0.14312,0.00000,0.00000,0.00000,34,1,60,9,59,-6,56,6,ok,2,0,0.002,8,0.42,0.18,8.86,46,0.089,8.16
7.6642,0.03491,0.01920,0.14312,0.00000,0.00000,0.00000,33,3,61,10,56,-7,57,7,ok,2,0,0.002,8,0.42,0.18,8.86,46,0.102,8.16
7.6841,0.03491,0.01920,0.14312,0.00000,0.00000,0.00000,32,6,61,10,54,-7,58,8,ok,2,0,0.002,8,0.42,0.18,8.86,46,0.115,8.16
7.6890,0.03491,0.01920,0.14312,0.00000,0.00000,0.00000,32,9,61,11,51,-6,58,8,ok,2,0,0.002,8,0.42,0.18,8.86,46,0.127,8.16
7.7014,0.03491,0.01920,0.14312,0.00000,0.00000,0.00000,31,11,61,11,48,-6,59,9,ok,2,0,0.002,8,0.42,0.18,8.86,46,0.140,8.16
7.7241,0.03491,0.01920,0.14312,0.00000,0.00000,0.00000,32,11,61,13,46,-6,60,10,ok,2,0,0.002,8,0.42,0.18,8.86,46,0.152,8.16
7.7273,0.03491,0.01920,0.14312,0.00000,0.00000,0.00000,32,11,61,13,43,-5,60,10,ok,2,0,0.002,8,0.42,0.18,8.86,46,0.165,8.16
7.7401,0.03491,0.01920,0.14312,0.00000,0.00000,0.00000,33,9,62,14,40,-5,60,11,ok,2,0,0.002,8,0.42,0.18,8.86,46,0.178,8.16
7.7601,0.03491,0.01920,0.14312,0.00000,0.00000,0.00000,34,9,62,14,37,-4,61,12,ok,2,0,0.002,8,0.42,0.18,8.86,46,0.190,8.16
7.7650,0.03491,0.01920,0.14312,0.00000,0.00000,0.00000,34,8,62,15,35,-3,61,13,ok,2,0,0.002,8,0.42,0.18,8.86,46,0.203,8.16
7.7778,-0.05061,0.04363,0.13788,0.00000,0.00000,0.00000,35,7,63,16,31,-2,61,13,ok,2,0,0.002,8,-0.01,0.18,9.07,47,0.000,8.16
7.8001,-0.05061,0.04363,0.13788,0.00000,0.00000,0.00000,36,7,63,17,29,-1,62,14,ok,2,0,0.002,8,-0.01,0.18,9.07,47,0.013,8.16
7.8033,-0.05061,0.04363,0.13788,0.00000,0.00000,0.00000,36,6,64,18,28,1,62,15,ok,2,0,0.002,8,-0.01,0.18,9.07,47,0.026,8.16
7.8160,-0.05061,0.04363,0.13788,0.00000,0.00000,0.00000,37,4,64,20,25,4,63,15,ok,2,0,0.002,8,-0.01,0.18,9.07,47,0.039,8.16
7.8361,-0.05061,0.04363,0.13788,0.00000,0.00000,0.00000,38,4,64,21,24,7,63,16,ok,2,0,0.002,8,-0.01,0.18,9.07,47,0.051,8.16
7.8410,-0.05061,0.04363,0.13788,0.00000,0.00000,0.00000,38,3,64,22,23,10,63,18,ok,2,0,0.002,8,-0.01,0.18,9.07,47,0.064,8.16
7.8534,-0.05061,0.04363,0.13788,0.00000,0.00000,0.00000,38,3,64,23,22,14,64,18,ok,2,0,0.002,8,-0.01,0.18,9.07,47,0.076,8.16
7.8761,-0.05061,0.04363,0.13788,0.00000,0.00000,0.00000,39,2,63,26,24,13,64,19,ok,2,0,0.002,8,-0.01,0.18,9.07,47,0.089,8.16
7.8794,-0.05061,0.04363,0.13788,0.00000,0.00000,0.00000,39,1,63,28,24,13,64,20,ok,2,0,0.002,8,-0.01,0.18,9.07,47,0.102,8.16
7.8920,-0.05061,0.04363,0.13788,0.00000,0.00000,0.00000,40,1,64,26,25,11,64,21,ok,2,0,0.002,8,-0.01,0.18,9.07,47,0.115,8.16
7.9121,-0.05061,0.04363,0.13788,0.00000,0.00000,0.00000,40,1,67,23,27,10,65,22,ok,2,0,0.002,8,-0.01,0.18,9.07,47,0.127,8.16
7.9171,-0.05061,0.04363,0.13788,0.00000,0.00000,0.00000,41,1,69,19,28,10,65,23,ok,2,0,0.002,8,-0.01,0.18,9.07,47,0.140,8.16
7.9295,-0.05061,0.04363,0.13788,0.00000,0.00000,0.00000,42,1,70,15,29,10,64,24,ok,2,0,0.002,8,-0.01,0.18,9.07,47,0.152,8.16
7.9521,-0.05061,0.04363,0.13788,0.00000,0.00000,0.00000,42,1,70,12,30,9,64,26,ok,2,0,0.002,8,-0.01,0.18,9.07,47,0.165,8.16
7.9553,-0.05061,0.04363,0.13788,0.00000,0.00000,0.00000,44,1,70,12,33,9,65,27,ok,2,0,0.002,8,-0.01,0.18,9.07,47,0.178,8.16
7.9682,-0.05061,0.04363,0.13788,0.00000,0.00000,0.00000,44,1,70,9,33,9,64,29,ok,2,0,0.002,8,-0.01,0.18,9.07,47,0.191,8.16
7.9881,-0.14486,-0.03316,0.15882,0.00000,0.00000,0.00000,45,2,69,6,35,9,64,30,ok,2,0,0.002,8,-0.20,-2.04,11.11,48,0.000,8.16
7.9932,-0.14486,-0.03316,0.15882,0.00000,0.00000,0.00000,46,2,68,3,37,8,65,31,ok,2,0,0.002,8,-0.20,-2.04,11.11,48,0.012,8.16
8.0054,-0.14486,-0.03316,0.15882,0.00000,0.00000,0.00000,46,2,67,0,38,8,64,33,ok,2,0,0.002,8,-0.20,-2.04,11.11,48,0.025,8.16
8.0281,-0.14486,-0.03316,0.15882,0.00000,0.00000,0.00000,47,1,66,-2,39,7,64,35,ok,2,0,0.002,8,-0.20,-2.04,11.11,48,0.038,8.16
8.0313,-0.14486,-0.03316,0.15882,0.00000,0.00000,0.00000,48,2,64,-3,39,7,64,36,ok,2,0,0.002,8,-0.20,-2.04,11.11,48,0.051,8.16
8.0440,-0.14486,-0.03316,0.15882,0.00000,0.00000,0.00000,48,2,62,-4,40,6,65,36,ok,2,0,0.002,8,-0.20,-2.04,11.11,48,0.063,8.16
8.0641,-0.14486,-0.03316,0.15882,0.00000,0.00000,0.00000,48,2,61,-5,42,7,66,35,ok,2,0,0.002,8,-0.20,-2.04,11.11,48,0.076,8.16
8.0691,-0.14486,-0.03316,0.15882,0.00000,0.00000,0.00000,49,2,60,-7,43,7,68,33,ok,2,0,0.002,8,-0.20,-2.04,11.11,48,0.088,8.16
8.0815,-0.14486,-0.03316,0.15882,0.00000,0.00000,0.00000,50,3,58,-8,44,7,69,28,ok,2,0,0.002,8,-0.20,-2.04,11.11,48,0.101,8.16
8.1041,-0.14486,-0.03316,0.15882,0.00000,0.00000,0.00000,50,3,56,-9,45,7,70,24,ok,2,0,0.002,8,-0.20,-2.04,11.11,48,0.113,8.16
8.1073,-0.14486,-0.03316,0.15882,0.00000,0.00000,0.00000,50,3,54,-9,46,7,72,21,ok,2,0,0.002,8,-0.20,-2.04,11.11,48,0.127,8.16
8.1200,-0.14486,-0.03316,0.15882,0.00000,0.00000,0.00000,50,5,51,-10,47,7,72,21,ok,2,0,0.002,8,-0.20,-2.04,11.11,48,0.140,8.16
8.1401,-0.14486,-0.03316,0.15882,0.00000,0.00000,0.00000,51,6,49,-10,47,7,72,19,ok,2,0,0.002,8,-0.20,-2.04,11.11,48,0.152,8.16
8.1450,-0.14486,-0.03316,0.15882,0.00000,0.00000,0.00000,52,6,46,-10,48,7,72,15,ok,2,0,0.002,8,-0.20,-2.04,11.11,48,0.164,8.16
8.1574,-0.14486,-0.03316,0.15882,0.00000,0.00000,0.00000,52,7,44,-10,49,7,72,13,ok,2,0,0.002,8,-0.20,-2.04,11.11,48,0.177,8.16
8.1801,-0.14486,-0.03316,0.15882,0.00000,0.00000,0.00000,52,7,42,-10,50,7,71,11,ok,2,0,0.002,8,-0.20,-2.04,11.11,48,0.190,8.16
8.1837,-0.04887,0.00349,0.17977,0.00000,0.00000,0.00000,54,8,39,-10,51,7,70,8,ok,2,0,0.002,8,-0.37,-0.64,9.47,49,0.000,8.16
8.1961,-0.04887,0.00349,0.17977,0.00000,0.00000,0.00000,54,8,37,-9,52,6,70,6,ok,2,0,0.002,8,-0.37,-0.64,9.47,49,0.013,8.16
8.2161,-0.04887,0.00349,0.17977,0.00000,0.00000,0.00000,54,8,33,-9,52,7,69,4,ok,2,0,0.002,8,-0.37,-0.64,9.47,49,0.025,8.16
8.2211,-0.04887,0.00349,0.17977,0.00000,0.00000,0.00000,54,9,31,-8,53,7,67,2,ok,2,0,0.002,8,-0.37,-0.64,9.47,49,0.038,8.16
8.2335,-0.04887,0.00349,0.17977,0.00000,0.00000,0.00000,54,9,27,-6,54,8,65,2,ok,2,0,0.002,8,-0.37,-0.64,9.47,49,0.050,8.16
8.2561,-0.04887,0.00349,0.17977,0.00000,0.00000,0.00000,54,9,25,-5,55,8,64,0,ok,2,0,0.002,8,-0.37,-0.64,9.47,49,0.063,8.16
8.2595,-0.04887,0.00349,0.17977,0.00000,0.00000,0.00000,55,10,21,-2,56,8,63,-1,ok,2,0,0.002,8,-0.37,-0.64,9.47,49,0.076,8.16
8.2720,-0.04887,0.00349,0.17977,0.00000,0.00000,0.00000,55,11,19,-1,58,6,61,-3,ok,2,0,0.002,8,-0.37,-0.64,9.47,49,0.089,8.16
8.2921,-0.04887,0.00349,0.17977,0.00000,0.00000,0.00000,56,10,18,0,58,7,59,-4,ok,2,0,0.002,8,-0.37,-0.64,9.47,49,0.101,8.16
8.2971,-0.04887,0.00349,0.17977,0.00000,0.00000,0.00000,56,11,16,3,59,8,57,-4,ok,2,0,0.002,8,-0.37,-0.64,9.47,49,0.114,8.16
8.3096,-0.04887,0.00349,0.17977,0.00000,0.00000,0.00000,56,11,15,6,59,8,55,-5,ok,2,0,0.002,8,-0.37,-0.64,9.47,49,0.126,8.16
8.3321,-0.04887,0.00349,0.17977,0.00000,0.00000,0.00000,56,12,13,9,60,9,53,-6,ok,2,0,0.002,8,-0.37,-0.64,9.47,49,0.139,8.16
8.3353,-0.04887,0.00349,0.17977,0.00000,0.00000,0.00000,56,12,13,12,60,9,50,-5,ok,2,0,0.002,8,-0.37,-0.64,9.47,49,0.152,8.16
8.3480,-0.04887,0.00349,0.17977,0.00000,0.00000,0.00000,56,13,14,12,60,9,48,-5,ok,2,0,0.002,8,-0.37,-0.64,9.47,49,0.165,8.16
8.3681,-0.04887,0.00349,0.17977,0.00000,0.00000,0.00000,56,13,15,12,61,10,45,-5,ok,2,0,0.002,8,-0.37,-0.64,9.47,49,0.177,8.16
8.3730,-0.04887,0.00349,0.17977,0.00000,0.00000,0.00000,56,14,17,10,61,11,42,-4,ok,2,0,0.002,8,-0.37,-0.64,9.47,49,0.190,8.16
8.3858,0.01047,0.07156,0.14137,0.00000,0.00000,0.00000,56,15,19,9,61,12,40,-4,ok,2,0,0.002,8,0.31,0.54,9.78,50,0.000,8.16
8.4081,0.01047,0.07156,0.14137,0.00000,0.00000,0.00000,56,15,19,9,61,12,37,-3,ok,2,0,0.002,8,0.31,0.54,9.78,50,0.013,8.16
8.4113,0.01047,0.07156,0.14137,0.00000,0.00000,0.00000,56,16,21,8,61,13,34,-3,ok,2,0,0.002,8,0.31,0.54,9.78,50,0.026,8.16
8.4240,0.01047,0.07156,0.14137,0.00000,0.00000,0.00000,56,18,21,7,62,14,30,-1,ok,2,0,0.002,8,0.31,0.54,9.78,50,0.039,8.16
8.4441,0.01047,0.07156,0.14137,0.00000,0.00000,0.00000,58,19,23,6,63,14,29,0,ok,2,0,0.002,8,0.31,0.54,9.78,50,0.051,8.16
8.4490,0.01047,0.07156,0.14137,0.00000,0.00000,0.00000,58,20,24,5,63,15,27,2,ok,2,0,0.002,8,0.31,0.54,9.78,50,0.064,8.16
8.4616,0.01047,0.07156,0.14137,0.00000,0.00000,0.00000,58,21,24,5,63,16,25,5,ok,2,0,0.002,8,0.31,0.54,9.78,50,0.076,8.16
8.4841,0.01047,0.07156,0.14137,0.00000,0.00000,0.00000,58,22,25,4,63,17,24,7,ok,2,0,0.002,8,0.31,0.54,9.78,50,0.089,8.16
8.4873,0.01047,0.07156,0.14137,0.00000,0.00000,0.00000,58,23,25,3,64,17,23,11,ok,2,0,0.002,8,0.31,0.54,9.78,50,0.102,8.16
8.5000,0.01047,0.07156,0.14137,0.00000,0.00000,0.00000,57,26,26,3,64,19,22,13,ok,2,0,0.002,8,0.31,0.54,9.78,50,0.115,8.16
8.5201,0.01047,0.07156,0.14137,0.00000,0.00000,0.00000,57,27,27,2,64,20,24,12,ok,2,0,0.002,8,0.31,0.54,9.78,50,0.127,8.16
8.5250,0.01047,0.07156,0.14137,0.00000,0.00000,0.00000,58,25,28,2,64,21,25,12,ok,2,0,0.002,8,0.31,0.54,9.78,50,0.140,8.16
8.5375,0.01047,0.07156,0.14137,0.00000,0.00000,0.00000,58,21,29,2,65,22,26,10,ok,2,0,0.002,8,0.31,0.54,9.78,50,0.152,8.16
8.5601,0.01047,0.07156,0.14137,0.00000,0.00000,0.00000,60,17,31,1,64,23,27,9,ok,2,0,0.002,8,0.31,0.54,9.78,50,0.165,8.16
8.5633,0.01047,0.07156,0.14137,0.00000,0.00000,0.00000,60,13,32,2,64,25,28,10,ok,2,0,0.002,8,0.31,0.54,9.78,50,0.178,8.16
8.5760,0.01047,0.07156,0.14137,0.00000,0.00000,0.00000,60,11,33,2,65,25,29,9,ok,2,0,0.002,8,0.31,0.54,9.78,50,0.191,8.16
8.5961,-0.12217,0.05760,0.17279,0.00000,0.00000,0.00000,60,10,35,2,64,28,30,9,ok,2,0,0.002,8,0.75,-1.82,9.75,51,0.000,8.16
8.6010,-0.12217,0.05760,0.17279,0.00000,0.00000,0.00000,60,7,36,2,64,28,33,9,ok,2,0,0.002,8,0.75,-1.82,9.75,51,0.013,8.16
8.6136,-0.12217,0.05760,0.17279,0.00000,0.00000,0.00000,60,4,39,3,64,30,33,9,ok,2,0,0.002,8,0.75,-1.82,9.75,51,0.025,8.16
8.6361,-0.12217,0.05760,0.17279,0.00000,0.00000,0.00000,60,1,40,3,64,31,35,9,ok,2,0,0.002,8,0.75,-1.82,9.75,51,0.038,8.16
8.6393,-0.12217,0.05760,0.17279,0.00000,0.00000,0.00000,59,-1,41,3,63,33,36,9,ok,2,0,0.002,9,0.75,-1.82,9.75,51,0.051,8.16
8.6522,-0.12217,0.05760,0.17279,0.00000,0.00000,0.00000,58,-3,42,3,63,34,37,9,ok,2,0,0.002,9,0.75,-1.82,9.75,51,0.063,8.16
8.6721,-0.12217,0.05760,0.17279,0.00000,0.00000,0.00000,58,-5,44,3,64,35,39,8,ok,2,0,0.002,9,0.75,-1.82,9.75,51,0.076,8.16
8.6771,-0.12217,0.05760,0.17279,0.00000,0.00000,0.00000,56,-6,44,3,66,35,40,8,ok,2,0,0.002,9,0.75,-1.82,9.75,51,0.088,8.16
8.6895,-0.12217,0.05760,0.17279,0.00000,0.00000,0.00000,56,-7,45,4,68,33,41,7,ok,2,0,0.002,9,0.75,-1.82,9.75,51,0.101,8.16
8.7121,-0.12217,0.05760,0.17279,0.00000,0.00000,0.00000,56,-9,46,3,70,28,42,7,ok,2,0,0.002,9,0.75,-1.82,9.75,51,0.114,8.16
8.7153,-0.12217,0.05760,0.17279,0.00000,0.00000,0.00000,54,-10,48,4,71,24,44,7,ok,2,0,0.002,9,0.75,-1.82,9.75,51,0.127,8.16
8.7280,-0.12217,0.05760,0.17279,0.00000,0.00000,0.00000,53,-10,49,4,73,21,44,7,ok,2,0,0.002,9,0.75,-1.82,9.75,51,0.140,8.16
8.7481,-0.12217,0.05760,0.17279,0.00000,0.00000,0.00000,52,-10,49,3,74,20,45,8,ok,2,0,0.002,9,0.75,-1.82,9.75,51,0.152,8.16
8.7530,-0.12217,0.05760,0.17279,0.00000,0.00000,0.00000,51,-11,49,6,74,18,46,8,ok,2,0,0.002,9,0.75,-1.82,9.75,51,0.165,8.16
8.7654,-0.12217,0.05760,0.17279,0.00000,0.00000,0.00000,50,-11,51,6,74,14,47,8,ok,2,0,0.002,9,0.75,-1.82,9.75,51,0.177,8.16
8.7881,-0.12217,0.05760,0.17279,0.00000,0.00000,0.00000,48,-11,51,6,73,11,48,8,ok,2,0,0.002,9,0.75,-1.82,9.75,51,0.190,8.16
8.7916,0.04887,0.00349,0.17628,0.00000,0.00000,0.00000,47,-10,52,6,73,9,49,8,ok,2,0,0.002,9,-0.41,0.72,9.84,52,0.000,8.16
8.8040,0.04887,0.00349,0.17628,0.00000,0.00000,0.00000,46,-10,53,6,73,7,49,9,ok,2,0,0.002,9,-0.41,0.72,9.84,52,0.013,8.16
8.8241,0.04887,0.00349,0.17628,0.00000,0.00000,0.00000,44,-11,55,6,72,5,49,8,ok,2,0,0.002,9,-0.41,0.72,9.84,52,0.025,8.16
8.8291,0.04887,0.00349,0.17628,0.00000,0.00000,0.00000,43,-9,56,6,72,4,51,9,ok,2,0,0.002,9,-0.41,0.72,9.84,52,0.038,8.16
8.8415,0.04887,0.00349,0.17628,0.00000,0.00000,0.00000,42,-8,57,6,70,1,51,8,ok,2,0,0.002,9,-0.41,0.72,9.84,52,0.050,8.16
8.8641,0.04887,0.00349,0.17628,0.00000,0.00000,0.00000,40,-6,57,7,67,2,52,8,ok,2,0,0.002,9,-0.41,0.72,9.84,52,0.063,8.16
8.8673,0.04887,0.00349,0.17628,0.00000,0.00000,0.00000,38,-4,58,6,65,-1,52,8,ok,2,0,0.002,9,-0.41,0.72,9.84,52,0.076,8.16
8.8800,0.04887,0.00349,0.17628,0.00000,0.00000,0.00000,37,-2,58,7,64,-2,54,9,ok,2,0,0.002,9,-0.41,0.72,9.84,52,0.089,8.16
8.9001,0.04887,0.00349,0.17628,0.00000,0.00000,0.00000,35,0,59,8,62,-4,55,8,ok,2,0,0.002,9,-0.41,0.72,9.84,52,0.101,8.16
8.9052,0.04887,0.00349,0.17628,0.00000,0.00000,0.00000,35,0,60,10,61,-5,54,8,ok,2,0,0.002,9,-0.41,0.72,9.84,52,0.114,8.16
8.9174,0.04887,0.00349,0.17628,0.00000,0.00000,0.00000,34,1,61,10,59,-6,56,6,ok,2,0,0.002,9,-0.41,0.72,9.84,52,0.126,8.16
8.9401,0.04887,0.00349,0.17628,0.00000,0.00000,0.00000,34,2,61,11,56,-6,57,7,ok,2,0,0.002,9,-0.41,0.72,9.84,52,0.139,8.16
8.9432,0.04887,0.00349,0.17628,0.00000,0.00000,0.00000,32,5,61,11,54,-7,58,8,ok,2,0,0.002,9,-0.41,0.72,9.84,52,0.152,8.16
8.9560,0.04887,0.00349,0.17628,0.00000,0.00000,0.00000,32,8,61,12,51,-6,58,8,ok,2,0,0.002,9,-0.41,0.72,9.84,52,0.165,8.16
8.9761,0.04887,0.00349,0.17628,0.00000,0.00000,0.00000,31,10,61,12,48,-6,59,9,ok,2,0,0.002,9,-0.41,0.72,9.84,52,0.177,8.16
8.9810,0.04887,0.00349,0.17628,0.00000,0.00000,0.00000,32,11,62,13,46,-6,60,10,ok,2,0,0.002,9,-0.41,0.72,9.84,52,0.190,8.16
8.9937,0.04887,0.00349,0.17628,0.00000,0.00000,0.00000,32,10,61,14,43,-5,59,10,ok,2,0,0.002,9,-0.41,0.72,9.84,52,0.202,8.16
9.0161,-0.02618,0.07330,0.18850,0.00000,0.00000,0.00000,33,9,62,14,40,-5,60,11,ok,2,0,0.002,9,-0.00,-0.19,9.64,53,0.000,8.16
9.0193,-0.02618,0.07330,0.18850,0.00000,0.00000,0.00000,34,9,62,15,37,-4,61,12,ok,2,0,0.002,9,-0.00,-0.19,9.64,53,0.013,8.16
9.0322,-0.02618,0.07330,0.18850,0.00000,0.00000,0.00000,34,8,62,15,34,-4,61,13,ok,2,0,0.002,9,-0.00,-0.19,9.64,53,0.026,8.16
9.0521,-0.02618,0.07330,0.18850,0.00000,0.00000,0.00000,35,7,63,16,31,-2,61,13,ok,2,0,0.002,9,-0.00,-0.19,9.64,53,0.039,8.16
9.0570,-0.02618,0.07330,0.18850,0.00000,0.00000,0.00000,36,6,63,17,29,-1,62,14,ok,2,0,0.002,9,-0.00,-0.19,9.64,53,0.051,8.16
9.0695,-0.02618,0.07330,0.18850,0.00000,0.00000,0.00000,36,5,64,19,27,1,62,15,ok,2,0,0.002,9,-0.00,-0.19,9.64,53,0.064,8.16
9.0921,-0.02618,0.07330,0.18850,0.00000,0.00000,0.00000,36,4,64,20,25,4,63,15,ok,2,0,0.002,9,-0.00,-0.19,9.64,53,0.076,8.16
9.0953,-0.02618,0.07330,0.18850,0.00000,0.00000,0.00000,37,3,64,21,24,7,63,17,ok,2,0,0.002,9,-0.00,-0.19,9.64,53,0.089,8.16
9.1079,-0.02618,0.07330,0.18850,0.00000,0.00000,0.00000,38,3,64,22,23,11,63,18,ok,2,0,0.002,9,-0.00,-0.19,9.64,53,0.102,8.16
9.1281,-0.02618,0.07330,0.18850,0.00000,0.00000,0.00000,38,3,64,23,22,14,64,18,ok,2,0,0.002,9,-0.00,-0.19,9.64,53,0.115,8.16
9.1330,-0.02618,0.07330,0.18850,0.00000,0.00000,0.00000,38,2,63,26,24,13,64,19,ok,2,0,0.002,9,-0.00,-0.19,9.64,53,0.127,8.16
9.1454,-0.02618,0.07330,0.18850,0.00000,0.00000,0.00000,39,2,63,27,24,13,65,20,ok,2,0,0.002,9,-0.00,-0.19,9.64,53,0.139,8.16
9.1681,-0.02618,0.07330,0.18850,0.00000,0.00000,0.00000,40,2,64,26,26,11,65,21,ok,2,0,0.002,9,-0.00,-0.19,9.64,53,0.152,8.16
9.1714,-0.02618,0.07330,0.18850,0.00000,0.00000,0.00000,40,1,66,22,27,10,65,21,ok,2,0,0.002,9,-0.00,-0.19,9.64,53,0.165,8.16
9.1841,-0.02618,0.07330,0.18850,0.00000,0.00000,0.00000,41,1,69,19,28,10,65,22,ok,2,0,0.002,9,-0.00,-0.19,9.64,53,0.178,8.16
9.2041,-0.02618,0.07330,0.18850,0.00000,0.00000,0.00000,42,1,70,15,29,10,65,24,ok,2,0,0.002,9,-0.00,-0.19,9.64,53,0.190,8.16
9.2093,-0.09774,-0.01047,0.11868,0.00000,0.00000,0.00000,42,1,70,12,30,9,65,26,ok,2,0,0.002,9,-0.85,-2.06,9.60,54,0.000,8.16
9.2215,-0.09774,-0.01047,0.11868,0.00000,0.00000,0.00000,44,1,70,12,33,9,66,26,ok,2,0,0.002,9,-0.85,-2.06,9.60,54,0.013,8.16
9.2441,-0.09774,-0.01047,0.11868,0.00000,0.00000,0.00000,44,1,70,8,33,9,65,29,ok,2,0,0.002,9,-0.85,-2.06,9.60,54,0.025,8.16
9.2474,-0.09774,-0.01047,0.11868,0.00000,0.00000,0.00000,45,2,69,6,35,9,64,30,ok,2,0,0.002,9,-0.85,-2.06,9.60,54,0.038,8.16
9.2600,-0.09774,-0.01047,0.11868,0.00000,0.00000,0.00000,46,2,68,3,36,8,65,31,ok,2,0,0.002,9,-0.85,-2.06,9.60,54,0.051,8.16
9.2801,-0.09774,-0.01047,0.11868,0.00000,0.00000,0.00000,46,2,67,0,37,8,65,33,ok,2,0,0.002,9,-0.85,-2.06,9.60,54,0.064,8.16
9.2850,-0.09774,-0.01047,0.11868,0.00000,0.00000,0.00000,47,1,66,-2,39,8,64,35,ok,2,0,0.002,9,-0.85,-2.06,9.60,54,0.076,8.16
9.2974,-0.09774,-0.01047,0.11868,0.00000,0.00000,0.00000,48,2,64,-3,39,8,63,36,ok,2,0,0.002,9,-0.85,-2.06,9.60,54,0.089,8.16
9.3201,-0.09774,-0.01047,0.11868,0.00000,0.00000,0.00000,48,2,62,-4,41,7,64,36,ok,2,0,0.002,9,-0.85,-2.06,9.60,54,0.101,8.16
9.3233,-0.09774,-0.01047,0.11868,0.00000,0.00000,0.00000,48,2,61,-5,42,7,66,35,ok,2,0,0.002,9,-0.85,-2.06,9.60,54,0.114,8.16
9.3360,-0.09774,-0.01047,0.11868,0.00000,0.00000,0.00000,49,3,60,-8,43,7,67,33,ok,2,0,0.002,9,-0.85,-2.06,9.60,54,0.127,8.16
9.3561,-0.09774,-0.01047,0.11868,0.00000,0.00000,0.00000,50,3,58,-8,44,7,69,27,ok,2,0,0.002,9,-0.85,-2.06,9.60,54,0.139,8.16
9.3610,-0.09774,-0.01047,0.11868,0.00000,0.00000,0.00000,50,3,56,-9,45,7,70,24,ok,2,0,0.002,9,-0.85,-2.06,9.60,54,0.152,8.16
9.3735,-0.09774,-0.01047,0.11868,0.00000,0.00000,0.00000,50,3,54,-9,46,7,72,21,ok,2,0,0.002,9,-0.85,-2.06,9.60,54,0.165,8.16
9.3961,-0.09774,-0.01047,0.11868,0.00000,0.00000,0.00000,50,5,51,-10,47,7,72,21,ok,2,0,0.002,9,-0.85,-2.06,9.60,54,0.177,8.16
9.3994,-0.09774,-0.01047,0.11868,0.00000,0.00000,0.00000,51,6,49,-10,47,7,72,19,ok,2,0,0.002,9,-0.85,-2.06,9.60,54,0.190,8.16
9.4123,-0.08378,0.03142,0.19897,0.00000,0.00000,0.00000,52,6,46,-10,49,7,72,15,ok,2,0,0.002,9,-0.33,-1.29,10.60,55,0.000,8.16
9.4321,-0.08378,0.03142,0.19897,0.00000,0.00000,0.00000,52,6,44,-10,49,7,72,12,ok,2,0,0.002,9,-0.33,-1.29,10.60,55,0.013,8.16
9.4372,-0.08378,0.03142,0.19897,0.00000,0.00000,0.00000,52,7,42,-10,50,7,71,11,ok,2,0,0.002,9,-0.33,-1.29,10.60,55,0.025,8.16
9.4494,-0.08378,0.03142,0.19897,0.00000,0.00000,0.00000,53,7,39,-10,51,7,70,7,ok,2,0,0.002,9,-0.33,-1.29,10.60,55,0.037,8.16
9.4721,-0.08378,0.03142,0.19897,0.00000,0.00000,0.00000,54,7,37,-9,52,6,70,6,ok,2,0,0.002,9,-0.33,-1.29,10.60,55,0.050,8.16
9.4753,-0.08378,0.03142,0.19897,0.00000,0.00000,0.00000,54,7,33,-8,52,7,69,4,ok,2,0,0.003,9,-0.33,-1.29,10.60,55,0.063,8.16
9.4881,-0.08378,0.03142,0.19897,0.00000,0.00000,0.00000,54,8,30,-7,53,7,68,2,ok,2,0,0.003,9,-0.33,-1.29,10.60,55,0.076,8.16
9.5081,-0.08378,0.03142,0.19897,0.00000,0.00000,0.00000,54,8,27,-6,54,8,66,2,ok,2,0,0.003,9,-0.33,-1.29,10.60,55,0.089,8.16
9.5131,-0.08378,0.03142,0.19897,0.00000,0.00000,0.00000,54,9,24,-4,55,8,65,0,ok,2,0,0.003,9,-0.33,-1.29,10.60,55,0.101,8.16
9.5254,-0.08378,0.03142,0.19897,0.00000,0.00000,0.00000,55,10,20,-2,56,8,64,-2,ok,2,0,0.003,9,-0.33,-1.29,10.60,55,0.114,8.16
9.5481,-0.08378,0.03142,0.19897,0.00000,0.00000,0.00000,55,10,19,-1,58,6,62,-3,ok,2,0,0.003,9,-0.33,-1.29,10.60,55,0.126,8.16
9.5513,-0.08378,0.03142,0.19897,0.00000,0.00000,0.00000,56,10,18,1,58,7,60,-4,ok,2,0,0.003,9,-0.33,-1.29,10.60,55,0.139,8.16
9.5641,-0.08378,0.03142,0.19897,0.00000,0.00000,0.00000,56,10,16,3,59,8,58,-5,ok,2,0,0.003,9,-0.33,-1.29,10.60,55,0.152,8.16
9.5841,-0.08378,0.03142,0.19897,0.00000,0.00000,0.00000,56,11,14,6,59,8,55,-5,ok,2,0,0.003,9,-0.33,-1.29,10.60,55,0.165,8.16
9.5891,-0.08378,0.03142,0.19897,0.00000,0.00000,0.00000,56,12,13,9,60,9,53,-6,ok,2,0,0.003,9,-0.33,-1.29,10.60,55,0.177,8.16
9.6015,-0.08378,0.03142,0.19897,0.00000,0.00000,0.00000,56,12,12,12,60,9,50,-5,ok,2,0,0.003,9,-0.33,-1.29,10.60,55,0.189,8.16
9.6241,-0.08378,0.03142,0.19897,0.00000,0.00000,0.00000,56,13,14,12,60,9,48,-5,ok,2,0,0.003,9,-0.33,-1.29,10.60,55,0.202,8.16
9.6276,0.03142,0.05236,0.14661,0.00000,0.00000,0.00000,56,13,15,11,61,10,46,-5,ok,2,0,0.003,9,1.13,0.53,10.61,56,0.000,8.16
9.6400,0.03142,0.05236,0.14661,0.00000,0.00000,0.00000,56,14,16,10,61,11,42,-4,ok,2,0,0.003,9,1.13,0.53,10.61,56,0.013,8.16
9.6601,0.03142,0.05236,0.14661,0.00000,0.00000,0.00000,56,15,18,9,61,12,40,-4,ok,2,0,0.003,9,1.13,0.53,10.61,56,0.025,8.16
9.6650,0.03142,0.05236,0.14661,0.00000,0.00000,0.00000,56,16,19,8,62,13,37,-3,ok,2,0,0.003,10,1.13,0.53,10.61,56,0.038,8.16
9.6774,0.03142,0.05236,0.14661,0.00000,0.00000,0.00000,56,17,21,7,62,13,34,-3,ok,2,0,0.003,10,1.13,0.53,10.61,56,0.050,8.16
9.7001,0.03142,0.05236,0.14661,0.00000,0.00000,0.00000,56,18,21,7,62,14,30,-1,ok,2,0,0.003,10,1.13,0.53,10.61,56,0.063,8.16
9.7033,0.03142,0.05236,0.14661,0.00000,0.00000,0.00000,57,19,23,6,63,14,29,0,ok,2,0,0.003,10,1.13,0.53,10.61,56,0.076,8.16
9.7160,0.03142,0.05236,0.14661,0.00000,0.00000,0.00000,57,21,24,5,63,15,27,2,ok,2,0,0.003,10,1.13,0.53,10.61,56,0.089,8.16
9.7361,0.03142,0.05236,0.14661,0.00000,0.00000,0.00000,58,22,24,4,63,16,25,5,ok,2,0,0.003,10,1.13,0.53,10.61,56,0.101,8.16
9.7412,0.03142,0.05236,0.14661,0.00000,0.00000,0.00000,58,23,25,4,63,17,24,7,ok,2,0,0.003,10,1.13,0.53,10.61,56,0.114,8.16
9.7535,0.03142,0.05236,0.14661,0.00000,0.00000,0.00000,58,23,25,3,64,17,23,11,ok,2,0,0.003,10,1.13,0.53,10.61,56,0.126,8.16
9.7761,0.03142,0.05236,0.14661,0.00000,0.00000,0.00000,57,26,27,3,64,19,22,13,ok,2,0,0.003,10,1.13,0.53,10.61,56,0.139,8.16
9.7793,0.03142,0.05236,0.14661,0.00000,0.00000,0.00000,57,26,27,2,64,20,24,12,ok,2,0,0.003,10,1.13,0.53,10.61,56,0.152,8.16
9.7920,0.03142,0.05236,0.14661,0.00000,0.00000,0.00000,58,25,29,2,64,21,25,12,ok,2,0,0.003,10,1.13,0.53,10.61,56,0.165,8.16
9.8121,0.03142,0.05236,0.14661,0.00000,0.00000,0.00000,58,21,30,2,65,22,25,10,ok,2,0,0.003,10,1.13,0.53,10.61,56,0.177,8.16
9.8173,-0.05236,0.06632,0.15359,0.00000,0.00000,0.00000,60,17,31,1,64,23,26,9,ok,2,0,0.003,10,1.00,-1.83,10.60,57,0.000,8.16
9.8294,-0.05236,0.06632,0.15359,0.00000,0.00000,0.00000,60,13,33,2,64,25,28,10,ok,2,0,0.003,10,1.00,-1.83,10.60,57,0.013,8.16
9.8521,-0.05236,0.06632,0.15359,0.00000,0.00000,0.00000,60,11,34,2,65,25,29,9,ok,2,0,0.003,10,1.00,-1.83,10.60,57,0.025,8.16
9.8555,-0.05236,0.06632,0.15359,0.00000,0.00000,0.00000,60,10,35,2,64,27,31,9,ok,2,0,0.003,10,1.00,-1.83,10.60,57,0.038,8.16
9.8680,-0.05236,0.06632,0.15359,0.00000,0.00000,0.00000,60,7,37,2,64,29,33,9,ok,2,0,0.003,10,1.00,-1.83,10.60,57,0.051,8.16
9.8881,-0.05236,0.06632,0.15359,0.00000,0.00000,0.00000,60,4,38,3,64,30,33,9,ok,2,0,0.003,10,1.00,-1.83,10.60,57,0.064,8.16
9.8932,-0.05236,0.06632,0.15359,0.00000,0.00000,0.00000,60,1,40,3,64,32,35,9,ok,2,0,0.003,10,1.00,-1.83,10.60,57,0.076,8.16
9.9054,-0.05236,0.06632,0.15359,0.00000,0.00000,0.00000,59,-1,41,3,64,34,36,8,ok,2,0,0.003,10,1.00,-1.83,10.60,57,0.089,8.16
9.9281,-0.05236,0.06632,0.15359,0.00000,0.00000,0.00000,58,-3,42,3,64,35,37,9,ok,2,0,0.003,10,1.00,-1.83,10.60,57,0.101,8.16
9.9313,-0.05236,0.06632,0.15359,0.00000,0.00000,0.00000,58,-4,44,3,64,35,38,8,ok,2,0,0.003,10,1.00,-1.83,10.60,57,0.114,8.16
9.9440,-0.05236,0.06632,0.15359,0.00000,0.00000,0.00000,56,-5,44,3,66,35,39,8,ok,2,0,0.003,10,1.00,-1.83,10.60,57,0.127,8.16
9.9641,-0.05236,0.06632,0.15359,0.00000,0.00000,0.00000,56,-6,45,3,67,33,41,7,ok,2,0,0.003,10,1.00,-1.83,10.60,57,0.140,8.16
9.9690,-0.05236,0.06632,0.15359,0.00000,0.00000,0.00000,56,-8,46,3,70,28,42,7,ok,2,0,0.003,10,1.00,-1.83,10.60,57,0.152,8.16
9.9816,-0.05236,0.06632,0.15359,0.00000,0.00000,0.00000,54,-9,48,4,71,24,43,7,ok,2,0,0.003,10,1.00,-1.83,10.60,57,0.165,8.16
10.0041,-0.05236,0.06632,0.15359,0.00000,0.00000,0.00000,53,-10,49,4,73,21,44,7,ok,2,0,0.003,10,1.00,-1.83,10.60,57,0.177,8.16
10.0073,-0.05236,0.06632,0.15359,0.00000,0.00000,0.00000,52,-10,49,4,74,20,45,7,ok,2,0,0.003,10,1.00,-1.83,10.60,57,0.190,8.16
10.0203,-0.01745,0.00524,0.14835,0.00000,0.00000,0.00000,51,-11,49,6,74,18,46,7,ok,2,0,0.003,10,0.55,0.79,9.86,58,0.000,8.16
10.0481,-0.01745,0.00524,0.14835,0.00000,0.00000,0.00000,50,-11,51,6,74,15,47,8,ok,2,0,0.003,10,0.55,0.79,9.86,58,0.013,8.16
10.0513,-0.01745,0.00524,0.14835,0.00000,0.00000,0.00000,48,-11,52,6,74,12,48,8,ok,2,0,0.003,10,0.55,0.79,9.86,58,0.031,8.16
10.0639,-0.01745,0.00524,0.14835,0.00000,0.00000,0.00000,47,-10,53,6,73,10,49,8,ok,2,0,0.003,10,0.55,0.79,9.86,58,0.044,8.16
10.0842,-0.01745,0.00524,0.14835,0.00000,0.00000,0.00000,46,-11,53,7,72,7,50,9,ok,2,0,0.003,10,0.55,0.79,9.86,58,0.057,8.16
10.0890,-0.01745,0.00524,0.14835,0.00000,0.00000,0.00000,44,-11,55,7,72,5,50,8,ok,2,0,0.003,10,0.55,0.79,9.86,58,0.069,8.16
10.1017,-0.01745,0.00524,0.14835,0.00000,0.00000,0.00000,43,-10,56,7,71,4,51,9,ok,2,0,0.003,10,0.55,0.79,9.86,58,0.081,8.16
10.1241,-0.01745,0.00524,0.14835,0.00000,0.00000,0.00000,42,-8,57,7,69,1,52,8,ok,2,0,0.003,10,0.55,0.79,9.86,58,0.094,8.16
10.1275,-0.01745,0.00524,0.14835,0.00000,0.00000,0.00000,40,-7,57,8,66,1,52,8,ok,2,0,0.003,10,0.55,0.79,9.86,58,0.107,8.16
10.1404,-0.01745,0.00524,0.14835,0.00000,0.00000,0.00000,38,-6,58,7,65,-1,53,8,ok,2,0,0.003,10,0.55,0.79,9.86,58,0.120,8.08
10.1601,-0.01745,0.00524,0.14835,0.00000,0.00000,0.00000,37,-4,58,8,64,-3,54,9,ok,2,0,0.003,10,0.55,0.79,9.86,58,0.133,8.08
10.1649,-0.01745,0.00524,0.14835,0.00000,0.00000,0.00000,35,-2,59,9,61,-4,55,8,ok,2,0,0.003,10,0.55,0.79,9.86,58,0.145,8.08
10.1776,-0.01745,0.00524,0.14835,0.00000,0.00000,0.00000,35,-1,60,11,60,-5,55,8,ok,2,0,0.003,10,0.55,0.79,9.86,58,0.158,8.08
10.2001,-0.01745,0.00524,0.14835,0.00000,0.00000,0.00000,34,0,61,10,58,-6,57,6,ok,2,0,0.003,10,0.55,0.79,9.86,58,0.170,8.08
10.2034,-0.01745,0.00524,0.14835,0.00000,0.00000,0.00000,33,2,61,11,56,-7,57,7,ok,2,0,0.003,10,0.55,0.79,9.86,58,0.183,8.08
10.2162,-0.01745,0.00524,0.14835,0.00000,0.00000,0.00000,32,5,61,11,54,-7,58,8,ok,2,0,0.003,10,0.55,0.79,9.86,58,0.196,8.08
10.2361,0.17628,0.09774,0.14661,0.00000,0.00000,0.00000,32,8,61,12,51,-7,58,9,ok,2,0,0.003,10,1.26,1.60,8.16,59,0.000,8.08
10.2409,0.17628,0.09774,0.14661,0.00000,0.00000,0.00000,31,11,61,11,48,-5,58,9,ok,2,0,0.003,10,1.26,1.60,8.16,59,0.012,8.08
10.2535,0.17628,0.09774,0.14661,0.00000,0.00000,0.00000,32,12,61,12,46,-5,59,10,ok,2,0,0.003,10,1.26,1.60,8.16,59,0.025,8.08
10.2761,0.17628,0.09774,0.14661,0.00000,0.00000,0.00000,32,12,61,13,43,-4,58,10,ok,2,0,0.003,10,1.26,1.60,8.16,59,0.038,8.08
10.2794,0.17628,0.09774,0.14661,0.00000,0.00000,0.00000,33,11,62,13,41,-4,59,11,ok,2,0,0.003,10,1.26,1.60,8.16,59,0.051,8.08
10.2919,0.17628,0.09774,0.14661,0.00000,0.00000,0.00000,34,10,61,13,38,-3,59,11,ok,2,0,0.003,10,1.26,1.60,8.16,59,0.064,8.08
10.3121,0.17628,0.09774,0.14661,0.00000,0.00000,0.00000,34,10,62,14,35,-3,60,12,ok,2,0,0.003,10,1.26,1.60,8.16,59,0.076,8.08
10.3169,0.17628,0.09774,0.14661,0.00000,0.00000,0.00000,35,9,62,14,32,-1,61,12,ok,2,0,0.003,10,1.26,1.60,8.16,59,0.088,8.08
10.3297,0.17628,0.09774,0.14661,0.00000,0.00000,0.00000,35,8,62,15,30,0,62,13,ok,2,0,0.003,10,1.26,1.60,8.16,59,0.101,8.08
10.3521,0.17628,0.09774,0.14661,0.00000,0.00000,0.00000,36,7,63,17,28,2,62,14,ok,2,0,0.003,10,1.26,1.60,8.16,59,0.114,8.08
10.3553,0.17628,0.09774,0.14661,0.00000,0.00000,0.00000,36,6,63,18,25,5,63,14,ok,2,0,0.003,10,1.26,1.60,8.16,59,0.127,8.08
10.3679,0.17628,0.09774,0.14661,0.00000,0.00000,0.00000,37,5,63,20,25,8,63,16,ok,2,0,0.003,10,1.26,1.60,8.16,59,0.140,8.08
10.3881,0.17628,0.09774,0.14661,0.00000,0.00000,0.00000,38,3,63,21,23,12,63,17,ok,2,0,0.003,10,1.26,1.60,8.16,59,0.152,8.08
10.3929,0.17628,0.09774,0.14661,0.00000,0.00000,0.00000,38,3,63,22,23,15,64,17,ok,2,0,0.003,10,1.26,1.60,8.16,59,0.164,8.08
10.4056,0.17628,0.09774,0.14661,0.00000,0.00000,0.00000,38,2,63,25,24,14,64,18,ok,2,0,0.003,10,1.26,1.60,8.16,59,0.177,8.08
10.4281,0.17628,0.09774,0.14661,0.00000,0.00000,0.00000,39,1,63,27,24,14,64,19,ok,2,0,0.003,10,1.26,1.60,8.16,59,0.190,8.08
10.4317,-0.04712,0.03665,0.09599,0.00000,0.00000,0.00000,40,1,64,25,26,12,64,20,ok,2,0,0.003,10,-1.20,-1.95,10.01,60,0.000,8.08
10.4439,-0.04712,0.03665,0.09599,0.00000,0.00000,0.00000,40,0,67,23,26,10,65,21,ok,2,0,0.003,10,-1.20,-1.95,10.01,60,0.013,8.08
10.4641,-0.04712,0.03665,0.09599,0.00000,0.00000,0.00000,41,0,69,19,28,10,66,22,ok,2,0,0.003,10,-1.20,-1.95,10.01,60,0.025,8.08
10.4690,-0.04712,0.03665,0.09599,0.00000,0.00000,0.00000,42,-1,70,15,29,10,66,23,ok,2,0,0.003,10,-1.20,-1.95,10.01,60,0.038,8.08
10.4815,-0.04712,0.03665,0.09599,0.00000,0.00000,0.00000,42,-1,71,13,29,9,66,25,ok,2,0,0.003,10,-1.20,-1.95,10.01,60,0.050,8.08
10.5041,-0.04712,0.03665,0.09599,0.00000,0.00000,0.00000,43,-1,70,13,32,9,66,26,ok,2,0,0.003,10,-1.20,-1.95,10.01,60,0.063,8.08
10.5073,-0.04712,0.03665,0.09599,0.00000,0.00000,0.00000,44,-1,70,10,32,9,65,28,ok,2,0,0.003,10,-1.20,-1.95,10.01,60,0.076,8.08
10.5201,-0.04712,0.03665,0.09599,0.00000,0.00000,0.00000,44,0,70,7,35,9,64,30,ok,2,0,0.003,10,-1.20,-1.95,10.01,60,0.089,8.08
10.5401,-0.04712,0.03665,0.09599,0.00000,0.00000,0.00000,45,0,69,4,36,8,65,31,ok,2,0,0.003,10,-1.20,-1.95,10.01,60,0.101,8.08
10.5449,-0.04712,0.03665,0.09599,0.00000,0.00000,0.00000,46,0,68,1,37,9,64,33,ok,2,0,0.003,10,-1.20,-1.95,10.01,60,0.114,8.08
10.5576,-0.04712,0.03665,0.09599,0.00000,0.00000,0.00000,46,0,66,-1,39,8,64,34,ok,2,0,0.003,10,-1.20,-1.95,10.01,60,0.126,8.08
10.5801,-0.04712,0.03665,0.09599,0.00000,0.00000,0.00000,47,1,65,-3,39,8,64,36,ok,2,0,0.003,10,-1.20,-1.95,10.01,60,0.139,8.08
10.5833,-0.04712,0.03665,0.09599,0.00000,0.00000,0.00000,48,2,62,-4,41,7,65,36,ok,2,0,0.003,10,-1.20,-1.95,10.01,60,0.152,8.08
10.5959,-0.04712,0.03665,0.09599,0.00000,0.00000,0.00000,48,3,61,-6,42,7,66,35,ok,2,0,0.003,10,-1.20,-1.95,10.01,60,0.165,8.08
10.6161,-0.04712,0.03665,0.09599,0.00000,0.00000,0.00000,48,3,60,-8,43,7,68,33,ok,2,0,0.003,10,-1.20,-1.95,10.01,60,0.177,8.08
10.6209,-0.04712,0.03665,0.09599,0.00000,0.00000,0.00000,50,3,58,-8,44,7,69,27,ok,2,0,0.003,10,-1.20,-1.95,10.01,60,0.190,8.08
10.6339,-0.04712,0.03665,0.09599,0.00000,0.00000,0.00000,50,3,55,-9,45,7,71,24,ok,2,0,0.003,10,-1.20,-1.95,10.01,60,0.202,8.08
10.6561,-0.09599,0.03142,0.14312,0.00000,0.00000,0.00000,50,3,53,-9,46,7,72,21,ok,2,0,0.003,10,-0.34,-0.10,12.09,61,0.000,8.08
10.6594,-0.09599,0.03142,0.14312,0.00000,0.00000,0.00000,50,5,51,-10,47,7,73,20,ok,2,0,0.003,10,-0.34,-0.10,12.09,61,0.013,8.08
10.6719,-0.09599,0.03142,0.14312,0.00000,0.00000,0.00000,51,6,49,-10,47,7,73,18,ok,2,0,0.003,10,-0.34,-0.10,12.09,61,0.026,8.08
10.6921,-0.09599,0.03142,0.14312,0.00000,0.00000,0.00000,52,5,46,-10,49,7,73,15,ok,2,0,0.003,11,-0.34,-0.10,12.09,61,0.038,8.08
10.6969,-0.09599,0.03142,0.14312,0.00000,0.00000,0.00000,52,6,44,-10,49,7,72,12,ok,2,0,0.003,11,-0.34,-0.10,12.09,61,0.051,8.08
10.7095,-0.09599,0.03142,0.14312,0.00000,0.00000,0.00000,52,6,41,-10,50,7,72,11,ok,2,0,0.003,11,-0.34,-0.10,12.09,61,0.063,8.08
10.7321,-0.09599,0.03142,0.14312,0.00000,0.00000,0.00000,53,7,39,-10,51,8,71,7,ok,2,0,0.003,11,-0.34,-0.10,12.09,61,0.076,8.08
10.7354,-0.09599,0.03142,0.14312,0.00000,0.00000,0.00000,53,7,36,-9,52,7,71,5,ok,2,0,0.003,11,-0.34,-0.10,12.09,61,0.089,8.08
10.7479,-0.09599,0.03142,0.14312,0.00000,0.00000,0.00000,54,7,33,-8,52,7,70,4,ok,2,0,0.003,11,-0.34,-0.10,12.09,61,0.102,8.08
10.7681,-0.09599,0.03142,0.14312,0.00000,0.00000,0.00000,54,8,30,-7,53,8,68,2,ok,2,0,0.003,11,-0.34,-0.10,12.09,61,0.115,8.08
10.7730,-0.09599,0.03142,0.14312,0.00000,0.00000,0.00000,54,8,27,-6,54,8,66,1,ok,2,0,0.003,11,-0.34,-0.10,12.09,61,0.127,8.08
10.7856,-0.09599,0.03142,0.14312,0.00000,0.00000,0.00000,54,8,24,-4,55,8,65,0,ok,2,0,0.003,11,-0.34,-0.10,12.09,61,0.140,8.08
10.8081,-0.09599,0.03142,0.14312,0.00000,0.00000,0.00000,55,10,20,-2,55,8,64,-2,ok,2,0,0.003,11,-0.34,-0.10,12.09,61,0.152,8.08
10.8115,-0.09599,0.03142,0.14312,0.00000,0.00000,0.00000,55,10,19,-1,58,6,62,-3,ok,2,0,0.003,11,-0.34,-0.10,12.09,61,0.165,8.08
10.8240,-0.09599,0.03142,0.14312,0.00000,0.00000,0.00000,56,10,18,1,58,7,60,-4,ok,2,0,0.003,11,-0.34,-0.10,12.09,61,0.178,8.08
10.8441,-0.09599,0.03142,0.14312,0.00000,0.00000,0.00000,56,11,16,3,59,8,58,-5,ok,2,0,0.003,11,-0.34,-0.10,12.09,61,0.191,8.08
10.8492,-0.02793,0.04189,0.09599,0.00000,0.00000,0.00000,56,11,15,6,59,8,55,-6,ok,2,0,0.003,11,0.21,0.11,9.40,62,0.000,8.08
10.8615,-0.02793,0.04189,0.09599,0.00000,0.00000,0.00000,56,12,13,9,60,9,53,-6,ok,2,0,0.003,11,0.21,0.11,9.40,62,0.013,8.08
10.8841,-0.02793,0.04189,0.09599,0.00000,0.00000,0.00000,56,12,12,11,60,9,50,-5,ok,2,0,0.003,11,0.21,0.11,9.40,62,0.025,8.08
10.8875,-0.02793,0.04189,0.09599,0.00000,0.00000,0.00000,56,13,14,12,61,10,48,-5,ok,2,0,0.003,11,0.21,0.11,9.40,62,0.038,8.08
10.8999,-0.02793,0.04189,0.09599,0.00000,0.00000,0.00000,56,14,15,11,61,11,45,-5,ok,2,0,0.003,11,0.21,0.11,9.40,62,0.051,8.08
10.9201,-0.02793,0.04189,0.09599,0.00000,0.00000,0.00000,56,14,16,10,61,11,42,-4,ok,2,0,0.003,11,0.21,0.11,9.40,62,0.063,8.08
10.9250,-0.02793,0.04189,0.09599,0.00000,0.00000,0.00000,56,15,18,9,61,12,40,-4,ok,2,0,0.003,11,0.21,0.11,9.40,62,0.076,8.08
10.9375,-0.02793,0.04189,0.09599,0.00000,0.00000,0.00000,56,16,19,8,61,12,37,-3,ok,2,0,0.003,11,0.21,0.11,9.40,62,0.088,8.08
10.9601,-0.02793,0.04189,0.09599,0.00000,0.00000,0.00000,56,17,21,7,62,13,35,-3,ok,2,0,0.003,11,0.21,0.11,9.40,62,0.101,8.08
10.9635,-0.02793,0.04189,0.09599,0.00000,0.00000,0.00000,56,18,21,7,62,14,31,-1,ok,2,0,0.003,11,0.21,0.11,9.40,62,0.114,8.08
10.9759,-0.02793,0.04189,0.09599,0.00000,0.00000,0.00000,58,19,23,6,63,14,30,0,ok,2,0,0.003,11,0.21,0.11,9.40,62,0.127,8.08
10.9961,-0.02793,0.04189,0.09599,0.00000,0.00000,0.00000,57,20,24,5,63,15,27,1,ok,2,0,0.003,11,0.21,0.11,9.40,62,0.139,8.08
11.0010,-0.02793,0.04189,0.09599,0.00000,0.00000,0.00000,58,21,24,5,63,16,25,5,ok,2,0,0.003,11,0.21,0.11,9.40,62,0.152,8.08
11.0135,-0.02793,0.04189,0.09599,0.00000,0.00000,0.00000,58,22,25,4,63,17,24,7,ok,2,0,0.003,11,0.21,0.11,9.40,62,0.164,8.08
11.0361,-0.02793,0.04189,0.09599,0.00000,0.00000,0.00000,58,23,26,3,64,18,23,11,ok,2,0,0.003,11,0.21,0.11,9.40,62,0.177,8.08
11.0396,-0.02793,0.04189,0.09599,0.00000,0.00000,0.00000,57,26,27,3,64,19,23,13,ok,2,0,0.003,11,0.21,0.11,9.40,62,0.190,8.08
11.0523,-0.03665,0.08552,0.15184,0.00000,0.00000,0.00000,57,26,27,2,64,20,25,12,ok,2,0,0.003,11,1.42,-0.53,10.53,63,0.000,8.08
11.0721,-0.03665,0.08552,0.15184,0.00000,0.00000,0.00000,58,25,29,2,64,21,25,11,ok,2,0,0.003,11,1.42,-0.53,10.53,63,0.012,8.08
11.0770,-0.03665,0.08552,0.15184,0.00000,0.00000,0.00000,58,21,30,2,65,22,25,10,ok,2,0,0.003,11,1.42,-0.53,10.53,63,0.025,8.08
11.0896,-0.03665,0.08552,0.15184,0.00000,0.00000,0.00000,60,18,31,1,64,23,27,9,ok,2,0,0.003,11,1.42,-0.53,10.53,63,0.038,8.08
11.1121,-0.03665,0.08552,0.15184,0.00000,0.00000,0.00000,60,13,32,2,64,25,28,10,ok,2,0,0.003,11,1.42,-0.53,10.53,63,0.050,8.08
11.1154,-0.03665,0.08552,0.15184,0.00000,0.00000,0.00000,60,11,33,2,65,25,29,9,ok,2,0,0.003,11,1.42,-0.53,10.53,63,0.063,8.08
11.1281,-0.03665,0.08552,0.15184,0.00000,0.00000,0.00000,60,10,35,2,64,28,30,9,ok,2,0,0.003,11,1.42,-0.53,10.53,63,0.076,8.08
11.1481,-0.03665,0.08552,0.15184,0.00000,0.00000,0.00000,60,7,36,2,64,29,32,9,ok,2,0,0.003,11,1.42,-0.53,10.53,63,0.088,8.08
11.1529,-0.03665,0.08552,0.15184,0.00000,0.00000,0.00000,60,4,38,3,64,30,33,9,ok,2,0,0.003,11,1.42,-0.53,10.53,63,0.101,8.08
11.1655,-0.03665,0.08552,0.15184,0.00000,0.00000,0.00000,60,2,39,3,64,32,35,9,ok,2,0,0.003,11,1.42,-0.53,10.53,63,0.113,8.08
11.1881,-0.03665,0.08552,0.15184,0.00000,0.00000,0.00000,59,-1,41,3,64,34,36,8,ok,2,0,0.003,11,1.42,-0.53,10.53,63,0.126,8.08
11.1914,-0.03665,0.08552,0.15184,0.00000,0.00000,0.00000,58,-3,42,2,64,35,37,8,ok,2,0,0.003,11,1.42,-0.53,10.53,63,0.139,8.08
11.2039,-0.03665,0.08552,0.15184,0.00000,0.00000,0.00000,58,-4,44,3,65,35,38,8,ok,2,0,0.003,11,1.42,-0.53,10.53,63,0.152,8.08
11.2241,-0.03665,0.08552,0.15184,0.00000,0.00000,0.00000,56,-5,44,3,66,35,39,8,ok,2,0,0.003,11,1.42,-0.53,10.53,63,0.164,8.08
11.2289,-0.03665,0.08552,0.15184,0.00000,0.00000,0.00000,56,-6,45,3,68,33,41,7,ok,2,0,0.003,11,1.42,-0.53,10.53,63,0.177,8.08
11.2415,-0.03665,0.08552,0.15184,0.00000,0.00000,0.00000,56,-8,46,3,70,28,42,7,ok,2,0,0.003,11,1.42,-0.53,10.53,63,0.189,8.08
11.2641,-0.02269,0.04712,0.15184,0.00000,0.00000,0.00000,54,-9,48,4,71,24,44,7,ok,2,0,0.003,11,0.57,-0.34,10.18,64,0.000,8.08
11.2675,-0.02269,0.04712,0.15184,0.00000,0.00000,0.00000,53,-10,49,4,73,21,44,7,ok,2,0,0.003,11,0.57,-0.34,10.18,64,0.013,8.08
11.2799,-0.02269,0.04712,0.15184,0.00000,0.00000,0.00000,52,-11,49,3,74,21,45,7,ok,2,0,0.003,11,0.57,-0.34,10.18,64,0.026,8.08
11.3001,-0.02269,0.04712,0.15184,0.00000,0.00000,0.00000,51,-11,49,5,74,18,46,7,ok,2,0,0.003,11,0.57,-0.34,10.18,64,0.039,8.08
11.3049,-0.02269,0.04712,0.15184,0.00000,0.00000,0.00000,50,-11,51,6,74,15,47,8,ok,2,0,0.003,11,0.57,-0.34,10.18,64,0.051,8.08
11.3177,-0.02269,0.04712,0.15184,0.00000,0.00000,0.00000,48,-11,52,6,73,12,48,8,ok,2,0,0.003,11,0.57,-0.34,10.18,64,0.064,8.08
11.3401,-0.02269,0.04712,0.15184,0.00000,0.00000,0.00000,47,-10,53,6,73,10,49,8,ok,2,0,0.003,11,0.57,-0.34,10.18,64,0.076,8.08
11.3433,-0.02269,0.04712,0.15184,0.00000,0.00000,0.00000,46,-11,53,7,72,6,50,9,ok,2,0,0.003,11,0.57,-0.34,10.18,64,0.089,8.08
11.3559,-0.02269,0.04712,0.15184,0.00000,0.00000,0.00000,44,-11,55,7,72,5,50,8,ok,2,0,0.003,11,0.57,-0.34,10.18,64,0.102,8.08
11.3761,-0.02269,0.04712,0.15184,0.00000,0.00000,0.00000,43,-10,56,7,71,4,51,9,ok,2,0,0.003,11,0.57,-0.34,10.18,64,0.114,8.08
11.3809,-0.02269,0.04712,0.15184,0.00000,0.00000,0.00000,42,-9,57,7,69,1,52,7,ok,2,0,0.003,11,0.57,-0.34,10.18,64,0.127,8.08
11.3937,-0.02269,0.04712,0.15184,0.00000,0.00000,0.00000,40,-7,57,8,66,1,52,8,ok,2,0,0.003,11,0.57,-0.34,10.18,64,0.140,8.08
11.4161,-0.02269,0.04712,0.15184,0.00000,0.00000,0.00000,38,-6,57,8,65,-1,53,8,ok,2,0,0.003,11,0.57,-0.34,10.18,64,0.152,8.08
11.4193,-0.02269,0.04712,0.15184,0.00000,0.00000,0.00000,37,-4,58,8,64,-3,54,9,ok,2,0,0.003,11,0.57,-0.34,10.18,64,0.165,8.08
11.4319,-0.02269,0.04712,0.15184,0.00000,0.00000,0.00000,35,-2,59,9,62,-4,55,8,ok,2,0,0.003,11,0.57,-0.34,10.18,64,0.178,8.08
11.4522,-0.02269,0.04712,0.15184,0.00000,0.00000,0.00000,34,-2,60,11,60,-5,55,8,ok,2,0,0.003,11,0.57,-0.34,10.18,64,0.190,8.08
11.4573,-0.01571,0.08378,0.12741,0.00000,0.00000,0.00000,34,-1,60,10,59,-6,57,6,ok,2,0,0.003,11,0.89,-0.14,9.68,65,0.000,8.08
11.4695,-0.01571,0.08378,0.12741,0.00000,0.00000,0.00000,33,2,61,11,56,-7,57,7,ok,2,0,0.003,11,0.89,-0.14,9.68,65,0.013,8.08
11.4921,-0.01571,0.08378,0.12741,0.00000,0.00000,0.00000,32,5,61,11,54,-7,58,8,ok,2,0,0.003,11,0.89,-0.14,9.68,65,0.025,8.08
11.4953,-0.01571,0.08378,0.12741,0.00000,0.00000,0.00000,32,8,61,12,51,-7,59,9,ok,2,0,0.003,11,0.89,-0.14,9.68,65,0.038,8.08
11.5081,-0.01571,0.08378,0.12741,0.00000,0.00000,0.00000,31,10,61,12,48,-6,59,9,ok,2,0,0.003,11,0.89,-0.14,9.68,65,0.051,8.08
11.5281,-0.01571,0.08378,0.12741,0.00000,0.00000,0.00000,32,11,61,13,46,-6,60,10,ok,2,0,0.003,11,0.89,-0.14,9.68,65,0.064,8.08
11.5330,-0.01571,0.08378,0.12741,0.00000,0.00000,0.00000,32,11,61,14,43,-5,60,10,ok,2,0,0.003,11,0.89,-0.14,9.68,65,0.076,8.08
11.5457,-0.01571,0.08378,0.12741,0.00000,0.00000,0.00000,32,9,62,14,41,-5,61,11,ok,2,0,0.003,11,0.89,-0.14,9.68,65,0.089,8.08
11.5681,-0.01571,0.08378,0.12741,0.00000,0.00000,0.00000,34,9,61,14,38,-4,61,12,ok,2,0,0.003,11,0.89,-0.14,9.68,65,0.101,8.08
11.5714,-0.01571,0.08378,0.12741,0.00000,0.00000,0.00000,34,8,62,15,35,-3,61,13,ok,2,0,0.003,11,0.89,-0.14,9.68,65,0.114,8.08
11.5839,-0.01571,0.08378,0.12741,0.00000,0.00000,0.00000,35,7,62,16,32,-2,62,13,ok,2,0,0.003,11,0.89,-0.14,9.68,65,0.127,8.08
11.6041,-0.01571,0.08378,0.12741,0.00000,0.00000,0.00000,35,7,62,17,30,0,63,14,ok,2,0,0.003,11,0.89,-0.14,9.68,65,0.140,8.08
11.6089,-0.01571,0.08378,0.12741,0.00000,0.00000,0.00000,36,6,63,18,28,1,63,15,ok,2,0,0.003,11,0.89,-0.14,9.68,65,0.152,8.08
11.6217,-0.01571,0.08378,0.12741,0.00000,0.00000,0.00000,36,5,63,19,26,4,64,15,ok,2,0,0.003,11,0.89,-0.14,9.68,65,0.165,8.08
11.6441,-0.01571,0.08378,0.12741,0.00000,0.00000,0.00000,37,4,63,20,25,7,63,16,ok,2,0,0.003,11,0.89,-0.14,9.68,65,0.177,8.08
11.6474,-0.01571,0.08378,0.12741,0.00000,0.00000,0.00000,38,4,63,21,23,11,63,17,ok,2,0,0.003,11,0.89,-0.14,9.68,65,0.190,8.08
11.6603,-0.01571,0.08378,0.12741,0.00000,0.00000,0.00000,38,3,63,22,23,14,64,18,ok,2,0,0.003,11,0.89,-0.14,9.68,65,0.203,8.08
11.6801,-0.01745,0.09948,0.15708,0.00000,0.00000,0.00000,38,3,62,25,24,13,64,19,ok,2,0,0.003,11,1.74,-0.11,11.37,66,0.000,8.08
11.6849,-0.01745,0.09948,0.15708,0.00000,0.00000,0.00000,39,2,62,27,24,13,64,19,ok,2,0,0.003,11,1.74,-0.11,11.37,66,0.012,8.08
11.6975,-0.01745,0.09948,0.15708,0.00000,0.00000,0.00000,40,2,64,25,26,11,64,21,ok,2,0,0.003,12,1.74,-0.11,11.37,66,0.025,8.08
11.7201,-0.01745,0.09948,0.15708,0.00000,0.00000,0.00000,40,1,66,22,27,10,65,21,ok,2,0,0.003,12,1.74,-0.11,11.37,66,0.038,8.08
11.7234,-0.01745,0.09948,0.15708,0.00000,0.00000,0.00000,41,1,69,19,28,10,65,22,ok,2,0,0.003,12,1.74,-0.11,11.37,66,0.051,8.08
11.7362,-0.01745,0.09948,0.15708,0.00000,0.00000,0.00000,42,1,70,15,29,10,65,24,ok,2,0,0.003,12,1.74,-0.11,11.37,66,0.064,8.08
11.7561,-0.01745,0.09948,0.15708,0.00000,0.00000,0.00000,42,1,70,12,30,9,65,26,ok,2,0,0.003,12,1.74,-0.11,11.37,66,0.076,8.08
11.7610,-0.01745,0.09948,0.15708,0.00000,0.00000,0.00000,43,1,70,12,33,9,65,26,ok,2,0,0.003,12,1.74,-0.11,11.37,66,0.089,8.08
11.7737,-0.01745,0.09948,0.15708,0.00000,0.00000,0.00000,44,1,70,9,33,9,64,28,ok,2,0,0.003,12,1.74,-0.11,11.37,66,0.101,8.08
11.7961,-0.01745,0.09948,0.15708,0.00000,0.00000,0.00000,44,2,69,6,35,9,64,30,ok,2,0,0.003,12,1.74,-0.11,11.37,66,0.114,8.08
11.7993,-0.01745,0.09948,0.15708,0.00000,0.00000,0.00000,45,2,68,3,37,8,64,31,ok,2,0,0.003,12,1.74,-0.11,11.37,66,0.127,8.08
11.8119,-0.01745,0.09948,0.15708,0.00000,0.00000,0.00000,46,2,67,0,38,9,64,33,ok,2,0,0.003,12,1.74,-0.11,11.37,66,0.140,8.08
11.8321,-0.01745,0.09948,0.15708,0.00000,0.00000,0.00000,46,1,66,-2,39,8,64,34,ok,2,0,0.003,12,1.74,-0.11,11.37,66,0.152,8.08
11.8370,-0.01745,0.09948,0.15708,0.00000,0.00000,0.00000,47,2,64,-3,40,8,63,35,ok,2,0,0.003,12,1.74,-0.11,11.37,66,0.165,8.08
11.8497,-0.01745,0.09948,0.15708,0.00000,0.00000,0.00000,47,2,62,-4,41,7,65,35,ok,2,0,0.003,12,1.74,-0.11,11.37,66,0.177,8.08
11.8721,-0.01745,0.09948,0.15708,0.00000,0.00000,0.00000,48,2,61,-6,42,7,66,35,ok,2,0,0.003,12,1.74,-0.11,11.37,66,0.190,8.08
11.8756,-0.00698,0.07679,0.16057,0.00000,0.00000,0.00000,48,2,60,-8,43,7,68,32,ok,2,0,0.003,12,0.99,0.07,10.65,67,0.000,8.08
11.8882,-0.00698,0.07679,0.16057,0.00000,0.00000,0.00000,49,3,57,-8,44,7,70,27,ok,2,0,0.003,12,0.99,0.07,10.65,67,0.013,8.08
11.9081,-0.00698,0.07679,0.16057,0.00000,0.00000,0.00000,50,3,55,-9,45,7,71,23,ok,2,0,0.003,12,0.99,0.07,10.65,67,0.025,8.08
11.9129,-0.00698,0.07679,0.16057,0.00000,0.00000,0.00000,50,2,53,-9,46,7,73,20,ok,2,0,0.003,12,0.99,0.07,10.65,67,0.038,8.08
11.9255,-0.00698,0.07679,0.16057,0.00000,0.00000,0.00000,50,5,51,-10,47,7,73,20,ok,2,0,0.003,12,0.99,0.07,10.65,67,0.050,8.08
11.9481,-0.00698,0.07679,0.16057,0.00000,0.00000,0.00000,50,5,48,-10,48,7,73,18,ok,2,0,0.003,12,0.99,0.07,10.65,67,0.063,8.08
11.9515,-0.00698,0.07679,0.16057,0.00000,0.00000,0.00000,51,5,46,-10,49,7,73,14,ok,2,0,0.003,12,0.99,0.07,10.65,67,0.076,8.08
11.9640,-0.00698,0.07679,0.16057,0.00000,0.00000,0.00000,52,6,44,-10,49,8,72,12,ok,2,0,0.003,12,0.99,0.07,10.65,67,0.089,8.08
11.9841,-0.00698,0.07679,0.16057,0.00000,0.00000,0.00000,52,6,41,-10,50,7,72,10,ok,2,0,0.003,12,0.99,0.07,10.65,67,0.101,8.08
11.9889,-0.00698,0.07679,0.16057,0.00000,0.00000,0.00000,53,7,38,-11,51,7,71,7,ok,2,0,0.003,12,0.99,0.07,10.65,67,0.114,8.08
12.0015,-0.00698,0.07679,0.16057,0.00000,0.00000,0.00000,53,7,36,-10,52,7,71,5,ok,2,0,0.003,12,0.99,0.07,10.65,67,0.126,8.08
12.0241,-0.00698,0.07679,0.16057,0.00000,0.00000,0.00000,54,7,33,-9,52,7,70,4,ok,2,0,0.003,12,0.99,0.07,10.65,67,0.139,8.08
12.0273,-0.00698,0.07679,0.16057,0.00000,0.00000,0.00000,54,8,30,-7,53,8,68,2,ok,2,0,0.003,12,0.99,0.07,10.65,67,0.152,8.08
12.0399,-0.00698,0.07679,0.16057,0.00000,0.00000,0.00000,54,7,27,-6,54,8,66,1,ok,2,0,0.003,12,0.99,0.07,10.65,67,0.165,8.08
12.0601,-0.00698,0.07679,0.16057,0.00000,0.00000,0.00000,54,8,24,-5,55,8,65,-1,ok,2,0,0.003,12,0.99,0.07,10.65,67,0.177,8.08
12.0649,-0.00698,0.07679,0.16057,0.00000,0.00000,0.00000,55,9,20,-2,56,8,64,-2,ok,2,0,0.003,12,0.99,0.07,10.65,67,0.190,8.08
12.0778,-0.03491,0.13265,0.29671,0.00000,0.00000,0.00000,55,9,18,-1,58,6,62,-4,ok,2,0,0.003,12,1.36,-0.27,10.22,68,0.000,8.08
12.1001,-0.03491,0.13265,0.29671,0.00000,0.00000,0.00000,55,9,18,1,58,7,60,-5,ok,2,0,0.003,12,1.36,-0.27,10.22,68,0.013,8.08
12.1034,-0.03491,0.13265,0.29671,0.00000,0.00000,0.00000,56,10,16,3,59,8,58,-5,ok,2,0,0.003,12,1.36,-0.27,10.22,68,0.026,8.08
12.1159,-0.03491,0.13265,0.29671,0.00000,0.00000,0.00000,56,10,14,6,59,8,56,-6,ok,2,0,0.003,12,1.36,-0.27,10.22,68,0.039,8.08
12.1361,-0.03491,0.13265,0.29671,0.00000,0.00000,0.00000,56,11,12,9,59,9,54,-7,ok,2,0,0.003,12,1.36,-0.27,10.22,68,0.051,8.08
12.1409,-0.03491,0.13265,0.29671,0.00000,0.00000,0.00000,56,11,12,12,60,9,50,-6,ok,2,0,0.003,12,1.36,-0.27,10.22,68,0.064,8.08
12.1535,-0.03491,0.13265,0.29671,0.00000,0.00000,0.00000,56,12,13,12,60,10,48,-5,ok,2,0,0.003,12,1.36,-0.27,10.22,68,0.076,8.08
12.1761,-0.03491,0.13265,0.29671,0.00000,0.00000,0.00000,56,12,14,12,61,11,46,-5,ok,2,0,0.003,12,1.36,-0.27,10.22,68,0.089,8.08
12.1793,-0.03491,0.13265,0.29671,0.00000,0.00000,0.00000,56,13,16,11,61,11,43,-4,ok,2,0,0.003,12,1.36,-0.27,10.22,68,0.102,8.08
12.1919,-0.03491,0.13265,0.29671,0.00000,0.00000,0.00000,56,14,18,10,61,12,41,-4,ok,2,0,0.003,12,1.36,-0.27,10.22,68,0.115,8.08
12.2121,-0.03491,0.13265,0.29671,0.00000,0.00000,0.00000,56,14,18,9,61,12,38,-3,ok,2,0,0.003,12,1.36,-0.27,10.22,68,0.127,8.08
12.2171,-0.03491,0.13265,0.29671,0.00000,0.00000,0.00000,56,15,20,8,62,13,35,-3,ok,2,0,0.003,12,1.36,-0.27,10.22,68,0.139,8.08
12.2296,-0.03491,0.13265,0.29671,0.00000,0.00000,0.00000,56,17,20,7,62,14,31,-1,ok,2,0,0.003,12,1.36,-0.27,10.22,68,0.152,8.08
12.2521,-0.03491,0.13265,0.29671,0.00000,0.00000,0.00000,57,18,22,6,63,14,30,0,ok,2,0,0.003,12,1.36,-0.27,10.22,68,0.165,8.08
