# run_gait log  cmd_fwd=0.100 hz=80.0 fw_balance=off policy_yaw_sign=-1
t,roll,pitch,yaw,gx,gy,gz,j0,j1,j2,j3,j4,j5,j6,j7,guard_state,hottest_j,hottest_tier,hottest_frac,duty_s,ax,ay,az,imu_n,imu_age_s,volt
0.0403,-0.01396,0.01047,0.00000,0.00000,0.00000,0.00000,36,0,57,10,60,-3,54,8,ok,3,0,0.000,0,0.13,-0.13,9.98,8,0.028,nan
0.0456,-0.01396,0.01047,0.00000,0.00000,0.00000,0.00000,34,1,59,10,59,-4,56,6,ok,2,0,0.000,0,0.13,-0.13,9.98,8,0.054,nan
0.0586,-0.01396,0.01047,0.00000,0.00000,0.00000,0.00000,34,4,59,11,56,-5,56,8,ok,4,0,0.000,0,0.13,-0.13,9.98,8,0.067,8.20
0.0802,-0.01396,0.01047,0.00000,0.00000,0.00000,0.00000,33,6,60,12,55,-6,57,8,ok,4,0,0.000,0,0.13,-0.13,9.98,8,0.079,8.20
0.0842,-0.01396,0.01047,0.00000,0.00000,0.00000,0.00000,32,10,59,13,52,-5,57,9,ok,4,0,0.000,0,0.13,-0.13,9.98,8,0.094,8.20
0.0967,-0.01396,0.01047,0.00000,0.00000,0.00000,0.00000,31,12,60,13,50,-5,58,10,ok,4,0,0.000,0,0.13,-0.13,9.98,8,0.106,8.20
0.1202,-0.01396,0.01047,0.00000,0.00000,0.00000,0.00000,32,13,60,14,47,-5,59,11,ok,4,0,0.000,0,0.13,-0.13,9.98,8,0.119,8.20
0.1246,-0.02793,-0.01047,-0.01047,0.00000,0.00000,0.00000,32,13,60,15,44,-4,59,11,ok,4,0,0.000,0,-1.12,-0.78,11.08,9,0.000,8.20
0.1367,-0.02793,-0.01047,-0.01047,0.00000,0.00000,0.00000,33,12,61,15,42,-4,60,12,ok,4,0,0.000,0,-1.12,-0.78,11.08,9,0.013,8.20
0.1602,-0.02793,-0.01047,-0.01047,0.00000,0.00000,0.00000,34,11,61,16,39,-3,60,12,ok,4,0,0.000,0,-1.12,-0.78,11.08,9,0.025,8.20
0.1640,-0.02793,-0.01047,-0.01047,0.00000,0.00000,0.00000,34,11,61,17,36,-2,61,13,ok,4,0,0.000,0,-1.12,-0.78,11.08,9,0.040,8.20
0.1761,-0.02793,-0.01047,-0.01047,0.00000,0.00000,0.00000,34,9,61,18,32,-1,61,14,ok,4,0,0.000,0,-1.12,-0.78,11.08,9,0.053,8.20
0.1960,-0.02793,-0.01047,-0.01047,0.00000,0.00000,0.00000,35,9,61,19,30,0,62,15,ok,4,0,0.000,0,-1.12,-0.78,11.08,9,0.065,8.20
0.2012,-0.02793,-0.01047,-0.01047,0.00000,0.00000,0.00000,36,8,63,20,27,2,62,16,ok,4,0,0.000,0,-1.12,-0.78,11.08,9,0.078,8.20
0.2136,-0.02793,-0.01047,-0.01047,0.00000,0.00000,0.00000,36,7,63,21,25,5,63,16,ok,4,0,0.000,0,-1.12,-0.78,11.08,9,0.090,8.20
0.2361,-0.02793,-0.01047,-0.01047,0.00000,0.00000,0.00000,37,7,62,21,23,8,63,17,ok,4,0,0.000,0,-1.12,-0.78,11.08,9,0.103,8.20
0.2392,-0.02793,-0.01047,-0.01047,0.00000,0.00000,0.00000,38,6,62,23,22,11,63,18,ok,4,0,0.000,0,-1.12,-0.78,11.08,9,0.116,8.20
0.2520,-0.02793,-0.01047,-0.01047,0.00000,0.00000,0.00000,38,6,62,23,21,14,64,18,ok,4,0,0.000,0,-1.12,-0.78,11.08,9,0.128,8.20
0.2720,-0.02793,-0.01047,-0.01047,0.00000,0.00000,0.00000,39,5,61,26,23,13,65,19,ok,4,0,0.000,0,-1.12,-0.78,11.08,9,0.141,8.20
0.2768,-0.02793,-0.01047,-0.01047,0.00000,0.00000,0.00000,39,5,62,28,22,14,65,20,ok,4,0,0.000,0,-1.12,-0.78,11.08,9,0.153,8.20
0.2894,-0.02793,-0.01047,-0.01047,0.00000,0.00000,0.00000,40,4,63,26,24,12,65,21,ok,4,0,0.000,0,-1.12,-0.78,11.08,9,0.166,8.20
0.3121,-0.02793,-0.01047,-0.01047,0.00000,0.00000,0.00000,40,4,66,23,25,11,66,23,ok,4,0,0.000,0,-1.12,-0.78,11.08,9,0.178,8.20
0.3153,-0.02793,-0.01047,-0.01047,0.00000,0.00000,0.00000,41,3,68,20,26,11,66,24,ok,4,0,0.000,0,-1.12,-0.78,11.08,9,0.192,8.20
0.3282,-0.11868,-0.01047,0.01047,0.00000,0.00000,0.00000,42,3,70,16,27,11,65,25,ok,4,0,0.000,0,-0.59,-1.80,8.63,10,0.000,8.20
0.3480,-0.11868,-0.01047,0.01047,0.00000,0.00000,0.00000,42,3,70,14,28,9,65,27,ok,4,0,0.000,0,-0.59,-1.80,8.63,10,0.013,8.20
0.3529,-0.11868,-0.01047,0.01047,0.00000,0.00000,0.00000,44,2,71,14,30,9,66,28,ok,4,0,0.000,0,-0.59,-1.80,8.63,10,0.025,8.20
0.3655,-0.11868,-0.01047,0.01047,0.00000,0.00000,0.00000,44,2,71,10,31,9,65,30,ok,4,0,0.000,0,-0.59,-1.80,8.63,10,0.038,8.20
0.3881,-0.11868,-0.01047,0.01047,0.00000,0.00000,0.00000,45,2,70,7,32,10,65,31,ok,4,0,0.000,0,-0.59,-1.80,8.63,10,0.050,8.20
0.3912,-0.11868,-0.01047,0.01047,0.00000,0.00000,0.00000,46,2,69,5,34,9,66,32,ok,4,0,0.000,0,-0.59,-1.80,8.63,10,0.063,8.20
0.4039,-0.11868,-0.01047,0.01047,0.00000,0.00000,0.00000,46,2,68,2,35,9,65,34,ok,4,0,0.000,0,-0.59,-1.80,8.63,10,0.076,8.20
0.4240,-0.11868,-0.01047,0.01047,0.00000,0.00000,0.00000,46,2,67,0,37,8,65,35,ok,4,0,0.000,0,-0.59,-1.80,8.63,10,0.088,8.20
0.4288,-0.11868,-0.01047,0.01047,0.00000,0.00000,0.00000,48,2,66,-1,38,8,64,36,ok,4,0,0.000,0,-0.59,-1.80,8.63,10,0.101,8.20
0.4414,-0.11868,-0.01047,0.01047,0.00000,0.00000,0.00000,48,2,64,-3,40,7,65,36,ok,4,0,0.000,0,-0.59,-1.80,8.63,10,0.113,8.20
0.4641,-0.11868,-0.01047,0.01047,0.00000,0.00000,0.00000,48,3,62,-4,42,7,66,35,ok,4,0,0.000,0,-0.59,-1.80,8.63,10,0.126,8.20
0.4672,-0.11868,-0.01047,0.01047,0.00000,0.00000,0.00000,49,3,61,-7,43,7,68,32,ok,4,0,0.000,0,-0.59,-1.80,8.63,10,0.139,8.20
0.4799,-0.11868,-0.01047,0.01047,0.00000,0.00000,0.00000,50,5,59,-8,44,6,70,27,ok,4,0,0.000,0,-0.59,-1.80,8.63,10,0.152,8.20
0.5000,-0.11868,-0.01047,0.01047,0.00000,0.00000,0.00000,50,4,56,-9,45,6,71,23,ok,4,0,0.000,0,-0.59,-1.80,8.63,10,0.164,8.20
0.5048,-0.11868,-0.01047,0.01047,0.00000,0.00000,0.00000,51,4,54,-10,46,6,73,20,ok,4,0,0.000,0,-0.59,-1.80,8.63,10,0.177,8.20
0.5174,-0.11868,-0.01047,0.01047,0.00000,0.00000,0.00000,51,6,52,-11,47,6,73,20,ok,4,0,0.000,0,-0.59,-1.80,8.63,10,0.189,8.20
0.5401,-0.11868,-0.01047,0.01047,0.00000,0.00000,0.00000,52,6,50,-10,48,7,73,17,ok,4,0,0.000,1,-0.59,-1.80,8.63,10,0.202,8.20
0.5436,-0.05760,0.02094,0.02269,0.00000,0.00000,0.00000,52,6,47,-10,49,7,73,14,ok,4,0,0.000,1,-0.42,-1.08,9.50,11,0.000,8.20
0.5558,-0.05760,0.02094,0.02269,0.00000,0.00000,0.00000,52,6,45,-10,50,7,72,11,ok,4,0,0.000,1,-0.42,-1.08,9.50,11,0.013,8.20
0.5762,-0.05760,0.02094,0.02269,0.00000,0.00000,0.00000,52,7,42,-10,51,7,72,10,ok,4,0,0.000,1,-0.42,-1.08,9.50,11,0.025,8.20
0.5810,-0.05760,0.02094,0.02269,0.00000,0.00000,0.00000,54,7,40,-11,52,7,71,6,ok,4,0,0.000,1,-0.42,-1.08,9.50,11,0.038,8.20
0.5934,-0.05760,0.02094,0.02269,0.00000,0.00000,0.00000,54,7,37,-10,53,6,71,4,ok,4,0,0.000,1,-0.42,-1.08,9.50,11,0.050,8.20
0.6161,-0.05760,0.02094,0.02269,0.00000,0.00000,0.00000,54,7,34,-9,53,7,70,3,ok,4,0,0.000,1,-0.42,-1.08,9.50,11,0.063,8.20
0.6192,-0.05760,0.02094,0.02269,0.00000,0.00000,0.00000,54,8,31,-8,53,7,68,1,ok,4,0,0.000,1,-0.42,-1.08,9.50,11,0.076,8.20
0.6318,-0.05760,0.02094,0.02269,0.00000,0.00000,0.00000,54,8,27,-7,54,8,66,0,ok,4,0,0.000,1,-0.42,-1.08,9.50,11,0.089,8.20
0.6520,-0.05760,0.02094,0.02269,0.00000,0.00000,0.00000,54,9,24,-5,55,8,65,-2,ok,2,0,0.000,1,-0.42,-1.08,9.50,11,0.101,8.20
0.6568,-0.05760,0.02094,0.02269,0.00000,0.00000,0.00000,55,10,20,-2,56,8,64,-3,ok,2,0,0.000,1,-0.42,-1.08,9.50,11,0.114,8.20
0.6694,-0.05760,0.02094,0.02269,0.00000,0.00000,0.00000,56,10,19,-1,58,6,62,-5,ok,2,0,0.000,1,-0.42,-1.08,9.50,11,0.126,8.20
0.6921,-0.05760,0.02094,0.02269,0.00000,0.00000,0.00000,56,10,17,1,58,8,60,-5,ok,2,0,0.000,1,-0.42,-1.08,9.50,11,0.139,8.20
0.6952,-0.05760,0.02094,0.02269,0.00000,0.00000,0.00000,56,10,15,3,59,9,58,-6,ok,2,0,0.000,1,-0.42,-1.08,9.50,11,0.152,8.20
0.7078,-0.05760,0.02094,0.02269,0.00000,0.00000,0.00000,56,10,14,6,59,9,55,-6,ok,2,0,0.000,1,-0.42,-1.08,9.50,11,0.165,8.20
0.7280,-0.05760,0.02094,0.02269,0.00000,0.00000,0.00000,56,12,12,10,60,10,54,-7,ok,2,0,0.000,1,-0.42,-1.08,9.50,11,0.177,8.20
0.7330,-0.05760,0.02094,0.02269,0.00000,0.00000,0.00000,56,12,12,12,60,10,50,-6,ok,2,0,0.000,1,-0.42,-1.08,9.50,11,0.190,8.20
0.7458,0.00349,0.02618,-0.03142,0.00000,0.00000,0.00000,56,13,13,12,60,10,48,-6,ok,2,0,0.000,1,-0.29,0.24,9.10,12,0.000,8.20
0.7680,0.00349,0.02618,-0.03142,0.00000,0.00000,0.00000,56,13,15,11,61,11,46,-6,ok,2,0,0.000,1,-0.29,0.24,9.10,12,0.013,8.20
0.7712,0.00349,0.02618,-0.03142,0.00000,0.00000,0.00000,56,14,16,10,61,11,42,-5,ok,2,0,0.000,1,-0.29,0.24,9.10,12,0.026,8.20
0.7840,0.00349,0.02618,-0.03142,0.00000,0.00000,0.00000,56,15,18,9,61,12,40,-5,ok,2,0,0.000,1,-0.29,0.24,9.10,12,0.038,8.20
0.8040,0.00349,0.02618,-0.03142,0.00000,0.00000,0.00000,56,15,19,8,61,13,37,-3,ok,2,0,0.000,1,-0.29,0.24,9.10,12,0.051,8.20
0.8088,0.00349,0.02618,-0.03142,0.00000,0.00000,0.00000,56,16,21,7,62,13,35,-3,ok,2,0,0.000,1,-0.29,0.24,9.10,12,0.063,8.20
0.8214,0.00349,0.02618,-0.03142,0.00000,0.00000,0.00000,56,18,21,7,62,14,31,-1,ok,2,0,0.000,1,-0.29,0.24,9.10,12,0.076,8.20
0.8440,0.00349,0.02618,-0.03142,0.00000,0.00000,0.00000,58,19,23,5,63,14,30,0,ok,2,0,0.000,1,-0.29,0.24,9.10,12,0.088,8.20
0.8473,0.00349,0.02618,-0.03142,0.00000,0.00000,0.00000,58,20,24,4,63,15,27,1,ok,2,0,0.000,1,-0.29,0.24,9.10,12,0.102,8.20
0.8601,0.00349,0.02618,-0.03142,0.00000,0.00000,0.00000,58,21,24,4,63,16,25,4,ok,2,0,0.000,1,-0.29,0.24,9.10,12,0.115,8.20
0.8800,0.00349,0.02618,-0.03142,0.00000,0.00000,0.00000,58,22,25,4,63,17,24,7,ok,2,0,0.000,1,-0.29,0.24,9.10,12,0.127,8.20
0.8849,0.00349,0.02618,-0.03142,0.00000,0.00000,0.00000,58,23,26,3,64,17,23,11,ok,2,0,0.000,1,-0.29,0.24,9.10,12,0.140,8.20
0.8974,0.00349,0.02618,-0.03142,0.00000,0.00000,0.00000,57,26,27,2,64,19,22,12,ok,2,0,0.000,1,-0.29,0.24,9.10,12,0.152,8.20
0.9201,0.00349,0.02618,-0.03142,0.00000,0.00000,0.00000,57,26,28,2,64,20,24,12,ok,2,0,0.000,1,-0.29,0.24,9.10,12,0.165,8.20
0.9232,0.00349,0.02618,-0.03142,0.00000,0.00000,0.00000,58,25,29,2,64,21,25,11,ok,2,0,0.000,1,-0.29,0.24,9.10,12,0.178,8.20
0.9361,0.00349,0.02618,-0.03142,0.00000,0.00000,0.00000,58,21,30,2,65,22,26,9,ok,2,0,0.000,1,-0.29,0.24,9.10,12,0.191,8.20
0.9560,-0.04363,0.06807,-0.02793,0.00000,0.00000,0.00000,60,18,31,1,64,23,27,9,ok,2,0,0.000,1,0.40,-2.10,10.03,13,0.000,8.20
0.9609,-0.04363,0.06807,-0.02793,0.00000,0.00000,0.00000,60,13,33,2,64,25,28,10,ok,2,0,0.000,1,0.40,-2.10,10.03,13,0.012,8.20
0.9734,-0.04363,0.06807,-0.02793,0.00000,0.00000,0.00000,60,11,34,2,65,25,29,9,ok,2,0,0.000,1,0.40,-2.10,10.03,13,0.025,8.20
0.9960,-0.04363,0.06807,-0.02793,0.00000,0.00000,0.00000,60,11,36,2,63,28,30,8,ok,2,0,0.000,1,0.40,-2.10,10.03,13,0.037,8.20
0.9993,-0.04363,0.06807,-0.02793,0.00000,0.00000,0.00000,60,7,37,2,63,29,32,8,ok,2,0,0.000,1,0.40,-2.10,10.03,13,0.051,8.20
1.0118,-0.04363,0.06807,-0.02793,0.00000,0.00000,0.00000,60,4,38,3,64,30,33,9,ok,2,0,0.000,1,0.40,-2.10,10.03,13,0.064,8.20
1.0320,-0.04363,0.06807,-0.02793,0.00000,0.00000,0.00000,60,2,40,3,64,32,35,8,ok,2,0,0.000,1,0.40,-2.10,10.03,13,0.076,8.20
1.0369,-0.04363,0.06807,-0.02793,0.00000,0.00000,0.00000,59,-1,41,3,64,34,36,8,ok,2,0,0.000,1,0.40,-2.10,10.03,13,0.088,8.20
1.0494,-0.04363,0.06807,-0.02793,0.00000,0.00000,0.00000,58,-3,42,3,64,35,37,8,ok,2,0,0.000,1,0.40,-2.10,10.03,13,0.101,8.20
1.0720,-0.04363,0.06807,-0.02793,0.00000,0.00000,0.00000,58,-4,44,3,64,35,38,8,ok,2,0,0.000,1,0.40,-2.10,10.03,13,0.113,8.20
1.0752,-0.04363,0.06807,-0.02793,0.00000,0.00000,0.00000,56,-5,44,3,66,35,39,8,ok,2,0,0.000,1,0.40,-2.10,10.03,13,0.127,8.20
1.0878,-0.04363,0.06807,-0.02793,0.00000,0.00000,0.00000,56,-6,45,3,67,33,41,7,ok,2,0,0.000,1,0.40,-2.10,10.03,13,0.139,8.20
1.1080,-0.04363,0.06807,-0.02793,0.00000,0.00000,0.00000,56,-8,46,3,70,28,42,7,ok,2,0,0.000,1,0.40,-2.10,10.03,13,0.152,8.20
1.1128,-0.04363,0.06807,-0.02793,0.00000,0.00000,0.00000,54,-9,48,4,71,24,44,7,ok,2,0,0.000,1,0.40,-2.10,10.03,13,0.164,8.20
1.1254,-0.04363,0.06807,-0.02793,0.00000,0.00000,0.00000,53,-10,49,4,73,21,44,7,ok,2,0,0.000,1,0.40,-2.10,10.03,13,0.177,8.20
1.1481,0.02793,0.04712,-0.02793,0.00000,0.00000,0.00000,52,-10,49,4,74,21,45,7,ok,2,0,0.000,1,0.55,0.57,10.08,14,0.000,8.20
1.1512,0.02793,0.04712,-0.02793,0.00000,0.00000,0.00000,51,-11,49,5,74,19,46,7,ok,2,0,0.000,1,0.55,0.57,10.08,14,0.013,8.20
1.1638,0.02793,0.04712,-0.02793,0.00000,0.00000,0.00000,50,-11,51,6,74,15,47,8,ok,2,0,0.000,1,0.55,0.57,10.08,14,0.026,8.20
1.1840,0.02793,0.04712,-0.02793,0.00000,0.00000,0.00000,48,-11,52,6,73,12,48,8,ok,2,0,0.000,1,0.55,0.57,10.08,14,0.039,8.20
1.1888,0.02793,0.04712,-0.02793,0.00000,0.00000,0.00000,47,-10,53,6,73,10,49,8,ok,2,0,0.000,1,0.55,0.57,10.08,14,0.051,8.20
1.2014,0.02793,0.04712,-0.02793,0.00000,0.00000,0.00000,46,-10,53,7,72,7,49,8,ok,2,0,0.000,1,0.55,0.57,10.08,14,0.064,8.20
1.2240,0.02793,0.04712,-0.02793,0.00000,0.00000,0.00000,44,-10,55,6,72,5,50,8,ok,2,0,0.000,1,0.55,0.57,10.08,14,0.076,8.20
1.2272,0.02793,0.04712,-0.02793,0.00000,0.00000,0.00000,43,-9,56,6,71,4,51,8,ok,2,0,0.000,1,0.55,0.57,10.08,14,0.089,8.20
1.2398,0.02793,0.04712,-0.02793,0.00000,0.00000,0.00000,42,-8,57,6,69,1,52,7,ok,2,0,0.000,1,0.55,0.57,10.08,14,0.102,8.20
1.2600,0.02793,0.04712,-0.02793,0.00000,0.00000,0.00000,40,-7,57,7,66,2,52,8,ok,2,0,0.000,1,0.55,0.57,10.08,14,0.115,8.20
1.2648,0.02793,0.04712,-0.02793,0.00000,0.00000,0.00000,38,-5,57,7,65,-1,53,8,ok,2,0,0.000,1,0.55,0.57,10.08,14,0.127,8.20
1.2774,0.02793,0.04712,-0.02793,0.00000,0.00000,0.00000,37,-4,58,8,64,-2,54,8,ok,2,0,0.000,1,0.55,0.57,10.08,14,0.140,8.20
1.3001,0.02793,0.04712,-0.02793,0.00000,0.00000,0.00000,35,-2,59,9,61,-4,55,8,ok,2,0,0.000,1,0.55,0.57,10.08,14,0.152,8.20
1.3034,0.02793,0.04712,-0.02793,0.00000,0.00000,0.00000,34,-1,60,11,60,-5,55,8,ok,2,0,0.000,1,0.55,0.57,10.08,14,0.165,8.20
1.3159,0.02793,0.04712,-0.02793,0.00000,0.00000,0.00000,34,-1,60,10,58,-5,57,6,ok,2,0,0.000,1,0.55,0.57,10.08,14,0.178,8.20
1.3361,0.02793,0.04712,-0.02793,0.00000,0.00000,0.00000,33,2,61,11,56,-6,57,7,ok,2,0,0.000,1,0.55,0.57,10.08,14,0.191,8.20
1.3412,0.02793,0.04712,-0.02793,0.00000,0.00000,0.00000,32,5,61,11,54,-7,58,8,ok,2,0,0.000,1,0.55,0.57,10.08,14,0.203,8.20
1.3537,0.02269,0.04014,-0.01396,0.00000,0.00000,0.00000,32,8,61,12,51,-6,59,8,ok,2,0,0.000,1,0.44,-0.60,11.37,15,0.000,8.20
1.3761,0.02269,0.04014,-0.01396,0.00000,0.00000,0.00000,31,10,61,12,48,-5,59,8,ok,2,0,0.000,1,0.44,-0.60,11.37,15,0.013,8.20
1.3793,0.02269,0.04014,-0.01396,0.00000,0.00000,0.00000,32,11,61,13,46,-5,60,9,ok,4,0,0.000,1,0.44,-0.60,11.37,15,0.026,8.20
1.3918,0.02269,0.04014,-0.01396,0.00000,0.00000,0.00000,32,11,61,13,43,-5,60,10,ok,4,0,0.000,1,0.44,-0.60,11.37,15,0.038,8.20
1.4120,0.02269,0.04014,-0.01396,0.00000,0.00000,0.00000,32,9,62,14,40,-5,61,11,ok,4,0,0.000,1,0.44,-0.60,11.37,15,0.051,8.20
1.4170,0.02269,0.04014,-0.01396,0.00000,0.00000,0.00000,34,9,62,14,37,-4,61,11,ok,4,0,0.000,1,0.44,-0.60,11.37,15,0.063,8.20
1.4294,0.02269,0.04014,-0.01396,0.00000,0.00000,0.00000,34,8,62,15,34,-3,62,12,ok,4,0,0.000,1,0.44,-0.60,11.37,15,0.076,8.20
1.4521,0.02269,0.04014,-0.01396,0.00000,0.00000,0.00000,35,7,63,16,31,-1,62,13,ok,4,0,0.000,1,0.44,-0.60,11.37,15,0.088,8.20
1.4552,0.02269,0.04014,-0.01396,0.00000,0.00000,0.00000,35,7,63,17,29,0,62,14,ok,4,0,0.000,1,0.44,-0.60,11.37,15,0.102,8.20
1.4680,0.02269,0.04014,-0.01396,0.00000,0.00000,0.00000,36,6,64,18,28,2,63,14,ok,4,0,0.000,1,0.44,-0.60,11.37,15,0.114,8.20
1.4880,0.02269,0.04014,-0.01396,0.00000,0.00000,0.00000,36,5,64,19,25,5,63,15,ok,4,0,0.000,1,0.44,-0.60,11.37,15,0.127,8.20
1.4928,0.02269,0.04014,-0.01396,0.00000,0.00000,0.00000,37,4,64,20,24,8,63,16,ok,4,0,0.000,1,0.44,-0.60,11.37,15,0.139,8.20
1.5054,0.02269,0.04014,-0.01396,0.00000,0.00000,0.00000,38,4,64,22,23,11,63,17,ok,4,0,0.000,1,0.44,-0.60,11.37,15,0.152,8.20
1.5281,0.02269,0.04014,-0.01396,0.00000,0.00000,0.00000,38,3,64,23,22,14,64,17,ok,4,0,0.000,1,0.44,-0.60,11.37,15,0.164,8.20
1.5312,0.02269,0.04014,-0.01396,0.00000,0.00000,0.00000,38,3,63,25,24,14,64,18,ok,4,0,0.000,1,0.44,-0.60,11.37,15,0.178,8.20
1.5439,0.02269,0.04014,-0.01396,0.00000,0.00000,0.00000,39,2,63,27,24,14,64,19,ok,4,0,0.000,1,0.44,-0.60,11.37,15,0.191,8.20
1.5640,-0.05411,0.02269,-0.09076,0.00000,0.00000,0.00000,40,2,64,25,25,11,64,20,ok,4,0,0.000,2,-0.23,-1.45,9.06,16,0.000,8.20
1.5689,-0.05411,0.02269,-0.09076,0.00000,0.00000,0.00000,40,1,67,23,26,10,65,21,ok,4,0,0.000,2,-0.23,-1.45,9.06,16,0.012,8.20
1.5814,-0.05411,0.02269,-0.09076,0.00000,0.00000,0.00000,41,1,69,19,28,10,65,22,ok,4,0,0.000,2,-0.23,-1.45,9.06,16,0.025,8.20
1.6041,-0.05411,0.02269,-0.09076,0.00000,0.00000,0.00000,42,1,70,15,29,10,65,23,ok,4,0,0.000,2,-0.23,-1.45,9.06,16,0.038,8.20
1.6072,-0.05411,0.02269,-0.09076,0.00000,0.00000,0.00000,42,1,71,13,30,9,65,25,ok,4,0,0.000,2,-0.23,-1.45,9.06,16,0.051,8.20
1.6199,-0.05411,0.02269,-0.09076,0.00000,0.00000,0.00000,44,1,70,12,32,9,66,26,ok,4,0,0.000,2,-0.23,-1.45,9.06,16,0.063,8.20
1.6400,-0.05411,0.02269,-0.09076,0.00000,0.00000,0.00000,44,1,70,9,33,9,65,28,ok,4,0,0.000,2,-0.23,-1.45,9.06,16,0.076,8.20
1.6449,-0.05411,0.02269,-0.09076,0.00000,0.00000,0.00000,45,2,69,6,35,9,64,30,ok,4,0,0.000,2,-0.23,-1.45,9.06,16,0.088,8.20
1.6574,-0.05411,0.02269,-0.09076,0.00000,0.00000,0.00000,46,2,69,3,36,8,64,31,ok,4,0,0.000,2,-0.23,-1.45,9.06,16,0.101,8.20
1.6801,-0.05411,0.02269,-0.09076,0.00000,0.00000,0.00000,46,2,67,1,37,9,64,33,ok,4,0,0.000,2,-0.23,-1.45,9.06,16,0.113,8.20
1.6834,-0.05411,0.02269,-0.09076,0.00000,0.00000,0.00000,46,1,66,-1,38,8,64,34,ok,4,0,0.000,2,-0.23,-1.45,9.06,16,0.127,8.20
1.6959,-0.05411,0.02269,-0.09076,0.00000,0.00000,0.00000,48,2,65,-3,39,8,63,36,ok,4,0,0.000,2,-0.23,-1.45,9.06,16,0.140,8.20
1.7160,-0.05411,0.02269,-0.09076,0.00000,0.00000,0.00000,48,2,62,-4,40,7,64,36,ok,4,0,0.000,2,-0.23,-1.45,9.06,16,0.152,8.20
1.7211,-0.05411,0.02269,-0.09076,0.00000,0.00000,0.00000,48,3,61,-6,42,7,66,35,ok,4,0,0.001,2,-0.23,-1.45,9.06,16,0.165,8.20
1.7334,-0.05411,0.02269,-0.09076,0.00000,0.00000,0.00000,48,3,60,-8,43,7,67,32,ok,4,0,0.001,2,-0.23,-1.45,9.06,16,0.177,8.20
1.7601,-0.05411,0.02269,-0.09076,0.00000,0.00000,0.00000,50,4,58,-8,44,7,69,27,ok,4,0,0.001,2,-0.23,-1.45,9.06,16,0.190,8.20
1.7636,-0.10297,0.05760,-0.07679,0.00000,0.00000,0.00000,50,3,56,-9,44,7,71,23,ok,4,0,0.001,2,-0.11,-0.44,9.98,17,0.000,8.20
1.7759,-0.10297,0.05760,-0.07679,0.00000,0.00000,0.00000,50,3,53,-9,45,7,72,21,ok,4,0,0.001,2,-0.11,-0.44,9.98,17,0.013,8.20
1.7960,-0.10297,0.05760,-0.07679,0.00000,0.00000,0.00000,50,5,51,-10,47,7,73,20,ok,4,0,0.001,2,-0.11,-0.44,9.98,17,0.025,8.20
1.8010,-0.10297,0.05760,-0.07679,0.00000,0.00000,0.00000,51,6,49,-10,47,7,73,18,ok,4,0,0.001,2,-0.11,-0.44,9.98,17,0.038,8.20
1.8134,-0.10297,0.05760,-0.07679,0.00000,0.00000,0.00000,52,5,46,-10,48,7,73,15,ok,4,0,0.001,2,-0.11,-0.44,9.98,17,0.050,8.20
1.8361,-0.10297,0.05760,-0.07679,0.00000,0.00000,0.00000,52,6,44,-9,49,7,72,12,ok,4,0,0.001,2,-0.11,-0.44,9.98,17,0.063,8.20
1.8392,-0.10297,0.05760,-0.07679,0.00000,0.00000,0.00000,52,6,41,-10,50,7,72,11,ok,4,0,0.001,2,-0.11,-0.44,9.98,17,0.076,8.20
1.8520,-0.10297,0.05760,-0.07679,0.00000,0.00000,0.00000,53,6,39,-10,51,7,71,7,ok,4,0,0.001,2,-0.11,-0.44,9.98,17,0.089,8.20
1.8720,-0.10297,0.05760,-0.07679,0.00000,0.00000,0.00000,53,7,36,-9,52,7,71,5,ok,4,0,0.001,2,-0.11,-0.44,9.98,17,0.101,8.20
1.8768,-0.10297,0.05760,-0.07679,0.00000,0.00000,0.00000,54,7,33,-8,52,7,70,4,ok,2,0,0.001,2,-0.11,-0.44,9.98,17,0.114,8.20
1.8894,-0.10297,0.05760,-0.07679,0.00000,0.00000,0.00000,54,8,30,-7,53,8,68,2,ok,2,0,0.001,2,-0.11,-0.44,9.98,17,0.126,8.20
1.9121,-0.10297,0.05760,-0.07679,0.00000,0.00000,0.00000,54,8,27,-6,54,8,66,1,ok,2,0,0.001,2,-0.11,-0.44,9.98,17,0.139,8.20
1.9152,-0.10297,0.05760,-0.07679,0.00000,0.00000,0.00000,54,9,24,-5,55,8,65,0,ok,2,0,0.001,2,-0.11,-0.44,9.98,17,0.152,8.20
1.9278,-0.10297,0.05760,-0.07679,0.00000,0.00000,0.00000,55,10,20,-2,56,8,64,-2,ok,2,0,0.001,2,-0.11,-0.44,9.98,17,0.165,8.20
1.9480,-0.10297,0.05760,-0.07679,0.00000,0.00000,0.00000,55,10,19,-1,58,6,62,-3,ok,2,0,0.001,2,-0.11,-0.44,9.98,17,0.177,8.20
1.9528,-0.10297,0.05760,-0.07679,0.00000,0.00000,0.00000,56,10,18,0,58,7,60,-5,ok,2,0,0.001,2,-0.11,-0.44,9.98,17,0.190,8.20
1.9658,0.02618,0.06807,-0.12566,0.00000,0.00000,0.00000,56,10,16,3,59,8,58,-5,ok,2,0,0.001,2,0.69,0.58,9.23,18,0.000,8.20
1.9881,0.02618,0.06807,-0.12566,0.00000,0.00000,0.00000,56,11,14,6,59,9,55,-6,ok,2,0,0.001,2,0.69,0.58,9.23,18,0.013,8.20
1.9913,0.02618,0.06807,-0.12566,0.00000,0.00000,0.00000,56,12,13,9,60,9,53,-6,ok,2,0,0.001,2,0.69,0.58,9.23,18,0.026,8.20
2.0038,0.02618,0.06807,-0.12566,0.00000,0.00000,0.00000,56,12,12,11,60,10,50,-6,ok,2,0,0.001,2,0.69,0.58,9.23,18,0.039,8.20
2.0240,0.02618,0.06807,-0.12566,0.00000,0.00000,0.00000,56,13,14,11,61,10,47,-5,ok,2,0,0.001,2,0.69,0.58,9.23,18,0.051,8.20
2.0288,0.02618,0.06807,-0.12566,0.00000,0.00000,0.00000,56,14,15,11,61,11,45,-5,ok,2,0,0.001,2,0.69,0.58,9.23,18,0.064,8.20
2.0416,0.02618,0.06807,-0.12566,0.00000,0.00000,0.00000,56,14,16,10,61,11,42,-5,ok,2,0,0.001,2,0.69,0.58,9.23,18,0.076,8.20
2.0640,0.02618,0.06807,-0.12566,0.00000,0.00000,0.00000,56,16,18,8,61,12,40,-5,ok,2,0,0.001,2,0.69,0.58,9.23,18,0.089,8.20
2.0672,0.02618,0.06807,-0.12566,0.00000,0.00000,0.00000,56,16,19,8,61,13,37,-4,ok,2,0,0.001,2,0.69,0.58,9.23,18,0.102,8.20
2.0798,0.02618,0.06807,-0.12566,0.00000,0.00000,0.00000,56,17,20,7,62,13,35,-4,ok,2,0,0.001,2,0.69,0.58,9.23,18,0.115,8.20
2.1000,0.02618,0.06807,-0.12566,0.00000,0.00000,0.00000,56,18,21,7,62,14,31,-2,ok,2,0,0.001,2,0.69,0.58,9.23,18,0.127,8.20
2.1050,0.02618,0.06807,-0.12566,0.00000,0.00000,0.00000,57,19,23,6,63,14,30,-1,ok,2,0,0.001,2,0.69,0.58,9.23,18,0.139,8.20
2.1174,0.02618,0.06807,-0.12566,0.00000,0.00000,0.00000,57,20,24,5,63,16,28,1,ok,2,0,0.001,2,0.69,0.58,9.23,18,0.152,8.20
2.1400,0.02618,0.06807,-0.12566,0.00000,0.00000,0.00000,57,20,24,5,63,16,26,4,ok,2,0,0.001,2,0.69,0.58,9.23,18,0.165,8.20
2.1433,0.02618,0.06807,-0.12566,0.00000,0.00000,0.00000,57,22,25,4,63,17,24,7,ok,2,0,0.001,2,0.69,0.58,9.23,18,0.178,8.20
2.1559,0.02618,0.06807,-0.12566,0.00000,0.00000,0.00000,57,23,25,3,64,18,23,10,ok,2,0,0.001,2,0.69,0.58,9.23,18,0.191,8.20
2.1760,-0.00349,0.04538,-0.12217,0.00000,0.00000,0.00000,57,25,27,3,64,19,23,12,ok,2,0,0.001,2,1.07,-1.62,9.58,19,0.000,8.20
2.1809,-0.00349,0.04538,-0.12217,0.00000,0.00000,0.00000,56,26,27,2,64,20,25,12,ok,2,0,0.001,2,1.07,-1.62,9.58,19,0.012,8.20
2.1936,-0.00349,0.04538,-0.12217,0.00000,0.00000,0.00000,58,25,29,2,64,21,25,11,ok,2,0,0.001,2,1.07,-1.62,9.58,19,0.025,8.20
2.2161,-0.00349,0.04538,-0.12217,0.00000,0.00000,0.00000,58,21,30,2,65,22,26,10,ok,2,0,0.001,2,1.07,-1.62,9.58,19,0.037,8.20
2.2192,-0.00349,0.04538,-0.12217,0.00000,0.00000,0.00000,60,17,31,1,64,23,27,9,ok,2,0,0.001,2,1.07,-1.62,9.58,19,0.051,8.20
2.2318,-0.00349,0.04538,-0.12217,0.00000,0.00000,0.00000,60,13,32,2,64,25,28,10,ok,2,0,0.001,2,1.07,-1.62,9.58,19,0.063,8.20
2.2520,-0.00349,0.04538,-0.12217,0.00000,0.00000,0.00000,60,11,34,2,65,26,29,9,ok,2,0,0.001,2,1.07,-1.62,9.58,19,0.076,8.20
2.2570,-0.00349,0.04538,-0.12217,0.00000,0.00000,0.00000,60,10,36,2,64,28,30,8,ok,2,0,0.001,2,1.07,-1.62,9.58,19,0.088,8.20
2.2694,-0.00349,0.04538,-0.12217,0.00000,0.00000,0.00000,60,7,37,2,64,29,32,8,ok,2,0,0.001,2,1.07,-1.62,9.58,19,0.101,8.20
2.2921,-0.00349,0.04538,-0.12217,0.00000,0.00000,0.00000,60,4,39,3,64,30,33,9,ok,2,0,0.001,2,1.07,-1.62,9.58,19,0.113,8.20
2.2954,-0.00349,0.04538,-0.12217,0.00000,0.00000,0.00000,60,2,40,3,64,32,35,8,ok,2,0,0.001,2,1.07,-1.62,9.58,19,0.127,8.20
2.3079,-0.00349,0.04538,-0.12217,0.00000,0.00000,0.00000,59,-1,42,3,64,34,36,8,ok,2,0,0.001,2,1.07,-1.62,9.58,19,0.139,8.20
2.3280,-0.00349,0.04538,-0.12217,0.00000,0.00000,0.00000,58,-2,43,2,64,35,37,8,ok,2,0,0.001,2,1.07,-1.62,9.58,19,0.152,8.20
2.3328,-0.00349,0.04538,-0.12217,0.00000,0.00000,0.00000,58,-4,44,3,64,36,38,8,ok,2,0,0.001,2,1.07,-1.62,9.58,19,0.164,8.20
2.3454,-0.00349,0.04538,-0.12217,0.00000,0.00000,0.00000,56,-5,44,3,65,35,39,8,ok,2,0,0.001,2,1.07,-1.62,9.58,19,0.177,8.20
2.3681,-0.00349,0.04538,-0.12217,0.00000,0.00000,0.00000,56,-6,45,3,67,33,41,7,ok,2,0,0.001,2,1.07,-1.62,9.58,19,0.189,8.20
2.3716,-0.03316,0.03142,-0.11694,0.00000,0.00000,0.00000,56,-8,47,3,69,29,42,7,ok,2,0,0.001,2,0.57,0.88,11.21,20,0.000,8.20
2.3840,-0.03316,0.03142,-0.11694,0.00000,0.00000,0.00000,54,-9,48,4,71,24,43,7,ok,2,0,0.001,2,0.57,0.88,11.21,20,0.013,8.20
2.4040,-0.03316,0.03142,-0.11694,0.00000,0.00000,0.00000,53,-10,49,4,73,21,44,7,ok,2,0,0.001,2,0.57,0.88,11.21,20,0.025,8.20
2.4088,-0.03316,0.03142,-0.11694,0.00000,0.00000,0.00000,52,-10,49,4,73,21,45,7,ok,2,0,0.001,2,0.57,0.88,11.21,20,0.038,8.20
2.4216,-0.03316,0.03142,-0.11694,0.00000,0.00000,0.00000,51,-11,50,6,73,18,46,7,ok,2,0,0.001,2,0.57,0.88,11.21,20,0.050,8.20
2.4441,-0.03316,0.03142,-0.11694,0.00000,0.00000,0.00000,50,-11,51,6,73,15,47,8,ok,2,0,0.001,2,0.57,0.88,11.21,20,0.063,8.20
2.4472,-0.03316,0.03142,-0.11694,0.00000,0.00000,0.00000,48,-11,52,6,73,12,48,8,ok,2,0,0.001,2,0.57,0.88,11.21,20,0.076,8.20
2.4597,-0.03316,0.03142,-0.11694,0.00000,0.00000,0.00000,47,-11,53,6,72,10,49,8,ok,2,0,0.001,2,0.57,0.88,11.21,20,0.089,8.20
2.4800,-0.03316,0.03142,-0.11694,0.00000,0.00000,0.00000,46,-11,53,7,72,7,49,9,ok,2,0,0.001,2,0.57,0.88,11.21,20,0.101,8.20
2.4848,-0.03316,0.03142,-0.11694,0.00000,0.00000,0.00000,44,-11,56,7,72,5,50,8,ok,2,0,0.001,2,0.57,0.88,11.21,20,0.114,8.20
2.4976,-0.03316,0.03142,-0.11694,0.00000,0.00000,0.00000,43,-10,56,7,71,4,51,9,ok,2,0,0.001,2,0.57,0.88,11.21,20,0.126,8.20
2.5201,-0.03316,0.03142,-0.11694,0.00000,0.00000,0.00000,42,-9,57,7,69,1,52,7,ok,2,0,0.001,2,0.57,0.88,11.21,20,0.139,8.20
2.5233,-0.03316,0.03142,-0.11694,0.00000,0.00000,0.00000,40,-7,57,8,66,1,52,8,ok,2,0,0.001,2,0.57,0.88,11.21,20,0.152,8.20
2.5361,-0.03316,0.03142,-0.11694,0.00000,0.00000,0.00000,38,-6,58,8,65,-1,53,8,ok,2,0,0.001,2,0.57,0.88,11.21,20,0.165,8.20
2.5560,-0.03316,0.03142,-0.11694,0.00000,0.00000,0.00000,37,-4,58,8,63,-2,54,9,ok,2,0,0.001,2,0.57,0.88,11.21,20,0.177,8.20
2.5609,-0.03316,0.03142,-0.11694,0.00000,0.00000,0.00000,35,-2,59,9,61,-4,55,8,ok,2,0,0.001,3,0.57,0.88,11.21,20,0.190,8.20
2.5737,-0.03316,0.03142,-0.11694,0.00000,0.00000,0.00000,34,-1,60,11,60,-5,55,8,ok,2,0,0.001,3,0.57,0.88,11.21,20,0.202,8.20
2.5961,0.05760,-0.01396,-0.12217,0.00000,0.00000,0.00000,34,0,60,10,58,-6,57,6,ok,2,0,0.001,3,0.17,-0.05,11.25,21,0.000,8.20
2.5992,0.05760,-0.01396,-0.12217,0.00000,0.00000,0.00000,33,2,61,11,56,-6,57,7,ok,2,0,0.001,3,0.17,-0.05,11.25,21,0.013,8.20
2.6121,0.05760,-0.01396,-0.12217,0.00000,0.00000,0.00000,32,5,61,10,54,-7,58,8,ok,2,0,0.001,3,0.17,-0.05,11.25,21,0.026,8.20
2.6320,0.05760,-0.01396,-0.12217,0.00000,0.00000,0.00000,32,9,61,12,51,-6,58,8,ok,2,0,0.001,3,0.17,-0.05,11.25,21,0.038,8.20
2.6368,0.05760,-0.01396,-0.12217,0.00000,0.00000,0.00000,31,11,61,11,48,-5,59,8,ok,2,0,0.001,3,0.17,-0.05,11.25,21,0.051,8.20
2.6496,0.05760,-0.01396,-0.12217,0.00000,0.00000,0.00000,32,12,62,12,46,-5,60,9,ok,2,0,0.001,3,0.17,-0.05,11.25,21,0.063,8.20
2.6720,0.05760,-0.01396,-0.12217,0.00000,0.00000,0.00000,32,12,61,13,43,-5,59,10,ok,2,0,0.001,3,0.17,-0.05,11.25,21,0.076,8.20
2.6752,0.05760,-0.01396,-0.12217,0.00000,0.00000,0.00000,33,11,62,13,40,-4,60,11,ok,2,0,0.001,3,0.17,-0.05,11.25,21,0.089,8.20
2.6879,0.05760,-0.01396,-0.12217,0.00000,0.00000,0.00000,34,10,62,13,37,-4,61,11,ok,2,0,0.001,3,0.17,-0.05,11.25,21,0.102,8.20
2.7080,0.05760,-0.01396,-0.12217,0.00000,0.00000,0.00000,34,9,62,14,35,-3,61,12,ok,2,0,0.001,3,0.17,-0.05,11.25,21,0.114,8.20
2.7128,0.05760,-0.01396,-0.12217,0.00000,0.00000,0.00000,36,8,63,15,31,-1,61,13,ok,4,0,0.001,3,0.17,-0.05,11.25,21,0.127,8.20
2.7256,0.05760,-0.01396,-0.12217,0.00000,0.00000,0.00000,36,8,63,16,29,0,62,14,ok,4,0,0.001,3,0.17,-0.05,11.25,21,0.139,8.20
2.7480,0.05760,-0.01396,-0.12217,0.00000,0.00000,0.00000,36,6,64,18,28,2,62,14,ok,4,0,0.001,3,0.17,-0.05,11.25,21,0.152,8.20
2.7512,0.05760,-0.01396,-0.12217,0.00000,0.00000,0.00000,37,5,64,19,25,5,63,15,ok,4,0,0.001,3,0.17,-0.05,11.25,21,0.165,8.20
2.7640,0.05760,-0.01396,-0.12217,0.00000,0.00000,0.00000,38,5,64,20,24,8,63,16,ok,4,0,0.001,3,0.17,-0.05,11.25,21,0.178,8.20
2.7840,0.05760,-0.01396,-0.12217,0.00000,0.00000,0.00000,38,4,64,21,23,11,63,17,ok,4,0,0.001,3,0.17,-0.05,11.25,21,0.190,8.20
2.7892,-0.05760,0.04363,-0.16057,0.00000,0.00000,0.00000,38,4,64,23,22,14,64,17,ok,4,0,0.001,3,0.46,0.17,10.15,22,0.000,8.20
2.8014,-0.05760,0.04363,-0.16057,0.00000,0.00000,0.00000,39,3,63,26,23,13,64,18,ok,4,0,0.001,3,0.46,0.17,10.15,22,0.013,8.20
2.8240,-0.05760,0.04363,-0.16057,0.00000,0.00000,0.00000,40,2,64,27,23,13,64,19,ok,4,0,0.001,3,0.46,0.17,10.15,22,0.025,8.20
2.8273,-0.05760,0.04363,-0.16057,0.00000,0.00000,0.00000,40,2,65,26,25,11,64,20,ok,4,0,0.001,3,0.46,0.17,10.15,22,0.038,8.20
2.8398,-0.05760,0.04363,-0.16057,0.00000,0.00000,0.00000,40,1,67,23,26,10,65,21,ok,4,0,0.001,3,0.46,0.17,10.15,22,0.051,8.20
2.8600,-0.05760,0.04363,-0.16057,0.00000,0.00000,0.00000,41,0,69,20,27,10,65,22,ok,4,0,0.001,3,0.46,0.17,10.15,22,0.063,8.20
2.8648,-0.05760,0.04363,-0.16057,0.00000,0.00000,0.00000,42,0,70,15,28,10,65,24,ok,4,0,0.001,3,0.46,0.17,10.15,22,0.076,8.20
2.8774,-0.05760,0.04363,-0.16057,0.00000,0.00000,0.00000,42,0,71,13,30,9,65,26,ok,4,0,0.001,3,0.46,0.17,10.15,22,0.088,8.20
2.9001,-0.05760,0.04363,-0.16057,0.00000,0.00000,0.00000,44,0,70,13,32,9,65,26,ok,4,0,0.001,3,0.46,0.17,10.15,22,0.101,8.20
2.9034,-0.05760,0.04363,-0.16057,0.00000,0.00000,0.00000,44,0,70,9,33,9,64,29,ok,4,0,0.001,3,0.46,0.17,10.15,22,0.114,8.20
2.9157,-0.05760,0.04363,-0.16057,0.00000,0.00000,0.00000,44,1,70,6,35,9,64,30,ok,4,0,0.001,3,0.46,0.17,10.15,22,0.127,8.20
2.9361,-0.05760,0.04363,-0.16057,0.00000,0.00000,0.00000,46,2,69,3,36,8,64,31,ok,4,0,0.001,3,0.46,0.17,10.15,22,0.140,8.20
2.9410,-0.05760,0.04363,-0.16057,0.00000,0.00000,0.00000,46,2,67,0,37,9,64,33,ok,4,0,0.001,3,0.46,0.17,10.15,22,0.152,8.20
2.9534,-0.05760,0.04363,-0.16057,0.00000,0.00000,0.00000,46,2,66,-2,39,8,64,34,ok,4,0,0.001,3,0.46,0.17,10.15,22,0.165,8.20
2.9761,-0.05760,0.04363,-0.16057,0.00000,0.00000,0.00000,48,2,64,-3,39,8,63,36,ok,4,0,0.001,3,0.46,0.17,10.15,22,0.177,8.20
2.9792,-0.05760,0.04363,-0.16057,0.00000,0.00000,0.00000,48,2,62,-4,41,7,65,36,ok,4,0,0.001,3,0.46,0.17,10.15,22,0.190,8.20
2.9922,-0.16232,0.04189,-0.08203,0.00000,0.00000,0.00000,48,3,61,-6,42,7,66,35,ok,4,0,0.001,3,1.16,-1.54,12.09,23,0.000,8.20
3.0120,-0.16232,0.04189,-0.08203,0.00000,0.00000,0.00000,49,3,60,-8,43,6,68,33,ok,4,0,0.001,3,1.16,-1.54,12.09,23,0.013,8.20
3.0168,-0.16232,0.04189,-0.08203,0.00000,0.00000,0.00000,50,3,58,-8,44,7,70,27,ok,4,0,0.001,3,1.16,-1.54,12.09,23,0.025,8.20
3.0296,-0.16232,0.04189,-0.08203,0.00000,0.00000,0.00000,50,3,55,-9,44,7,71,24,ok,4,0,0.001,3,1.16,-1.54,12.09,23,0.038,8.20
3.0521,-0.16232,0.04189,-0.08203,0.00000,0.00000,0.00000,50,2,53,-9,45,7,73,21,ok,4,0,0.001,3,1.16,-1.54,12.09,23,0.050,8.20
3.0552,-0.16232,0.04189,-0.08203,0.00000,0.00000,0.00000,50,4,51,-10,47,7,73,20,ok,4,0,0.001,3,1.16,-1.54,12.09,23,0.063,8.20
3.0680,-0.16232,0.04189,-0.08203,0.00000,0.00000,0.00000,51,5,49,-10,47,7,73,18,ok,2,0,0.001,3,1.16,-1.54,12.09,23,0.076,8.20
3.0880,-0.16232,0.04189,-0.08203,0.00000,0.00000,0.00000,52,4,46,-10,49,7,73,15,ok,2,0,0.001,3,1.16,-1.54,12.09,23,0.089,8.20
3.0929,-0.16232,0.04189,-0.08203,0.00000,0.00000,0.00000,52,5,44,-9,49,8,72,12,ok,2,0,0.001,3,1.16,-1.54,12.09,23,0.101,8.20
3.1054,-0.16232,0.04189,-0.08203,0.00000,0.00000,0.00000,52,6,41,-10,50,7,72,11,ok,2,0,0.001,3,1.16,-1.54,12.09,23,0.114,8.20
3.1281,-0.16232,0.04189,-0.08203,0.00000,0.00000,0.00000,53,7,39,-10,51,7,71,7,ok,2,0,0.001,3,1.16,-1.54,12.09,23,0.126,8.20
3.1312,-0.16232,0.04189,-0.08203,0.00000,0.00000,0.00000,53,7,36,-9,52,6,71,6,ok,2,0,0.001,3,1.16,-1.54,12.09,23,0.139,8.20
3.1439,-0.16232,0.04189,-0.08203,0.00000,0.00000,0.00000,54,7,33,-9,52,7,70,4,ok,2,0,0.001,3,1.16,-1.54,12.09,23,0.152,8.20
3.1640,-0.16232,0.04189,-0.08203,0.00000,0.00000,0.00000,54,8,30,-7,53,7,68,2,ok,2,0,0.001,3,1.16,-1.54,12.09,23,0.165,8.20
3.1688,-0.16232,0.04189,-0.08203,0.00000,0.00000,0.00000,54,8,27,-6,54,8,66,2,ok,2,0,0.001,3,1.16,-1.54,12.09,23,0.177,8.20
3.1814,-0.16232,0.04189,-0.08203,0.00000,0.00000,0.00000,54,9,24,-5,55,8,65,0,ok,2,0,0.001,3,1.16,-1.54,12.09,23,0.190,8.20
3.2041,-0.02094,0.04363,-0.11868,0.00000,0.00000,0.00000,55,10,20,-2,56,8,64,-2,ok,2,0,0.001,3,0.40,-0.01,10.11,24,0.000,8.20
3.2073,-0.02094,0.04363,-0.11868,0.00000,0.00000,0.00000,55,10,19,-1,58,6,62,-3,ok,2,0,0.001,3,0.40,-0.01,10.11,24,0.013,8.20
3.2198,-0.02094,0.04363,-0.11868,0.00000,0.00000,0.00000,56,10,18,0,58,8,59,-4,ok,2,0,0.001,3,0.40,-0.01,10.11,24,0.026,8.20
3.2400,-0.02094,0.04363,-0.11868,0.00000,0.00000,0.00000,56,11,16,2,59,8,57,-5,ok,2,0,0.001,3,0.40,-0.01,10.11,24,0.039,8.20
3.2448,-0.02094,0.04363,-0.11868,0.00000,0.00000,0.00000,56,12,15,5,60,9,55,-5,ok,2,0,0.001,3,0.40,-0.01,10.11,24,0.051,8.20
3.2574,-0.02094,0.04363,-0.11868,0.00000,0.00000,0.00000,56,13,13,8,60,9,53,-6,ok,2,0,0.001,3,0.40,-0.01,10.11,24,0.064,8.20
3.2801,-0.02094,0.04363,-0.11868,0.00000,0.00000,0.00000,56,13,12,11,60,9,50,-5,ok,2,0,0.001,3,0.40,-0.01,10.11,24,0.076,8.20
3.2835,-0.02094,0.04363,-0.11868,0.00000,0.00000,0.00000,56,14,14,11,61,10,48,-5,ok,2,0,0.001,3,0.40,-0.01,10.11,24,0.089,8.20
3.2959,-0.02094,0.04363,-0.11868,0.00000,0.00000,0.00000,56,14,15,10,61,10,46,-5,ok,2,0,0.001,3,0.40,-0.01,10.11,24,0.102,8.20
3.3160,-0.02094,0.04363,-0.11868,0.00000,0.00000,0.00000,56,15,16,10,61,11,42,-4,ok,2,0,0.001,3,0.40,-0.01,10.11,24,0.115,8.20
3.3208,-0.02094,0.04363,-0.11868,0.00000,0.00000,0.00000,56,16,18,9,61,12,40,-5,ok,2,0,0.001,3,0.40,-0.01,10.11,24,0.127,8.20
3.3336,-0.02094,0.04363,-0.11868,0.00000,0.00000,0.00000,56,16,19,8,61,12,37,-3,ok,2,0,0.001,3,0.40,-0.01,10.11,24,0.140,8.20
3.3561,-0.02094,0.04363,-0.11868,0.00000,0.00000,0.00000,56,16,21,8,62,13,35,-3,ok,2,0,0.001,3,0.40,-0.01,10.11,24,0.152,8.20
3.3593,-0.02094,0.04363,-0.11868,0.00000,0.00000,0.00000,56,17,21,7,62,14,31,-1,ok,2,0,0.001,3,0.40,-0.01,10.11,24,0.165,8.20
3.3719,-0.02094,0.04363,-0.11868,0.00000,0.00000,0.00000,57,19,23,6,63,14,30,0,ok,2,0,0.001,3,0.40,-0.01,10.11,24,0.178,8.20
3.3921,-0.02094,0.04363,-0.11868,0.00000,0.00000,0.00000,57,20,24,5,63,15,27,1,ok,2,0,0.001,3,0.40,-0.01,10.11,24,0.191,8.20
3.3972,-0.07505,0.14486,-0.11345,0.00000,0.00000,0.00000,58,21,24,5,63,16,25,5,ok,2,0,0.001,3,1.73,-1.26,10.32,25,0.000,8.20
3.4096,-0.07505,0.14486,-0.11345,0.00000,0.00000,0.00000,58,22,25,4,63,17,24,7,ok,2,0,0.001,3,1.73,-1.26,10.32,25,0.013,8.20
3.4320,-0.07505,0.14486,-0.11345,0.00000,0.00000,0.00000,58,23,25,4,63,17,23,11,ok,2,0,0.001,3,1.73,-1.26,10.32,25,0.025,8.20
3.4352,-0.07505,0.14486,-0.11345,0.00000,0.00000,0.00000,57,25,26,3,64,18,23,13,ok,2,0,0.001,3,1.73,-1.26,10.32,25,0.038,8.20
3.4478,-0.07505,0.14486,-0.11345,0.00000,0.00000,0.00000,57,26,27,3,64,19,25,12,ok,2,0,0.001,3,1.73,-1.26,10.32,25,0.051,8.20
3.4680,-0.07505,0.14486,-0.11345,0.00000,0.00000,0.00000,58,24,28,2,64,21,25,12,ok,2,0,0.001,3,1.73,-1.26,10.32,25,0.063,8.20
3.4729,-0.07505,0.14486,-0.11345,0.00000,0.00000,0.00000,58,21,29,2,65,22,26,10,ok,2,0,0.001,3,1.73,-1.26,10.32,25,0.076,8.20
3.4856,-0.07505,0.14486,-0.11345,0.00000,0.00000,0.00000,60,17,30,2,64,23,27,10,ok,2,0,0.001,3,1.73,-1.26,10.32,25,0.088,8.20
3.5081,-0.07505,0.14486,-0.11345,0.00000,0.00000,0.00000,60,12,32,3,64,25,28,10,ok,2,0,0.001,3,1.73,-1.26,10.32,25,0.101,8.20
3.5112,-0.07505,0.14486,-0.11345,0.00000,0.00000,0.00000,60,10,33,2,65,25,29,10,ok,2,0,0.001,3,1.73,-1.26,10.32,25,0.114,8.20
3.5239,-0.07505,0.14486,-0.11345,0.00000,0.00000,0.00000,60,10,35,2,64,27,31,9,ok,2,0,0.001,3,1.73,-1.26,10.32,25,0.127,8.20
3.5441,-0.07505,0.14486,-0.11345,0.00000,0.00000,0.00000,60,7,36,2,64,29,33,9,ok,2,0,0.001,3,1.73,-1.26,10.32,25,0.139,8.20
3.5489,-0.07505,0.14486,-0.11345,0.00000,0.00000,0.00000,60,4,38,3,65,30,34,9,ok,2,0,0.001,3,1.73,-1.26,10.32,25,0.152,8.20
3.5616,-0.07505,0.14486,-0.11345,0.00000,0.00000,0.00000,59,2,39,3,65,32,35,9,ok,2,0,0.001,3,1.73,-1.26,10.32,25,0.164,8.20
3.5840,-0.07505,0.14486,-0.11345,0.00000,0.00000,0.00000,58,-1,40,3,64,33,36,8,ok,2,0,0.001,4,1.73,-1.26,10.32,25,0.177,8.20
3.5872,-0.07505,0.14486,-0.11345,0.00000,0.00000,0.00000,58,-3,42,2,64,35,37,8,ok,2,0,0.001,4,1.73,-1.26,10.32,25,0.190,8.20
3.6002,-0.03840,-0.00000,-0.14661,0.00000,0.00000,0.00000,58,-4,43,2,65,35,38,8,ok,2,0,0.001,4,0.13,0.58,8.21,26,0.000,8.20
3.6201,-0.03840,-0.00000,-0.14661,0.00000,0.00000,0.00000,56,-5,43,2,67,35,40,8,ok,2,0,0.001,4,0.13,0.58,8.21,26,0.013,8.20
3.6250,-0.03840,-0.00000,-0.14661,0.00000,0.00000,0.00000,56,-7,44,2,68,33,41,7,ok,2,0,0.001,4,0.13,0.58,8.21,26,0.025,8.20
3.6374,-0.03840,-0.00000,-0.14661,0.00000,0.00000,0.00000,56,-9,46,2,70,29,42,7,ok,2,0,0.001,4,0.13,0.58,8.21,26,0.038,8.20
3.6601,-0.03840,-0.00000,-0.14661,0.00000,0.00000,0.00000,54,-9,47,3,72,24,44,7,ok,2,0,0.001,4,0.13,0.58,8.21,26,0.050,8.20
3.6633,-0.03840,-0.00000,-0.14661,0.00000,0.00000,0.00000,53,-10,49,3,73,22,44,7,ok,2,0,0.001,4,0.13,0.58,8.21,26,0.063,8.20
3.6759,-0.03840,-0.00000,-0.14661,0.00000,0.00000,0.00000,52,-10,49,3,74,21,45,7,ok,2,0,0.001,4,0.13,0.58,8.21,26,0.076,8.20
3.6960,-0.03840,-0.00000,-0.14661,0.00000,0.00000,0.00000,51,-11,50,5,74,18,46,7,ok,2,0,0.001,4,0.13,0.58,8.21,26,0.089,8.20
3.7008,-0.03840,-0.00000,-0.14661,0.00000,0.00000,0.00000,50,-11,51,6,74,15,47,8,ok,2,0,0.001,4,0.13,0.58,8.21,26,0.101,8.20
3.7134,-0.03840,-0.00000,-0.14661,0.00000,0.00000,0.00000,48,-10,52,5,73,11,48,8,ok,2,0,0.001,4,0.13,0.58,8.21,26,0.114,8.20
3.7361,-0.03840,-0.00000,-0.14661,0.00000,0.00000,0.00000,48,-10,53,6,73,10,49,8,ok,2,0,0.001,4,0.13,0.58,8.21,26,0.126,8.20
3.7392,-0.03840,-0.00000,-0.14661,0.00000,0.00000,0.00000,46,-10,53,7,72,6,49,9,ok,2,0,0.001,4,0.13,0.58,8.21,26,0.139,8.20
3.7518,-0.03840,-0.00000,-0.14661,0.00000,0.00000,0.00000,44,-11,56,7,72,5,50,8,ok,2,0,0.001,4,0.13,0.58,8.21,26,0.152,8.20
3.7720,-0.03840,-0.00000,-0.14661,0.00000,0.00000,0.00000,44,-10,56,7,71,4,51,9,ok,2,0,0.001,4,0.13,0.58,8.21,26,0.165,8.20
3.7768,-0.03840,-0.00000,-0.14661,0.00000,0.00000,0.00000,42,-8,57,7,69,1,52,8,ok,2,0,0.001,4,0.13,0.58,8.21,26,0.177,8.20
3.7894,-0.03840,-0.00000,-0.14661,0.00000,0.00000,0.00000,40,-7,57,8,66,1,52,8,ok,2,0,0.001,4,0.13,0.58,8.21,26,0.190,8.20
3.8121,-0.03840,-0.00000,-0.14661,0.00000,0.00000,0.00000,38,-6,58,8,65,-1,53,9,ok,2,0,0.001,4,0.13,0.58,8.21,26,0.202,8.20
3.8156,0.05585,-0.01920,-0.13439,0.00000,0.00000,0.00000,37,-4,58,8,63,-3,54,9,ok,2,0,0.001,4,-0.21,0.64,10.02,27,0.000,8.20
3.8279,0.05585,-0.01920,-0.13439,0.00000,0.00000,0.00000,35,-1,59,9,62,-4,55,9,ok,2,0,0.001,4,-0.21,0.64,10.02,27,0.013,8.20
3.8480,0.05585,-0.01920,-0.13439,0.00000,0.00000,0.00000,34,-1,60,10,61,-5,54,8,ok,2,0,0.001,4,-0.21,0.64,10.02,27,0.025,8.20
3.8529,0.05585,-0.01920,-0.13439,0.00000,0.00000,0.00000,34,0,61,10,59,-5,56,6,ok,2,0,0.001,4,-0.21,0.64,10.02,27,0.038,8.20
3.8656,0.05585,-0.01920,-0.13439,0.00000,0.00000,0.00000,33,3,61,11,56,-6,56,7,ok,2,0,0.001,4,-0.21,0.64,10.02,27,0.050,8.20
3.8880,0.05585,-0.01920,-0.13439,0.00000,0.00000,0.00000,32,6,61,10,54,-7,57,8,ok,2,0,0.001,4,-0.21,0.64,10.02,27,0.063,8.20
3.8912,0.05585,-0.01920,-0.13439,0.00000,0.00000,0.00000,32,9,61,11,51,-6,58,9,ok,2,0,0.001,4,-0.21,0.64,10.02,27,0.076,8.20
3.9039,0.05585,-0.01920,-0.13439,0.00000,0.00000,0.00000,32,12,62,11,48,-6,59,9,ok,2,0,0.001,4,-0.21,0.64,10.02,27,0.089,8.20
3.9240,0.05585,-0.01920,-0.13439,0.00000,0.00000,0.00000,32,12,62,12,46,-6,60,10,ok,2,0,0.001,4,-0.21,0.64,10.02,27,0.101,8.20
3.9290,0.05585,-0.01920,-0.13439,0.00000,0.00000,0.00000,32,12,61,13,43,-5,59,10,ok,2,0,0.001,4,-0.21,0.64,10.02,27,0.114,8.20
3.9415,0.05585,-0.01920,-0.13439,0.00000,0.00000,0.00000,33,10,62,13,40,-5,60,11,ok,2,0,0.001,4,-0.21,0.64,10.02,27,0.126,8.20
3.9641,0.05585,-0.01920,-0.13439,0.00000,0.00000,0.00000,34,9,62,14,37,-4,60,11,ok,2,0,0.001,4,-0.21,0.64,10.02,27,0.139,8.20
3.9673,0.05585,-0.01920,-0.13439,0.00000,0.00000,0.00000,34,8,62,15,35,-3,61,13,ok,2,0,0.001,4,-0.21,0.64,10.02,27,0.152,8.20
3.9799,0.05585,-0.01920,-0.13439,0.00000,0.00000,0.00000,36,7,63,16,31,-2,61,13,ok,2,0,0.001,4,-0.21,0.64,10.02,27,0.165,8.20
4.0000,0.05585,-0.01920,-0.13439,0.00000,0.00000,0.00000,36,7,63,17,30,0,62,14,ok,2,0,0.001,4,-0.21,0.64,10.02,27,0.177,8.20
4.0050,0.05585,-0.01920,-0.13439,0.00000,0.00000,0.00000,36,6,64,18,28,1,62,15,ok,2,0,0.001,4,-0.21,0.64,10.02,27,0.190,8.20
4.0177,-0.10996,0.02269,-0.13265,0.00000,0.00000,0.00000,37,5,64,19,25,5,63,15,ok,2,0,0.001,4,0.68,-2.11,14.03,28,0.000,8.20
4.0401,-0.10996,0.02269,-0.13265,0.00000,0.00000,0.00000,38,4,64,21,24,7,63,16,ok,2,0,0.001,4,0.68,-2.11,14.03,28,0.012,8.20
4.0433,-0.10996,0.02269,-0.13265,0.00000,0.00000,0.00000,38,4,64,22,22,10,63,18,ok,2,0,0.001,4,0.68,-2.11,14.03,28,0.026,8.20
4.0559,-0.10996,0.02269,-0.13265,0.00000,0.00000,0.00000,38,3,64,23,21,13,64,18,ok,2,0,0.001,4,0.68,-2.11,14.03,28,0.039,8.20
4.0760,-0.10996,0.02269,-0.13265,0.00000,0.00000,0.00000,39,2,63,27,23,13,65,19,ok,4,0,0.001,4,0.68,-2.11,14.03,28,0.051,8.20
4.0809,-0.10996,0.02269,-0.13265,0.00000,0.00000,0.00000,40,1,63,28,23,13,65,20,ok,4,0,0.001,4,0.68,-2.11,14.03,28,0.064,8.20
4.0934,-0.10996,0.02269,-0.13265,0.00000,0.00000,0.00000,40,1,64,27,25,11,65,21,ok,4,0,0.001,4,0.68,-2.11,14.03,28,0.076,8.20
4.1161,-0.10996,0.02269,-0.13265,0.00000,0.00000,0.00000,40,0,67,24,26,10,65,22,ok,2,0,0.001,4,0.68,-2.11,14.03,28,0.089,8.20
4.1194,-0.10996,0.02269,-0.13265,0.00000,0.00000,0.00000,41,0,69,20,28,10,65,23,ok,2,0,0.001,4,0.68,-2.11,14.03,28,0.102,8.20
4.1319,-0.10996,0.02269,-0.13265,0.00000,0.00000,0.00000,42,0,70,16,29,10,65,24,ok,2,0,0.001,4,0.68,-2.11,14.03,28,0.115,8.20
4.1520,-0.10996,0.02269,-0.13265,0.00000,0.00000,0.00000,42,0,71,13,30,9,65,26,ok,2,0,0.001,4,0.68,-2.11,14.03,28,0.127,8.20
4.1570,-0.10996,0.02269,-0.13265,0.00000,0.00000,0.00000,44,1,70,12,33,9,65,27,ok,4,0,0.001,4,0.68,-2.11,14.03,28,0.140,8.20
4.1695,-0.10996,0.02269,-0.13265,0.00000,0.00000,0.00000,44,2,70,9,33,9,64,29,ok,4,0,0.001,4,0.68,-2.11,14.03,28,0.152,8.20
4.1921,-0.10996,0.02269,-0.13265,0.00000,0.00000,0.00000,45,3,69,6,35,9,64,30,ok,4,0,0.001,4,0.68,-2.11,14.03,28,0.165,8.20
4.1953,-0.10996,0.02269,-0.13265,0.00000,0.00000,0.00000,46,3,68,3,36,8,64,31,ok,4,0,0.001,4,0.68,-2.11,14.03,28,0.178,8.20
4.2080,-0.10996,0.02269,-0.13265,0.00000,0.00000,0.00000,46,3,67,0,37,8,64,33,ok,4,0,0.001,4,0.68,-2.11,14.03,28,0.191,8.20
4.2280,-0.18850,0.01920,-0.08203,0.00000,0.00000,0.00000,47,2,66,-2,39,7,64,35,ok,4,0,0.001,4,0.08,-3.04,8.39,29,0.000,8.20
4.2328,-0.18850,0.01920,-0.08203,0.00000,0.00000,0.00000,48,3,64,-3,39,7,64,36,ok,4,0,0.001,4,0.08,-3.04,8.39,29,0.012,8.20
4.2454,-0.18850,0.01920,-0.08203,0.00000,0.00000,0.00000,48,3,62,-4,41,6,65,36,ok,4,0,0.001,4,0.08,-3.04,8.39,29,0.025,8.20
4.2681,-0.18850,0.01920,-0.08203,0.00000,0.00000,0.00000,48,3,61,-6,42,6,66,35,ok,4,0,0.001,4,0.08,-3.04,8.39,29,0.038,8.20
4.2712,-0.18850,0.01920,-0.08203,0.00000,0.00000,0.00000,49,3,60,-8,43,6,68,33,ok,4,0,0.001,4,0.08,-3.04,8.39,29,0.051,8.20
4.2839,-0.18850,0.01920,-0.08203,0.00000,0.00000,0.00000,50,3,57,-8,44,7,70,28,ok,2,0,0.001,4,0.08,-3.04,8.39,29,0.063,8.20
4.3040,-0.18850,0.01920,-0.08203,0.00000,0.00000,0.00000,50,3,55,-9,45,7,71,24,ok,2,0,0.001,4,0.08,-3.04,8.39,29,0.076,8.20
4.3089,-0.18850,0.01920,-0.08203,0.00000,0.00000,0.00000,50,3,53,-9,46,7,72,21,ok,2,0,0.001,4,0.08,-3.04,8.39,29,0.088,8.20
4.3215,-0.18850,0.01920,-0.08203,0.00000,0.00000,0.00000,50,5,51,-10,47,7,73,21,ok,2,0,0.001,4,0.08,-3.04,8.39,29,0.101,8.20
4.3441,-0.18850,0.01920,-0.08203,0.00000,0.00000,0.00000,51,5,49,-10,48,7,73,19,ok,2,0,0.001,4,0.08,-3.04,8.39,29,0.113,8.20
4.3473,-0.18850,0.01920,-0.08203,0.00000,0.00000,0.00000,52,5,46,-10,49,7,73,15,ok,2,0,0.001,4,0.08,-3.04,8.39,29,0.127,8.20
4.3598,-0.18850,0.01920,-0.08203,0.00000,0.00000,0.00000,52,6,44,-10,49,7,72,13,ok,2,0,0.001,4,0.08,-3.04,8.39,29,0.140,8.20
4.3800,-0.18850,0.01920,-0.08203,0.00000,0.00000,0.00000,52,7,41,-10,50,7,71,11,ok,2,0,0.001,4,0.08,-3.04,8.39,29,0.152,8.20
4.3849,-0.18850,0.01920,-0.08203,0.00000,0.00000,0.00000,54,7,39,-10,51,7,71,7,ok,2,0,0.001,4,0.08,-3.04,8.39,29,0.164,8.20
4.3976,-0.18850,0.01920,-0.08203,0.00000,0.00000,0.00000,54,7,36,-9,52,6,71,6,ok,2,0,0.001,4,0.08,-3.04,8.39,29,0.177,8.20
4.4201,-0.18850,0.01920,-0.08203,0.00000,0.00000,0.00000,54,8,33,-9,52,7,70,4,ok,2,0,0.001,4,0.08,-3.04,8.39,29,0.190,8.20
4.4236,-0.02793,-0.00698,-0.09076,0.00000,0.00000,0.00000,54,8,30,-7,53,7,68,2,ok,2,0,0.001,4,0.15,-0.42,9.22,30,0.000,8.20
4.4359,-0.02793,-0.00698,-0.09076,0.00000,0.00000,0.00000,54,8,27,-7,54,8,66,2,ok,2,0,0.001,4,0.15,-0.42,9.22,30,0.013,8.20
4.4560,-0.02793,-0.00698,-0.09076,0.00000,0.00000,0.00000,54,9,24,-5,55,8,64,0,ok,2,0,0.001,4,0.15,-0.42,9.22,30,0.025,8.20
4.4609,-0.02793,-0.00698,-0.09076,0.00000,0.00000,0.00000,55,10,20,-3,56,8,63,-2,ok,2,0,0.001,4,0.15,-0.42,9.22,30,0.038,8.20
4.4734,-0.02793,-0.00698,-0.09076,0.00000,0.00000,0.00000,55,11,19,-1,59,6,61,-3,ok,2,0,0.001,4,0.15,-0.42,9.22,30,0.050,8.20
4.4960,-0.02793,-0.00698,-0.09076,0.00000,0.00000,0.00000,56,11,18,0,59,7,59,-4,ok,2,0,0.001,4,0.15,-0.42,9.22,30,0.063,8.20
4.4993,-0.02793,-0.00698,-0.09076,0.00000,0.00000,0.00000,56,12,16,2,59,8,57,-4,ok,2,0,0.001,4,0.15,-0.42,9.22,30,0.076,8.20
4.5119,-0.02793,-0.00698,-0.09076,0.00000,0.00000,0.00000,56,12,15,5,59,8,55,-5,ok,2,0,0.001,4,0.15,-0.42,9.22,30,0.089,8.20
4.5320,-0.02793,-0.00698,-0.09076,0.00000,0.00000,0.00000,56,13,13,8,60,9,53,-6,ok,2,0,0.001,4,0.15,-0.42,9.22,30,0.101,8.20
4.5368,-0.02793,-0.00698,-0.09076,0.00000,0.00000,0.00000,56,13,13,11,60,9,50,-5,ok,2,0,0.001,4,0.15,-0.42,9.22,30,0.114,8.20
4.5494,-0.02793,-0.00698,-0.09076,0.00000,0.00000,0.00000,56,14,14,11,60,9,47,-5,ok,2,0,0.001,4,0.15,-0.42,9.22,30,0.126,8.20
4.5760,-0.02793,-0.00698,-0.09076,0.00000,0.00000,0.00000,56,14,15,11,61,10,45,-5,ok,2,0,0.001,4,0.15,-0.42,9.22,30,0.139,8.20
4.5795,-0.02793,-0.00698,-0.09076,0.00000,0.00000,0.00000,56,14,17,10,61,11,42,-4,ok,2,0,0.001,4,0.15,-0.42,9.22,30,0.156,8.20
4.5919,-0.02793,-0.00698,-0.09076,0.00000,0.00000,0.00000,56,15,19,9,61,12,40,-4,ok,2,0,0.001,5,0.15,-0.42,9.22,30,0.169,8.20
4.6121,-0.02793,-0.00698,-0.09076,0.00000,0.00000,0.00000,56,15,19,9,61,12,37,-3,ok,2,0,0.001,5,0.15,-0.42,9.22,30,0.181,8.20
4.6172,0.03840,0.06807,-0.09774,0.00000,0.00000,0.00000,56,16,21,8,62,13,35,-3,ok,2,0,0.001,5,0.53,0.52,10.03,31,0.000,8.20
4.6308,0.03840,0.06807,-0.09774,0.00000,0.00000,0.00000,56,17,22,7,62,14,30,-1,ok,2,0,0.001,5,0.53,0.52,10.03,31,0.013,8.20
4.6524,0.03840,0.06807,-0.09774,0.00000,0.00000,0.00000,58,19,23,6,63,14,29,0,ok,2,0,0.001,5,0.53,0.52,10.03,31,0.025,8.20
4.6594,0.03840,0.06807,-0.09774,0.00000,0.00000,0.00000,58,20,24,5,63,15,27,2,ok,2,0,0.001,5,0.53,0.52,10.03,31,0.042,8.20
4.6716,0.03840,0.06807,-0.09774,0.00000,0.00000,0.00000,58,21,24,5,63,16,25,5,ok,2,0,0.001,5,0.53,0.52,10.03,31,0.055,8.20
4.6920,0.03840,0.06807,-0.09774,0.00000,0.00000,0.00000,58,22,25,4,63,17,24,7,ok,2,0,0.001,5,0.53,0.52,10.03,31,0.067,8.20
4.6967,0.03840,0.06807,-0.09774,0.00000,0.00000,0.00000,58,23,25,3,64,17,22,11,ok,2,0,0.001,5,0.53,0.52,10.03,31,0.080,8.20
4.7092,0.03840,0.06807,-0.09774,0.00000,0.00000,0.00000,57,26,26,2,64,18,22,13,ok,2,0,0.001,5,0.53,0.52,10.03,31,0.092,8.20
4.7321,0.03840,0.06807,-0.09774,0.00000,0.00000,0.00000,57,27,27,2,64,20,24,12,ok,2,0,0.001,5,0.53,0.52,10.03,31,0.105,8.20
4.7356,0.03840,0.06807,-0.09774,0.00000,0.00000,0.00000,58,25,28,2,64,21,25,12,ok,2,0,0.001,5,0.53,0.52,10.03,31,0.118,8.20
4.7479,0.03840,0.06807,-0.09774,0.00000,0.00000,0.00000,58,22,29,2,65,22,25,10,ok,2,0,0.001,5,0.53,0.52,10.03,31,0.131,8.20
4.7680,0.03840,0.06807,-0.09774,0.00000,0.00000,0.00000,60,18,31,1,64,23,27,9,ok,2,0,0.001,5,0.53,0.52,10.03,31,0.143,8.20
4.7730,0.03840,0.06807,-0.09774,0.00000,0.00000,0.00000,60,13,32,2,64,25,28,10,ok,2,0,0.001,5,0.53,0.52,10.03,31,0.156,8.20
4.7855,0.03840,0.06807,-0.09774,0.00000,0.00000,0.00000,60,11,33,2,65,26,29,9,ok,2,0,0.001,5,0.53,0.52,10.03,31,0.168,8.20
4.8081,0.03840,0.06807,-0.09774,0.00000,0.00000,0.00000,60,10,35,2,64,28,30,9,ok,2,0,0.001,5,0.53,0.52,10.03,31,0.181,8.20
4.8113,0.03840,0.06807,-0.09774,0.00000,0.00000,0.00000,60,7,36,2,64,29,32,9,ok,2,0,0.001,5,0.53,0.52,10.03,31,0.194,8.20
4.8242,-0.09599,0.02618,-0.09774,0.00000,0.00000,0.00000,60,4,38,3,64,30,33,9,ok,2,0,0.001,5,0.72,-2.12,12.69,32,0.000,8.20
4.8440,-0.09599,0.02618,-0.09774,0.00000,0.00000,0.00000,60,1,40,3,64,31,35,9,ok,2,0,0.001,5,0.72,-2.12,12.69,32,0.013,8.20
4.8489,-0.09599,0.02618,-0.09774,0.00000,0.00000,0.00000,59,-1,41,3,64,33,36,8,ok,2,0,0.001,5,0.72,-2.12,12.69,32,0.025,8.20
4.8615,-0.09599,0.02618,-0.09774,0.00000,0.00000,0.00000,58,-3,42,3,64,34,37,8,ok,2,0,0.001,5,0.72,-2.12,12.69,32,0.038,8.20
4.8840,-0.09599,0.02618,-0.09774,0.00000,0.00000,0.00000,58,-5,44,3,64,35,39,8,ok,2,0,0.001,5,0.72,-2.12,12.69,32,0.050,8.20
4.8872,-0.09599,0.02618,-0.09774,0.00000,0.00000,0.00000,56,-6,44,3,65,35,40,8,ok,2,0,0.001,5,0.72,-2.12,12.69,32,0.063,8.20
4.8998,-0.09599,0.02618,-0.09774,0.00000,0.00000,0.00000,56,-7,45,3,67,33,41,7,ok,2,0,0.001,5,0.72,-2.12,12.69,32,0.076,8.20
4.9201,-0.09599,0.02618,-0.09774,0.00000,0.00000,0.00000,56,-9,47,4,69,28,42,7,ok,2,0,0.001,5,0.72,-2.12,12.69,32,0.089,8.20
4.9251,-0.09599,0.02618,-0.09774,0.00000,0.00000,0.00000,54,-10,48,5,71,24,43,7,ok,2,0,0.001,5,0.72,-2.12,12.69,32,0.101,8.20
4.9375,-0.09599,0.02618,-0.09774,0.00000,0.00000,0.00000,54,-11,49,4,73,21,44,7,ok,2,0,0.001,5,0.72,-2.12,12.69,32,0.113,8.20
4.9601,-0.09599,0.02618,-0.09774,0.00000,0.00000,0.00000,52,-11,49,4,74,20,45,8,ok,2,0,0.001,5,0.72,-2.12,12.69,32,0.126,8.20
4.9632,-0.09599,0.02618,-0.09774,0.00000,0.00000,0.00000,51,-12,49,6,74,18,46,8,ok,2,0,0.001,5,0.72,-2.12,12.69,32,0.139,8.20
4.9758,-0.09599,0.02618,-0.09774,0.00000,0.00000,0.00000,50,-11,51,6,74,14,47,8,ok,2,0,0.001,5,0.72,-2.12,12.69,32,0.152,8.20
4.9960,-0.09599,0.02618,-0.09774,0.00000,0.00000,0.00000,48,-11,52,6,73,11,48,8,ok,2,0,0.001,5,0.72,-2.12,12.69,32,0.164,8.20
5.0008,-0.09599,0.02618,-0.09774,0.00000,0.00000,0.00000,48,-10,53,6,73,9,49,8,ok,2,0,0.001,5,0.72,-2.12,12.69,32,0.177,8.20
5.0134,-0.09599,0.02618,-0.09774,0.00000,0.00000,0.00000,46,-10,53,7,72,6,49,9,ok,2,0,0.001,5,0.72,-2.12,12.69,32,0.190,8.20
5.0400,0.00000,0.00698,-0.07330,0.00000,0.00000,0.00000,44,-11,55,7,72,4,50,8,ok,2,0,0.001,5,-0.23,-0.28,9.55,33,0.000,8.20
5.0434,0.00000,0.00698,-0.07330,0.00000,0.00000,0.00000,43,-9,56,7,71,4,51,9,ok,2,0,0.001,5,-0.23,-0.28,9.55,33,0.017,8.20
5.0559,0.00000,0.00698,-0.07330,0.00000,0.00000,0.00000,42,-8,57,7,69,1,51,8,ok,2,0,0.001,5,-0.23,-0.28,9.55,33,0.030,8.20
5.0760,0.00000,0.00698,-0.07330,0.00000,0.00000,0.00000,40,-7,57,8,67,1,52,9,ok,2,0,0.001,5,-0.23,-0.28,9.55,33,0.043,8.20
5.0808,0.00000,0.00698,-0.07330,0.00000,0.00000,0.00000,38,-5,58,7,65,-1,52,9,ok,2,0,0.001,5,-0.23,-0.28,9.55,33,0.055,8.20
5.0935,0.00000,0.00698,-0.07330,0.00000,0.00000,0.00000,37,-3,58,8,64,-2,54,9,ok,2,0,0.001,5,-0.23,-0.28,9.55,33,0.067,8.20
5.1161,0.00000,0.00698,-0.07330,0.00000,0.00000,0.00000,35,-1,59,8,62,-4,55,9,ok,2,0,0.001,5,-0.23,-0.28,9.55,33,0.080,8.20
5.1193,0.00000,0.00698,-0.07330,0.00000,0.00000,0.00000,35,0,60,10,61,-5,54,8,ok,2,0,0.001,5,-0.23,-0.28,9.55,33,0.093,8.20
5.1319,0.00000,0.00698,-0.07330,0.00000,0.00000,0.00000,34,1,61,10,59,-6,56,6,ok,2,0,0.001,5,-0.23,-0.28,9.55,33,0.106,8.20
5.1521,0.00000,0.00698,-0.07330,0.00000,0.00000,0.00000,34,3,61,11,56,-7,57,7,ok,2,0,0.001,5,-0.23,-0.28,9.55,33,0.119,8.20
5.1570,0.00000,0.00698,-0.07330,0.00000,0.00000,0.00000,32,6,61,10,54,-7,58,8,ok,2,0,0.001,5,-0.23,-0.28,9.55,33,0.131,8.20
5.1694,0.00000,0.00698,-0.07330,0.00000,0.00000,0.00000,32,9,61,12,51,-6,58,9,ok,2,0,0.001,5,-0.23,-0.28,9.55,33,0.144,8.20
5.1921,0.00000,0.00698,-0.07330,0.00000,0.00000,0.00000,31,11,61,12,48,-6,59,9,ok,2,0,0.001,5,-0.23,-0.28,9.55,33,0.156,8.20
5.1954,0.00000,0.00698,-0.07330,0.00000,0.00000,0.00000,32,11,62,13,46,-6,60,10,ok,2,0,0.001,5,-0.23,-0.28,9.55,33,0.169,8.20
5.2079,0.00000,0.00698,-0.07330,0.00000,0.00000,0.00000,32,11,61,13,43,-5,59,10,ok,2,0,0.001,5,-0.23,-0.28,9.55,33,0.182,8.20
5.2280,0.00000,0.00698,-0.07330,0.00000,0.00000,0.00000,33,9,62,14,40,-5,60,11,ok,2,0,0.001,5,-0.23,-0.28,9.55,33,0.195,8.20
5.2331,0.00000,0.00698,-0.07330,0.00000,0.00000,0.00000,34,9,62,14,37,-4,61,12,ok,2,0,0.001,5,-0.23,-0.28,9.55,33,0.207,8.20
5.2457,-0.12915,-0.02967,-0.07330,0.00000,0.00000,0.00000,34,8,62,15,35,-3,61,13,ok,2,0,0.001,5,-0.07,-1.86,9.45,34,0.000,8.20
5.2681,-0.12915,-0.02967,-0.07330,0.00000,0.00000,0.00000,36,7,63,16,31,-2,62,13,ok,2,0,0.001,5,-0.07,-1.86,9.45,34,0.013,8.20
5.2714,-0.12915,-0.02967,-0.07330,0.00000,0.00000,0.00000,36,7,63,17,29,-1,63,14,ok,2,0,0.001,5,-0.07,-1.86,9.45,34,0.026,8.20
5.2839,-0.12915,-0.02967,-0.07330,0.00000,0.00000,0.00000,36,5,64,19,28,1,63,15,ok,2,0,0.001,5,-0.07,-1.86,9.45,34,0.039,8.20
5.3040,-0.12915,-0.02967,-0.07330,0.00000,0.00000,0.00000,37,4,64,20,25,4,64,15,ok,2,0,0.001,5,-0.07,-1.86,9.45,34,0.051,8.20
5.3089,-0.12915,-0.02967,-0.07330,0.00000,0.00000,0.00000,38,4,64,21,24,7,64,17,ok,2,0,0.001,5,-0.07,-1.86,9.45,34,0.063,8.20
5.3217,-0.12915,-0.02967,-0.07330,0.00000,0.00000,0.00000,38,3,64,22,23,11,64,18,ok,2,0,0.001,5,-0.07,-1.86,9.45,34,0.076,8.20
5.3441,-0.12915,-0.02967,-0.07330,0.00000,0.00000,0.00000,38,3,64,24,22,14,64,18,ok,2,0,0.001,5,-0.07,-1.86,9.45,34,0.089,8.20
5.3473,-0.12915,-0.02967,-0.07330,0.00000,0.00000,0.00000,39,2,63,26,24,13,64,19,ok,2,0,0.001,5,-0.07,-1.86,9.45,34,0.102,8.20
5.3599,-0.12915,-0.02967,-0.07330,0.00000,0.00000,0.00000,40,2,64,28,24,13,64,20,ok,2,0,0.001,5,-0.07,-1.86,9.45,34,0.115,8.20
5.3800,-0.12915,-0.02967,-0.07330,0.00000,0.00000,0.00000,40,2,65,26,25,11,64,21,ok,2,0,0.001,5,-0.07,-1.86,9.45,34,0.127,8.20
5.3849,-0.12915,-0.02967,-0.07330,0.00000,0.00000,0.00000,40,2,67,23,26,10,65,22,ok,2,0,0.001,5,-0.07,-1.86,9.45,34,0.139,8.20
5.3976,-0.12915,-0.02967,-0.07330,0.00000,0.00000,0.00000,42,1,70,19,28,10,65,23,ok,2,0,0.001,5,-0.07,-1.86,9.45,34,0.152,8.20
5.4201,-0.12915,-0.02967,-0.07330,0.00000,0.00000,0.00000,42,2,71,15,29,9,64,24,ok,2,0,0.001,5,-0.07,-1.86,9.45,34,0.165,8.20
5.4233,-0.12915,-0.02967,-0.07330,0.00000,0.00000,0.00000,43,2,71,13,30,8,64,26,ok,2,0,0.001,5,-0.07,-1.86,9.45,34,0.178,8.20
5.4359,-0.12915,-0.02967,-0.07330,0.00000,0.00000,0.00000,44,2,71,12,33,8,65,27,ok,2,0,0.001,5,-0.07,-1.86,9.45,34,0.191,8.20
5.4560,-0.11694,0.02793,-0.07156,0.00000,0.00000,0.00000,44,2,71,8,33,8,64,29,ok,2,0,0.001,5,1.74,-2.32,11.50,35,0.000,8.20
5.4609,-0.11694,0.02793,-0.07156,0.00000,0.00000,0.00000,45,3,70,6,35,8,63,30,ok,2,0,0.001,5,1.74,-2.32,11.50,35,0.013,8.20
5.4734,-0.11694,0.02793,-0.07156,0.00000,0.00000,0.00000,46,3,69,3,36,8,64,32,ok,2,0,0.001,5,1.74,-2.32,11.50,35,0.025,8.20
5.4960,-0.11694,0.02793,-0.07156,0.00000,0.00000,0.00000,46,3,67,0,37,8,64,33,ok,2,0,0.001,5,1.74,-2.32,11.50,35,0.038,8.20
5.4995,-0.11694,0.02793,-0.07156,0.00000,0.00000,0.00000,47,2,66,-2,38,7,63,35,ok,2,0,0.001,5,1.74,-2.32,11.50,35,0.051,8.20
5.5122,-0.11694,0.02793,-0.07156,0.00000,0.00000,0.00000,48,3,64,-3,39,7,63,36,ok,2,0,0.001,5,1.74,-2.32,11.50,35,0.064,8.20
5.5321,-0.11694,0.02793,-0.07156,0.00000,0.00000,0.00000,48,3,62,-4,41,6,64,36,ok,2,0,0.001,5,1.74,-2.32,11.50,35,0.076,8.20
5.5369,-0.11694,0.02793,-0.07156,0.00000,0.00000,0.00000,48,3,61,-6,42,6,65,35,ok,2,0,0.001,5,1.74,-2.32,11.50,35,0.088,8.20
5.5496,-0.11694,0.02793,-0.07156,0.00000,0.00000,0.00000,49,3,60,-8,43,6,67,33,ok,2,0,0.001,5,1.74,-2.32,11.50,35,0.101,8.20
5.5721,-0.11694,0.02793,-0.07156,0.00000,0.00000,0.00000,50,3,58,-8,44,7,69,28,ok,2,0,0.001,5,1.74,-2.32,11.50,35,0.114,8.20
5.5753,-0.11694,0.02793,-0.07156,0.00000,0.00000,0.00000,50,3,55,-9,45,7,70,24,ok,2,0,0.001,5,1.74,-2.32,11.50,35,0.127,8.20
5.5879,-0.11694,0.02793,-0.07156,0.00000,0.00000,0.00000,50,3,53,-9,46,7,72,21,ok,2,0,0.001,5,1.74,-2.32,11.50,35,0.140,8.20
5.6080,-0.11694,0.02793,-0.07156,0.00000,0.00000,0.00000,50,5,51,-10,47,7,72,21,ok,2,0,0.001,5,1.74,-2.32,11.50,35,0.152,8.20
5.6130,-0.11694,0.02793,-0.07156,0.00000,0.00000,0.00000,51,6,49,-10,48,7,72,19,ok,2,0,0.001,6,1.74,-2.32,11.50,35,0.165,8.20
5.6254,-0.11694,0.02793,-0.07156,0.00000,0.00000,0.00000,52,5,46,-10,49,7,72,15,ok,2,0,0.001,6,1.74,-2.32,11.50,35,0.177,8.20
5.6481,-0.11694,0.02793,-0.07156,0.00000,0.00000,0.00000,52,6,44,-10,49,7,72,13,ok,2,0,0.001,6,1.74,-2.32,11.50,35,0.190,8.20
5.6516,-0.04014,-0.02793,-0.04014,0.00000,0.00000,0.00000,52,7,41,-10,50,7,71,11,ok,2,0,0.002,6,-0.26,-0.36,9.88,36,0.000,8.20
5.6641,-0.04014,-0.02793,-0.04014,0.00000,0.00000,0.00000,53,7,39,-11,51,7,71,7,ok,2,0,0.002,6,-0.26,-0.36,9.88,36,0.013,8.20
5.6840,-0.04014,-0.02793,-0.04014,0.00000,0.00000,0.00000,54,7,36,-10,52,7,70,6,ok,2,0,0.002,6,-0.26,-0.36,9.88,36,0.025,8.20
5.6889,-0.04014,-0.02793,-0.04014,0.00000,0.00000,0.00000,54,7,33,-9,52,7,69,4,ok,2,0,0.002,6,-0.26,-0.36,9.88,36,0.038,8.20
5.7015,-0.04014,-0.02793,-0.04014,0.00000,0.00000,0.00000,54,8,31,-8,53,8,68,2,ok,2,0,0.002,6,-0.26,-0.36,9.88,36,0.050,8.20
5.7241,-0.04014,-0.02793,-0.04014,0.00000,0.00000,0.00000,54,8,27,-7,54,8,66,2,ok,2,0,0.002,6,-0.26,-0.36,9.88,36,0.063,8.20
5.7273,-0.04014,-0.02793,-0.04014,0.00000,0.00000,0.00000,55,9,25,-5,55,8,65,0,ok,2,0,0.002,6,-0.26,-0.36,9.88,36,0.076,8.20
5.7401,-0.04014,-0.02793,-0.04014,0.00000,0.00000,0.00000,56,10,21,-3,56,8,64,-2,ok,2,0,0.002,6,-0.26,-0.36,9.88,36,0.089,8.20
5.7601,-0.04014,-0.02793,-0.04014,0.00000,0.00000,0.00000,56,11,19,-1,58,6,61,-3,ok,2,0,0.002,6,-0.26,-0.36,9.88,36,0.101,8.20
5.7649,-0.04014,-0.02793,-0.04014,0.00000,0.00000,0.00000,56,10,18,0,58,7,59,-4,ok,2,0,0.002,6,-0.26,-0.36,9.88,36,0.114,8.20
5.7774,-0.04014,-0.02793,-0.04014,0.00000,0.00000,0.00000,56,11,16,3,59,8,58,-5,ok,2,0,0.002,6,-0.26,-0.36,9.88,36,0.126,8.20
5.8001,-0.04014,-0.02793,-0.04014,0.00000,0.00000,0.00000,56,11,15,6,59,8,55,-5,ok,2,0,0.002,6,-0.26,-0.36,9.88,36,0.139,8.20
5.8033,-0.04014,-0.02793,-0.04014,0.00000,0.00000,0.00000,56,12,13,9,59,9,53,-6,ok,2,0,0.002,6,-0.26,-0.36,9.88,36,0.152,8.20
5.8159,-0.04014,-0.02793,-0.04014,0.00000,0.00000,0.00000,56,12,13,12,60,9,50,-5,ok,2,0,0.002,6,-0.26,-0.36,9.88,36,0.165,8.20
5.8360,-0.04014,-0.02793,-0.04014,0.00000,0.00000,0.00000,56,13,15,12,60,9,47,-5,ok,2,0,0.002,6,-0.26,-0.36,9.88,36,0.177,8.20
5.8408,-0.04014,-0.02793,-0.04014,0.00000,0.00000,0.00000,56,13,15,11,61,10,45,-5,ok,2,0,0.002,6,-0.26,-0.36,9.88,36,0.190,8.20
5.8537,-0.04014,-0.02793,-0.04014,0.00000,0.00000,0.00000,56,14,17,10,61,11,42,-4,ok,2,0,0.002,6,-0.26,-0.36,9.88,36,0.202,8.20
5.8761,-0.01920,0.09250,-0.08901,0.00000,0.00000,0.00000,56,15,19,9,61,12,40,-4,ok,2,0,0.002,6,1.37,-0.05,10.90,37,0.000,8.20
5.8794,-0.01920,0.09250,-0.08901,0.00000,0.00000,0.00000,56,16,20,9,61,12,36,-3,ok,2,0,0.002,6,1.37,-0.05,10.90,37,0.013,8.20
5.8918,-0.01920,0.09250,-0.08901,0.00000,0.00000,0.00000,57,17,21,8,61,13,34,-3,ok,2,0,0.002,6,1.37,-0.05,10.90,37,0.026,8.20
5.9120,-0.01920,0.09250,-0.08901,0.00000,0.00000,0.00000,57,18,21,8,62,14,30,-1,ok,2,0,0.002,6,1.37,-0.05,10.90,37,0.038,8.20
5.9169,-0.01920,0.09250,-0.08901,0.00000,0.00000,0.00000,58,19,23,6,63,14,29,0,ok,2,0,0.002,6,1.37,-0.05,10.90,37,0.051,8.20
5.9296,-0.01920,0.09250,-0.08901,0.00000,0.00000,0.00000,58,20,24,5,63,15,27,2,ok,2,0,0.002,6,1.37,-0.05,10.90,37,0.063,8.20
5.9520,-0.01920,0.09250,-0.08901,0.00000,0.00000,0.00000,58,21,24,5,63,16,25,5,ok,2,0,0.002,6,1.37,-0.05,10.90,37,0.076,8.20
5.9553,-0.01920,0.09250,-0.08901,0.00000,0.00000,0.00000,58,22,25,4,63,16,24,7,ok,2,0,0.002,6,1.37,-0.05,10.90,37,0.089,8.20
5.9679,-0.01920,0.09250,-0.08901,0.00000,0.00000,0.00000,58,23,25,3,64,17,23,11,ok,2,0,0.002,6,1.37,-0.05,10.90,37,0.102,8.20
5.9881,-0.01920,0.09250,-0.08901,0.00000,0.00000,0.00000,57,26,26,3,64,18,22,13,ok,2,0,0.002,6,1.37,-0.05,10.90,37,0.114,8.20
5.9928,-0.01920,0.09250,-0.08901,0.00000,0.00000,0.00000,57,26,27,2,64,20,25,12,ok,2,0,0.002,6,1.37,-0.05,10.90,37,0.127,8.20
6.0054,-0.01920,0.09250,-0.08901,0.00000,0.00000,0.00000,58,25,28,2,64,21,25,12,ok,2,0,0.002,6,1.37,-0.05,10.90,37,0.139,8.20
6.0281,-0.01920,0.09250,-0.08901,0.00000,0.00000,0.00000,58,21,29,2,65,22,26,10,ok,2,0,0.002,6,1.37,-0.05,10.90,37,0.152,8.20
6.0312,-0.01920,0.09250,-0.08901,0.00000,0.00000,0.00000,60,17,30,1,65,23,27,9,ok,2,0,0.002,6,1.37,-0.05,10.90,37,0.165,8.20
6.0440,-0.01920,0.09250,-0.08901,0.00000,0.00000,0.00000,60,13,32,2,64,25,28,10,ok,2,0,0.002,6,1.37,-0.05,10.90,37,0.178,8.20
6.0640,-0.15359,0.05236,-0.06807,0.00000,0.00000,0.00000,60,11,33,2,65,25,29,9,ok,2,0,0.002,6,-0.84,-1.13,8.81,38,0.000,8.20
6.0689,-0.15359,0.05236,-0.06807,0.00000,0.00000,0.00000,60,10,35,2,64,27,31,9,ok,2,0,0.002,6,-0.84,-1.13,8.81,38,0.012,8.20
6.0815,-0.15359,0.05236,-0.06807,0.00000,0.00000,0.00000,60,7,36,2,64,28,33,9,ok,2,0,0.002,6,-0.84,-1.13,8.81,38,0.025,8.20
6.1040,-0.15359,0.05236,-0.06807,0.00000,0.00000,0.00000,60,4,38,3,64,30,34,9,ok,2,0,0.002,6,-0.84,-1.13,8.81,38,0.038,8.20
6.1073,-0.15359,0.05236,-0.06807,0.00000,0.00000,0.00000,60,1,39,3,64,31,35,9,ok,2,0,0.002,6,-0.84,-1.13,8.81,38,0.051,8.20
6.1198,-0.15359,0.05236,-0.06807,0.00000,0.00000,0.00000,59,-1,41,3,64,33,37,9,ok,2,0,0.002,6,-0.84,-1.13,8.81,38,0.063,8.20
6.1401,-0.15359,0.05236,-0.06807,0.00000,0.00000,0.00000,58,-3,42,3,64,34,37,9,ok,2,0,0.002,6,-0.84,-1.13,8.81,38,0.076,8.20
6.1450,-0.15359,0.05236,-0.06807,0.00000,0.00000,0.00000,58,-5,44,3,65,35,38,8,ok,2,0,0.002,6,-0.84,-1.13,8.81,38,0.088,8.20
6.1574,-0.15359,0.05236,-0.06807,0.00000,0.00000,0.00000,56,-6,44,3,66,35,39,8,ok,2,0,0.002,6,-0.84,-1.13,8.81,38,0.101,8.20
6.1801,-0.15359,0.05236,-0.06807,0.00000,0.00000,0.00000,56,-7,45,3,68,33,41,8,ok,2,0,0.002,6,-0.84,-1.13,8.81,38,0.114,8.20
6.1833,-0.15359,0.05236,-0.06807,0.00000,0.00000,0.00000,56,-9,46,3,70,28,42,7,ok,2,0,0.002,6,-0.84,-1.13,8.81,38,0.127,8.20
6.1961,-0.15359,0.05236,-0.06807,0.00000,0.00000,0.00000,54,-9,48,4,71,24,43,8,ok,2,0,0.002,6,-0.84,-1.13,8.81,38,0.140,8.20
6.2160,-0.15359,0.05236,-0.06807,0.00000,0.00000,0.00000,54,-10,49,4,73,21,44,8,ok,2,0,0.002,6,-0.84,-1.13,8.81,38,0.152,8.20
6.2208,-0.15359,0.05236,-0.06807,0.00000,0.00000,0.00000,52,-10,49,3,74,20,45,8,ok,2,0,0.002,6,-0.84,-1.13,8.81,38,0.164,8.20
6.2337,-0.15359,0.05236,-0.06807,0.00000,0.00000,0.00000,51,-11,49,6,74,18,46,8,ok,2,0,0.002,6,-0.84,-1.13,8.81,38,0.177,8.20
6.2561,-0.15359,0.05236,-0.06807,0.00000,0.00000,0.00000,50,-11,51,6,74,14,47,8,ok,2,0,0.002,6,-0.84,-1.13,8.81,38,0.190,8.20
6.2596,0.08203,0.04712,-0.07330,0.00000,0.00000,0.00000,48,-11,51,6,74,11,48,8,ok,2,0,0.002,6,0.40,0.73,10.13,39,0.000,8.20
6.2719,0.08203,0.04712,-0.07330,0.00000,0.00000,0.00000,47,-10,53,6,73,10,49,8,ok,2,0,0.002,6,0.40,0.73,10.13,39,0.013,8.20
6.2921,0.08203,0.04712,-0.07330,0.00000,0.00000,0.00000,46,-10,53,6,73,7,49,9,ok,2,0,0.002,6,0.40,0.73,10.13,39,0.025,8.20
6.2969,0.08203,0.04712,-0.07330,0.00000,0.00000,0.00000,44,-10,55,6,73,5,49,8,ok,2,0,0.002,6,0.40,0.73,10.13,39,0.038,8.20
6.3097,0.08203,0.04712,-0.07330,0.00000,0.00000,0.00000,43,-8,56,6,72,4,50,9,ok,2,0,0.002,6,0.40,0.73,10.13,39,0.050,8.20
6.3321,0.08203,0.04712,-0.07330,0.00000,0.00000,0.00000,42,-7,57,6,70,1,51,8,ok,2,0,0.002,6,0.40,0.73,10.13,39,0.063,8.20
6.3352,0.08203,0.04712,-0.07330,0.00000,0.00000,0.00000,40,-6,57,6,67,2,51,8,ok,2,0,0.002,6,0.40,0.73,10.13,39,0.076,8.20
6.3479,0.08203,0.04712,-0.07330,0.00000,0.00000,0.00000,38,-4,57,6,65,-1,52,8,ok,2,0,0.002,6,0.40,0.73,10.13,39,0.089,8.20
6.3680,0.08203,0.04712,-0.07330,0.00000,0.00000,0.00000,37,-2,58,6,64,-3,54,8,ok,2,0,0.002,6,0.40,0.73,10.13,39,0.101,8.20
6.3729,0.08203,0.04712,-0.07330,0.00000,0.00000,0.00000,35,0,59,8,62,-4,55,8,ok,2,0,0.002,6,0.40,0.73,10.13,39,0.114,8.20
6.3854,0.08203,0.04712,-0.07330,0.00000,0.00000,0.00000,35,0,60,10,61,-5,54,8,ok,2,0,0.002,6,0.40,0.73,10.13,39,0.126,8.20
6.4081,0.08203,0.04712,-0.07330,0.00000,0.00000,0.00000,34,0,60,10,59,-6,56,6,ok,2,0,0.002,6,0.40,0.73,10.13,39,0.139,8.20
6.4113,0.08203,0.04712,-0.07330,0.00000,0.00000,0.00000,33,2,61,11,56,-6,57,7,ok,2,0,0.002,6,0.40,0.73,10.13,39,0.152,8.20
6.4241,0.08203,0.04712,-0.07330,0.00000,0.00000,0.00000,32,5,61,11,54,-7,58,7,ok,2,0,0.002,6,0.40,0.73,10.13,39,0.165,8.20
6.4441,0.08203,0.04712,-0.07330,0.00000,0.00000,0.00000,32,8,61,12,51,-6,58,8,ok,2,0,0.002,6,0.40,0.73,10.13,39,0.177,8.20
6.4489,0.08203,0.04712,-0.07330,0.00000,0.00000,0.00000,31,10,61,12,48,-6,59,9,ok,2,0,0.002,6,0.40,0.73,10.13,39,0.190,8.20
6.4615,0.08203,0.04712,-0.07330,0.00000,0.00000,0.00000,32,11,61,13,46,-6,60,10,ok,2,0,0.002,6,0.40,0.73,10.13,39,0.202,8.20
6.4841,0.04538,0.07854,-0.05411,0.00000,0.00000,0.00000,32,10,61,14,43,-5,60,10,ok,2,0,0.002,6,2.15,0.88,10.19,40,0.000,8.20
6.4873,0.04538,0.07854,-0.05411,0.00000,0.00000,0.00000,33,9,62,14,40,-5,60,11,ok,2,0,0.002,6,2.15,0.88,10.19,40,0.013,8.20
6.4999,0.04538,0.07854,-0.05411,0.00000,0.00000,0.00000,34,8,62,15,37,-4,61,11,ok,2,0,0.002,6,2.15,0.88,10.19,40,0.026,8.20
6.5200,0.04538,0.07854,-0.05411,0.00000,0.00000,0.00000,34,8,62,15,35,-3,61,13,ok,2,0,0.002,6,2.15,0.88,10.19,40,0.039,8.20
6.5249,0.04538,0.07854,-0.05411,0.00000,0.00000,0.00000,35,7,62,16,32,-2,61,13,ok,2,0,0.002,6,2.15,0.88,10.19,40,0.051,8.20
6.5376,0.04538,0.07854,-0.05411,0.00000,0.00000,0.00000,35,6,62,17,30,0,62,14,ok,2,0,0.002,6,2.15,0.88,10.19,40,0.064,8.20
6.5601,0.04538,0.07854,-0.05411,0.00000,0.00000,0.00000,36,5,64,18,28,1,62,15,ok,2,0,0.002,6,2.15,0.88,10.19,40,0.076,8.20
6.5632,0.04538,0.07854,-0.05411,0.00000,0.00000,0.00000,36,4,64,20,26,5,63,15,ok,2,0,0.002,6,2.15,0.88,10.19,40,0.089,8.20
6.5759,0.04538,0.07854,-0.05411,0.00000,0.00000,0.00000,37,4,64,21,24,8,63,16,ok,2,0,0.002,6,2.15,0.88,10.19,40,0.102,8.20
6.5961,0.04538,0.07854,-0.05411,0.00000,0.00000,0.00000,38,3,64,22,23,11,63,17,ok,2,0,0.002,6,2.15,0.88,10.19,40,0.114,8.20
6.6009,0.04538,0.07854,-0.05411,0.00000,0.00000,0.00000,38,3,64,23,23,14,64,18,ok,2,0,0.002,6,2.15,0.88,10.19,40,0.127,8.20
6.6134,0.04538,0.07854,-0.05411,0.00000,0.00000,0.00000,38,3,63,26,24,13,64,19,ok,2,0,0.002,6,2.15,0.88,10.19,40,0.139,8.20
6.6361,0.04538,0.07854,-0.05411,0.00000,0.00000,0.00000,39,2,63,27,25,13,64,19,ok,2,0,0.002,7,2.15,0.88,10.19,40,0.152,8.20
6.6393,0.04538,0.07854,-0.05411,0.00000,0.00000,0.00000,40,2,64,26,26,11,64,20,ok,2,0,0.002,7,2.15,0.88,10.19,40,0.165,8.20
6.6519,0.04538,0.07854,-0.05411,0.00000,0.00000,0.00000,40,1,66,22,27,11,65,21,ok,2,0,0.002,7,2.15,0.88,10.19,40,0.178,8.20
6.6721,0.04538,0.07854,-0.05411,0.00000,0.00000,0.00000,40,1,69,19,28,11,65,22,ok,2,0,0.002,7,2.15,0.88,10.19,40,0.191,8.20
6.6772,-0.10821,-0.01047,-0.05760,0.00000,0.00000,0.00000,42,1,70,14,29,10,64,23,ok,2,0,0.002,7,-0.37,-1.25,8.48,41,0.000,8.20
6.6895,-0.10821,-0.01047,-0.05760,0.00000,0.00000,0.00000,42,0,70,13,30,8,65,26,ok,2,0,0.002,7,-0.37,-1.25,8.48,41,0.013,8.20
6.7121,-0.10821,-0.01047,-0.05760,0.00000,0.00000,0.00000,44,0,70,12,33,8,66,26,ok,2,0,0.002,7,-0.37,-1.25,8.48,41,0.025,8.20
6.7153,-0.10821,-0.01047,-0.05760,0.00000,0.00000,0.00000,44,0,70,9,33,9,65,29,ok,2,0,0.002,7,-0.37,-1.25,8.48,41,0.038,8.20
6.7281,-0.10821,-0.01047,-0.05760,0.00000,0.00000,0.00000,45,1,69,6,35,9,65,30,ok,2,0,0.002,7,-0.37,-1.25,8.48,41,0.051,8.20
6.7480,-0.10821,-0.01047,-0.05760,0.00000,0.00000,0.00000,46,1,69,4,36,8,65,31,ok,2,0,0.002,7,-0.37,-1.25,8.48,41,0.063,8.20
6.7529,-0.10821,-0.01047,-0.05760,0.00000,0.00000,0.00000,46,1,67,1,37,9,65,33,ok,2,0,0.002,7,-0.37,-1.25,8.48,41,0.076,8.20
6.7656,-0.10821,-0.01047,-0.05760,0.00000,0.00000,0.00000,47,1,66,-1,38,8,64,34,ok,2,0,0.002,7,-0.37,-1.25,8.48,41,0.088,8.20
6.7881,-0.10821,-0.01047,-0.05760,0.00000,0.00000,0.00000,48,1,65,-2,39,8,63,36,ok,2,0,0.002,7,-0.37,-1.25,8.48,41,0.101,8.20
6.7913,-0.10821,-0.01047,-0.05760,0.00000,0.00000,0.00000,48,1,63,-4,41,7,65,36,ok,2,0,0.002,7,-0.37,-1.25,8.48,41,0.114,8.20
6.8038,-0.10821,-0.01047,-0.05760,0.00000,0.00000,0.00000,48,2,61,-5,42,7,66,35,ok,2,0,0.002,7,-0.37,-1.25,8.48,41,0.127,8.20
6.8240,-0.10821,-0.01047,-0.05760,0.00000,0.00000,0.00000,49,3,60,-7,43,7,67,33,ok,2,0,0.002,7,-0.37,-1.25,8.48,41,0.139,8.20
6.8289,-0.10821,-0.01047,-0.05760,0.00000,0.00000,0.00000,50,4,58,-8,44,7,69,28,ok,2,0,0.002,7,-0.37,-1.25,8.48,41,0.152,8.20
6.8416,-0.10821,-0.01047,-0.05760,0.00000,0.00000,0.00000,50,3,56,-9,44,7,70,24,ok,2,0,0.002,7,-0.37,-1.25,8.48,41,0.164,8.20
6.8640,-0.10821,-0.01047,-0.05760,0.00000,0.00000,0.00000,50,3,54,-9,46,7,72,21,ok,2,0,0.002,7,-0.37,-1.25,8.48,41,0.177,8.20
6.8674,-0.10821,-0.01047,-0.05760,0.00000,0.00000,0.00000,50,5,51,-10,47,7,72,21,ok,2,0,0.002,7,-0.37,-1.25,8.48,41,0.190,8.20
6.8803,-0.11694,0.02443,0.01222,0.00000,0.00000,0.00000,51,6,49,-10,47,7,72,19,ok,2,0,0.002,7,-0.10,-1.75,10.26,42,0.000,8.20
6.9000,-0.11694,0.02443,0.01222,0.00000,0.00000,0.00000,52,6,46,-10,48,7,72,15,ok,2,0,0.002,7,-0.10,-1.75,10.26,42,0.013,8.20
6.9048,-0.11694,0.02443,0.01222,0.00000,0.00000,0.00000,52,6,44,-10,49,7,72,13,ok,2,0,0.002,7,-0.10,-1.75,10.26,42,0.025,8.20
6.9174,-0.11694,0.02443,0.01222,0.00000,0.00000,0.00000,52,7,41,-10,50,7,71,11,ok,2,0,0.002,7,-0.10,-1.75,10.26,42,0.037,8.20
6.9401,-0.11694,0.02443,0.01222,0.00000,0.00000,0.00000,54,7,39,-10,51,7,71,7,ok,2,0,0.002,7,-0.10,-1.75,10.26,42,0.050,8.20
6.9432,-0.11694,0.02443,0.01222,0.00000,0.00000,0.00000,54,7,37,-9,52,6,70,6,ok,2,0,0.002,7,-0.10,-1.75,10.26,42,0.063,8.20
6.9558,-0.11694,0.02443,0.01222,0.00000,0.00000,0.00000,54,7,33,-8,52,7,70,4,ok,2,0,0.002,7,-0.10,-1.75,10.26,42,0.076,8.20
6.9760,-0.11694,0.02443,0.01222,0.00000,0.00000,0.00000,54,8,30,-7,53,7,68,2,ok,2,0,0.002,7,-0.10,-1.75,10.26,42,0.089,8.20
6.9809,-0.11694,0.02443,0.01222,0.00000,0.00000,0.00000,54,8,27,-6,54,8,66,2,ok,2,0,0.002,7,-0.10,-1.75,10.26,42,0.101,8.20
6.9934,-0.11694,0.02443,0.01222,0.00000,0.00000,0.00000,54,9,24,-4,55,8,65,0,ok,2,0,0.002,7,-0.10,-1.75,10.26,42,0.114,8.20
7.0161,-0.11694,0.02443,0.01222,0.00000,0.00000,0.00000,55,10,20,-2,56,8,64,-2,ok,2,0,0.002,7,-0.10,-1.75,10.26,42,0.126,8.20
7.0193,-0.11694,0.02443,0.01222,0.00000,0.00000,0.00000,55,10,19,-1,58,6,62,-3,ok,2,0,0.002,7,-0.10,-1.75,10.26,42,0.139,8.20
7.0319,-0.11694,0.02443,0.01222,0.00000,0.00000,0.00000,56,10,18,1,58,7,60,-4,ok,2,0,0.002,7,-0.10,-1.75,10.26,42,0.152,8.20
7.0521,-0.11694,0.02443,0.01222,0.00000,0.00000,0.00000,56,10,16,3,59,8,58,-5,ok,2,0,0.002,7,-0.10,-1.75,10.26,42,0.165,8.20
7.0569,-0.11694,0.02443,0.01222,0.00000,0.00000,0.00000,56,11,15,6,59,8,55,-5,ok,2,0,0.002,7,-0.10,-1.75,10.26,42,0.177,8.20
7.0694,-0.11694,0.02443,0.01222,0.00000,0.00000,0.00000,56,12,13,9,60,9,54,-6,ok,2,0,0.002,7,-0.10,-1.75,10.26,42,0.190,8.20
7.0921,-0.01047,0.07156,-0.04538,0.00000,0.00000,0.00000,56,12,12,12,60,9,50,-5,ok,2,0,0.002,7,1.01,-0.07,8.41,43,0.000,8.20
7.0955,-0.01047,0.07156,-0.04538,0.00000,0.00000,0.00000,56,13,14,12,60,10,47,-5,ok,2,0,0.002,7,1.01,-0.07,8.41,43,0.013,8.20
7.1079,-0.01047,0.07156,-0.04538,0.00000,0.00000,0.00000,56,14,15,11,61,10,45,-5,ok,2,0,0.002,7,1.01,-0.07,8.41,43,0.026,8.20
7.1280,-0.01047,0.07156,-0.04538,0.00000,0.00000,0.00000,56,14,16,10,61,11,42,-4,ok,2,0,0.002,7,1.01,-0.07,8.41,43,0.039,8.20
7.1329,-0.01047,0.07156,-0.04538,0.00000,0.00000,0.00000,56,15,18,9,62,12,40,-4,ok,2,0,0.002,7,1.01,-0.07,8.41,43,0.051,8.20
7.1457,-0.01047,0.07156,-0.04538,0.00000,0.00000,0.00000,56,16,19,8,62,12,37,-3,ok,2,0,0.002,7,1.01,-0.07,8.41,43,0.064,8.20
7.1681,-0.01047,0.07156,-0.04538,0.00000,0.00000,0.00000,56,17,20,7,62,13,34,-3,ok,2,0,0.002,7,1.01,-0.07,8.41,43,0.076,8.20
7.1712,-0.01047,0.07156,-0.04538,0.00000,0.00000,0.00000,56,18,21,7,62,14,31,-1,ok,2,0,0.002,7,1.01,-0.07,8.41,43,0.089,8.20
7.1839,-0.01047,0.07156,-0.04538,0.00000,0.00000,0.00000,57,19,22,6,63,14,30,0,ok,2,0,0.002,7,1.01,-0.07,8.41,43,0.102,8.20
7.2041,-0.01047,0.07156,-0.04538,0.00000,0.00000,0.00000,57,20,24,5,63,15,27,1,ok,2,0,0.002,7,1.01,-0.07,8.41,43,0.115,8.20
7.2089,-0.01047,0.07156,-0.04538,0.00000,0.00000,0.00000,58,21,24,4,63,16,25,5,ok,2,0,0.002,7,1.01,-0.07,8.41,43,0.127,8.20
7.2216,-0.01047,0.07156,-0.04538,0.00000,0.00000,0.00000,58,22,25,4,64,17,24,7,ok,2,0,0.002,7,1.01,-0.07,8.41,43,0.139,8.20
7.2441,-0.01047,0.07156,-0.04538,0.00000,0.00000,0.00000,57,22,25,3,64,17,23,11,ok,2,0,0.002,7,1.01,-0.07,8.41,43,0.152,8.20
7.2472,-0.01047,0.07156,-0.04538,0.00000,0.00000,0.00000,57,25,27,3,64,19,23,13,ok,2,0,0.002,7,1.01,-0.07,8.41,43,0.165,8.20
7.2599,-0.01047,0.07156,-0.04538,0.00000,0.00000,0.00000,56,26,27,2,64,20,25,12,ok,2,0,0.002,7,1.01,-0.07,8.41,43,0.178,8.20
7.2801,-0.01047,0.07156,-0.04538,0.00000,0.00000,0.00000,58,25,29,2,64,21,25,12,ok,2,0,0.002,7,1.01,-0.07,8.41,43,0.190,8.20
7.2853,-0.12392,0.09076,-0.00873,0.00000,0.00000,0.00000,58,21,30,2,65,22,26,10,ok,2,0,0.002,7,-0.12,-1.85,8.97,44,0.000,8.20
7.2977,-0.12392,0.09076,-0.00873,0.00000,0.00000,0.00000,60,17,31,2,64,23,27,9,ok,2,0,0.002,7,-0.12,-1.85,8.97,44,0.013,8.20
7.3201,-0.12392,0.09076,-0.00873,0.00000,0.00000,0.00000,60,13,33,2,64,24,28,10,ok,2,0,0.002,7,-0.12,-1.85,8.97,44,0.025,8.20
7.3233,-0.12392,0.09076,-0.00873,0.00000,0.00000,0.00000,60,10,34,2,65,25,30,10,ok,2,0,0.002,7,-0.12,-1.85,8.97,44,0.038,8.20
7.3359,-0.12392,0.09076,-0.00873,0.00000,0.00000,0.00000,60,10,35,2,63,27,31,9,ok,2,0,0.002,7,-0.12,-1.85,8.97,44,0.051,8.20
7.3560,-0.12392,0.09076,-0.00873,0.00000,0.00000,0.00000,60,6,36,2,64,28,33,9,ok,2,0,0.002,7,-0.12,-1.85,8.97,44,0.064,8.20
7.3609,-0.12392,0.09076,-0.00873,0.00000,0.00000,0.00000,60,4,38,4,64,30,34,9,ok,2,0,0.002,7,-0.12,-1.85,8.97,44,0.076,8.20
7.3736,-0.12392,0.09076,-0.00873,0.00000,0.00000,0.00000,60,1,39,4,64,32,35,9,ok,2,0,0.002,7,-0.12,-1.85,8.97,44,0.088,8.20
7.3960,-0.12392,0.09076,-0.00873,0.00000,0.00000,0.00000,59,-2,41,3,64,33,36,9,ok,2,0,0.002,7,-0.12,-1.85,8.97,44,0.101,8.20
7.3992,-0.12392,0.09076,-0.00873,0.00000,0.00000,0.00000,58,-3,42,3,64,35,37,9,ok,2,0,0.002,7,-0.12,-1.85,8.97,44,0.114,8.20
7.4119,-0.12392,0.09076,-0.00873,0.00000,0.00000,0.00000,58,-4,43,3,65,35,38,8,ok,2,0,0.002,7,-0.12,-1.85,8.97,44,0.127,8.20
7.4320,-0.12392,0.09076,-0.00873,0.00000,0.00000,0.00000,56,-5,43,3,66,35,39,8,ok,2,0,0.002,7,-0.12,-1.85,8.97,44,0.139,8.20
7.4369,-0.12392,0.09076,-0.00873,0.00000,0.00000,0.00000,56,-6,45,3,68,33,41,7,ok,2,0,0.002,7,-0.12,-1.85,8.97,44,0.152,8.20
7.4494,-0.12392,0.09076,-0.00873,0.00000,0.00000,0.00000,56,-8,46,3,70,28,42,7,ok,2,0,0.002,7,-0.12,-1.85,8.97,44,0.165,8.20
7.4720,-0.12392,0.09076,-0.00873,0.00000,0.00000,0.00000,54,-9,47,4,71,24,44,7,ok,2,0,0.002,7,-0.12,-1.85,8.97,44,0.177,8.20
7.4753,-0.12392,0.09076,-0.00873,0.00000,0.00000,0.00000,53,-10,48,4,73,21,44,7,ok,2,0,0.002,7,-0.12,-1.85,8.97,44,0.190,8.20
7.4882,0.01222,0.04887,-0.01222,0.00000,0.00000,0.00000,52,-10,49,4,74,20,45,8,ok,2,0,0.002,7,0.06,0.35,9.78,45,0.000,8.20
7.5080,0.01222,0.04887,-0.01222,0.00000,0.00000,0.00000,51,-11,49,5,74,19,46,7,ok,2,0,0.002,7,0.06,0.35,9.78,45,0.013,8.20
7.5129,0.01222,0.04887,-0.01222,0.00000,0.00000,0.00000,50,-11,50,6,74,15,47,8,ok,2,0,0.002,7,0.06,0.35,9.78,45,0.025,8.20
7.5254,0.01222,0.04887,-0.01222,0.00000,0.00000,0.00000,48,-11,51,5,74,12,48,8,ok,2,0,0.002,7,0.06,0.35,9.78,45,0.037,8.20
7.5481,0.01222,0.04887,-0.01222,0.00000,0.00000,0.00000,47,-10,53,6,73,10,49,8,ok,2,0,0.002,7,0.06,0.35,9.78,45,0.050,8.20
7.5513,0.01222,0.04887,-0.01222,0.00000,0.00000,0.00000,46,-10,53,6,73,7,49,9,ok,2,0,0.002,7,0.06,0.35,9.78,45,0.063,8.20
7.5639,0.01222,0.04887,-0.01222,0.00000,0.00000,0.00000,44,-10,55,6,72,5,50,8,ok,2,0,0.002,7,0.06,0.35,9.78,45,0.076,8.20
7.5840,0.01222,0.04887,-0.01222,0.00000,0.00000,0.00000,43,-9,56,6,71,4,51,9,ok,2,0,0.002,7,0.06,0.35,9.78,45,0.088,8.20
7.5888,0.01222,0.04887,-0.01222,0.00000,0.00000,0.00000,42,-8,57,6,69,1,52,7,ok,2,0,0.002,7,0.06,0.35,9.78,45,0.101,8.20
7.6014,0.01222,0.04887,-0.01222,0.00000,0.00000,0.00000,40,-6,57,7,66,1,52,8,ok,2,0,0.002,7,0.06,0.35,9.78,45,0.114,8.20
7.6241,0.01222,0.04887,-0.01222,0.00000,0.00000,0.00000,38,-5,57,7,65,-1,53,8,ok,2,0,0.002,7,0.06,0.35,9.78,45,0.126,8.20
7.6273,0.01222,0.04887,-0.01222,0.00000,0.00000,0.00000,37,-4,58,8,64,-3,54,9,ok,2,0,0.002,7,0.06,0.35,9.78,45,0.139,8.20
7.6399,0.01222,0.04887,-0.01222,0.00000,0.00000,0.00000,35,-2,59,9,62,-4,55,8,ok,2,0,0.002,8,0.06,0.35,9.78,45,0.152,8.20
7.6600,0.01222,0.04887,-0.01222,0.00000,0.00000,0.00000,34,-2,60,11,61,-5,55,8,ok,2,0,0.002,8,0.06,0.35,9.78,45,0.165,8.20
7.6650,0.01222,0.04887,-0.01222,0.00000,0.00000,0.00000,34,-1,60,10,59,-6,57,6,ok,2,0,0.002,8,0.06,0.35,9.78,45,0.177,8.20
7.6777,0.01222,0.04887,-0.01222,0.00000,0.00000,0.00000,33,2,61,11,56,-7,57,7,ok,2,0,0.002,8,0.06,0.35,9.78,45,0.190,8.20
7.7001,0.00349,0.02967,0.01396,0.00000,0.00000,0.00000,32,5,61,11,54,-7,58,8,ok,2,0,0.002,8,0.03,-0.46,10.16,46,0.000,8.20
7.7033,0.00349,0.02967,0.01396,0.00000,0.00000,0.00000,32,8,61,12,51,-6,59,9,ok,2,0,0.002,8,0.03,-0.46,10.16,46,0.013,8.20
7.7159,0.00349,0.02967,0.01396,0.00000,0.00000,0.00000,31,10,61,12,48,-6,59,9,ok,2,0,0.002,8,0.03,-0.46,10.16,46,0.026,8.20
7.7360,0.00349,0.02967,0.01396,0.00000,0.00000,0.00000,32,11,61,13,46,-6,60,10,ok,2,0,0.002,8,0.03,-0.46,10.16,46,0.038,8.20
7.7410,0.00349,0.02967,0.01396,0.00000,0.00000,0.00000,32,10,61,13,43,-5,60,10,ok,2,0,0.002,8,0.03,-0.46,10.16,46,0.051,8.20
7.7534,0.00349,0.02967,0.01396,0.00000,0.00000,0.00000,32,9,62,14,40,-5,61,11,ok,2,0,0.002,8,0.03,-0.46,10.16,46,0.064,8.20
7.7760,0.00349,0.02967,0.01396,0.00000,0.00000,0.00000,34,9,62,15,38,-4,61,12,ok,2,0,0.002,8,0.03,-0.46,10.16,46,0.076,8.20
7.7792,0.00349,0.02967,0.01396,0.00000,0.00000,0.00000,34,8,62,15,35,-3,61,13,ok,2,0,0.002,8,0.03,-0.46,10.16,46,0.089,8.20
7.7920,0.00349,0.02967,0.01396,0.00000,0.00000,0.00000,35,7,63,16,32,-2,62,13,ok,2,0,0.002,8,0.03,-0.46,10.16,46,0.102,8.20
7.8121,0.00349,0.02967,0.01396,0.00000,0.00000,0.00000,35,7,63,17,30,0,62,14,ok,2,0,0.002,8,0.03,-0.46,10.16,46,0.114,8.20
7.8169,0.00349,0.02967,0.01396,0.00000,0.00000,0.00000,36,6,64,18,28,1,62,15,ok,2,0,0.002,8,0.03,-0.46,10.16,46,0.127,8.20
7.8294,0.00349,0.02967,0.01396,0.00000,0.00000,0.00000,36,5,64,19,26,4,63,15,ok,2,0,0.002,8,0.03,-0.46,10.16,46,0.139,8.20
7.8520,0.00349,0.02967,0.01396,0.00000,0.00000,0.00000,37,4,64,20,24,7,63,16,ok,2,0,0.002,8,0.03,-0.46,10.16,46,0.152,8.20
7.8555,0.00349,0.02967,0.01396,0.00000,0.00000,0.00000,38,4,64,21,23,11,63,18,ok,2,0,0.002,8,0.03,-0.46,10.16,46,0.165,8.20
7.8678,0.00349,0.02967,0.01396,0.00000,0.00000,0.00000,38,3,64,23,22,14,64,18,ok,2,0,0.002,8,0.03,-0.46,10.16,46,0.178,8.20
7.8881,0.00349,0.02967,0.01396,0.00000,0.00000,0.00000,39,3,63,26,24,13,64,19,ok,2,0,0.002,8,0.03,-0.46,10.16,46,0.190,8.20
7.8930,0.00349,0.02967,0.01396,0.00000,0.00000,0.00000,39,2,63,27,24,13,64,19,ok,2,0,0.002,8,0.03,-0.46,10.16,46,0.203,8.20
7.9058,-0.08901,0.00698,0.01571,0.00000,0.00000,0.00000,40,2,64,25,25,11,64,21,ok,2,0,0.002,8,0.90,0.18,9.93,47,0.000,8.20
7.9280,-0.08901,0.00698,0.01571,0.00000,0.00000,0.00000,40,1,67,23,26,10,65,21,ok,2,0,0.002,8,0.90,0.18,9.93,47,0.012,8.20
7.9315,-0.08901,0.00698,0.01571,0.00000,0.00000,0.00000,41,1,69,19,28,10,65,23,ok,2,0,0.002,8,0.90,0.18,9.93,47,0.026,8.20
7.9439,-0.08901,0.00698,0.01571,0.00000,0.00000,0.00000,42,1,70,15,29,10,65,24,ok,2,0,0.002,8,0.90,0.18,9.93,47,0.038,8.20
7.9640,-0.08901,0.00698,0.01571,0.00000,0.00000,0.00000,42,1,71,13,30,9,65,26,ok,2,0,0.002,8,0.90,0.18,9.93,47,0.051,8.20
7.9689,-0.08901,0.00698,0.01571,0.00000,0.00000,0.00000,44,1,70,12,32,9,65,27,ok,2,0,0.002,8,0.90,0.18,9.93,47,0.063,8.20
7.9816,-0.08901,0.00698,0.01571,0.00000,0.00000,0.00000,44,1,70,9,33,9,64,29,ok,2,0,0.002,8,0.90,0.18,9.93,47,0.076,8.20
8.0041,-0.08901,0.00698,0.01571,0.00000,0.00000,0.00000,45,2,69,6,35,9,64,30,ok,2,0,0.002,8,0.90,0.18,9.93,47,0.088,8.20
8.0073,-0.08901,0.00698,0.01571,0.00000,0.00000,0.00000,46,2,69,3,36,8,64,31,ok,2,0,0.002,8,0.90,0.18,9.93,47,0.102,8.20
8.0200,-0.08901,0.00698,0.01571,0.00000,0.00000,0.00000,46,2,67,1,37,9,64,33,ok,2,0,0.002,8,0.90,0.18,9.93,47,0.114,8.20
8.0401,-0.08901,0.00698,0.01571,0.00000,0.00000,0.00000,47,1,66,-1,39,8,64,35,ok,2,0,0.002,8,0.90,0.18,9.93,47,0.127,8.20
8.0449,-0.08901,0.00698,0.01571,0.00000,0.00000,0.00000,48,2,64,-3,39,8,63,36,ok,2,0,0.002,8,0.90,0.18,9.93,47,0.139,8.20
8.0575,-0.08901,0.00698,0.01571,0.00000,0.00000,0.00000,48,3,62,-4,41,7,64,36,ok,2,0,0.002,8,0.90,0.18,9.93,47,0.152,8.20
8.0800,-0.08901,0.00698,0.01571,0.00000,0.00000,0.00000,48,3,61,-6,42,7,65,35,ok,2,0,0.002,8,0.90,0.18,9.93,47,0.164,8.20
8.0832,-0.08901,0.00698,0.01571,0.00000,0.00000,0.00000,49,3,60,-8,43,7,67,33,ok,2,0,0.002,8,0.90,0.18,9.93,47,0.178,8.20
8.0959,-0.08901,0.00698,0.01571,0.00000,0.00000,0.00000,50,4,58,-8,44,7,69,28,ok,2,0,0.002,8,0.90,0.18,9.93,47,0.190,8.20
8.1160,-0.10297,0.05760,0.06109,0.00000,0.00000,0.00000,50,3,55,-9,45,7,71,24,ok,2,0,0.002,8,-0.82,-0.46,9.77,48,0.000,8.20
8.1209,-0.10297,0.05760,0.06109,0.00000,0.00000,0.00000,50,3,54,-9,46,7,72,21,ok,2,0,0.002,8,-0.82,-0.46,9.77,48,0.012,8.20
8.1334,-0.10297,0.05760,0.06109,0.00000,0.00000,0.00000,50,5,51,-10,47,7,72,21,ok,2,0,0.002,8,-0.82,-0.46,9.77,48,0.025,8.20
8.1561,-0.10297,0.05760,0.06109,0.00000,0.00000,0.00000,51,6,49,-10,47,7,72,19,ok,2,0,0.002,8,-0.82,-0.46,9.77,48,0.038,8.20
8.1593,-0.10297,0.05760,0.06109,0.00000,0.00000,0.00000,52,5,46,-10,49,7,72,15,ok,2,0,0.002,8,-0.82,-0.46,9.77,48,0.051,8.20
8.1719,-0.10297,0.05760,0.06109,0.00000,0.00000,0.00000,52,6,44,-9,49,7,72,12,ok,2,0,0.002,8,-0.82,-0.46,9.77,48,0.064,8.20
8.1921,-0.10297,0.05760,0.06109,0.00000,0.00000,0.00000,52,7,41,-10,50,7,71,11,ok,2,0,0.002,8,-0.82,-0.46,9.77,48,0.076,8.20
8.1968,-0.10297,0.05760,0.06109,0.00000,0.00000,0.00000,53,7,39,-10,51,7,71,7,ok,2,0,0.002,8,-0.82,-0.46,9.77,48,0.089,8.20
8.2096,-0.10297,0.05760,0.06109,0.00000,0.00000,0.00000,53,7,36,-9,52,6,71,6,ok,2,0,0.002,8,-0.82,-0.46,9.77,48,0.101,8.20
8.2320,-0.10297,0.05760,0.06109,0.00000,0.00000,0.00000,54,7,33,-8,52,7,70,4,ok,2,0,0.002,8,-0.82,-0.46,9.77,48,0.114,8.20
8.2352,-0.10297,0.05760,0.06109,0.00000,0.00000,0.00000,54,8,30,-7,53,7,68,2,ok,2,0,0.002,8,-0.82,-0.46,9.77,48,0.127,8.20
8.2481,-0.10297,0.05760,0.06109,0.00000,0.00000,0.00000,54,8,27,-6,54,8,66,2,ok,2,0,0.002,8,-0.82,-0.46,9.77,48,0.140,8.20
8.2680,-0.10297,0.05760,0.06109,0.00000,0.00000,0.00000,54,8,24,-4,55,8,65,0,ok,2,0,0.002,8,-0.82,-0.46,9.77,48,0.152,8.20
8.2728,-0.10297,0.05760,0.06109,0.00000,0.00000,0.00000,55,10,20,-2,56,8,64,-2,ok,2,0,0.002,8,-0.82,-0.46,9.77,48,0.164,8.20
8.2854,-0.10297,0.05760,0.06109,0.00000,0.00000,0.00000,55,10,19,-1,58,6,62,-3,ok,2,0,0.002,8,-0.82,-0.46,9.77,48,0.177,8.20
8.3081,-0.10297,0.05760,0.06109,0.00000,0.00000,0.00000,56,9,18,1,58,7,60,-4,ok,2,0,0.002,8,-0.82,-0.46,9.77,48,0.190,8.20
8.3116,-0.00175,0.05061,0.00175,0.00000,0.00000,0.00000,56,10,16,3,59,8,58,-4,ok,2,0,0.002,8,0.45,0.51,9.37,49,0.000,8.20
8.3240,-0.00175,0.05061,0.00175,0.00000,0.00000,0.00000,56,11,14,6,59,8,55,-5,ok,2,0,0.002,8,0.45,0.51,9.37,49,0.013,8.20
8.3440,-0.00175,0.05061,0.00175,0.00000,0.00000,0.00000,56,12,13,9,60,9,53,-6,ok,2,0,0.002,8,0.45,0.51,9.37,49,0.025,8.20
8.3489,-0.00175,0.05061,0.00175,0.00000,0.00000,0.00000,56,12,12,11,61,9,50,-5,ok,2,0,0.002,8,0.45,0.51,9.37,49,0.038,8.20
8.3614,-0.00175,0.05061,0.00175,0.00000,0.00000,0.00000,56,13,14,12,61,10,47,-5,ok,2,0,0.002,8,0.45,0.51,9.37,49,0.050,8.20
8.3840,-0.00175,0.05061,0.00175,0.00000,0.00000,0.00000,56,14,15,11,61,11,45,-5,ok,2,0,0.002,8,0.45,0.51,9.37,49,0.063,8.20
8.3874,-0.00175,0.05061,0.00175,0.00000,0.00000,0.00000,56,14,16,10,61,11,42,-4,ok,2,0,0.002,8,0.45,0.51,9.37,49,0.076,8.20
8.3999,-0.00175,0.05061,0.00175,0.00000,0.00000,0.00000,56,15,18,9,61,12,40,-4,ok,2,0,0.002,8,0.45,0.51,9.37,49,0.089,8.20
8.4200,-0.00175,0.05061,0.00175,0.00000,0.00000,0.00000,56,16,19,8,61,12,37,-3,ok,2,0,0.002,8,0.45,0.51,9.37,49,0.101,8.20
8.4249,-0.00175,0.05061,0.00175,0.00000,0.00000,0.00000,56,17,21,7,62,13,35,-3,ok,2,0,0.002,8,0.45,0.51,9.37,49,0.114,8.20
8.4374,-0.00175,0.05061,0.00175,0.00000,0.00000,0.00000,56,18,21,7,62,14,31,-1,ok,2,0,0.002,8,0.45,0.51,9.37,49,0.126,8.20
8.4601,-0.00175,0.05061,0.00175,0.00000,0.00000,0.00000,57,19,23,6,63,14,30,0,ok,2,0,0.002,8,0.45,0.51,9.37,49,0.139,8.20
8.4634,-0.00175,0.05061,0.00175,0.00000,0.00000,0.00000,57,20,24,5,63,15,27,2,ok,2,0,0.002,8,0.45,0.51,9.37,49,0.152,8.20
8.4759,-0.00175,0.05061,0.00175,0.00000,0.00000,0.00000,58,20,24,5,63,16,25,5,ok,2,0,0.002,8,0.45,0.51,9.37,49,0.165,8.20
8.4960,-0.00175,0.05061,0.00175,0.00000,0.00000,0.00000,58,22,25,4,64,17,24,7,ok,2,0,0.002,8,0.45,0.51,9.37,49,0.177,8.20
8.5009,-0.00175,0.05061,0.00175,0.00000,0.00000,0.00000,58,23,26,3,64,17,23,11,ok,2,0,0.002,8,0.45,0.51,9.37,49,0.190,8.20
8.5138,-0.08552,0.10123,0.01047,0.00000,0.00000,0.00000,57,25,27,3,64,19,22,13,ok,2,0,0.002,8,1.72,-2.75,10.36,50,0.000,8.20
8.5360,-0.08552,0.10123,0.01047,0.00000,0.00000,0.00000,57,26,28,2,64,19,25,12,ok,2,0,0.002,8,1.72,-2.75,10.36,50,0.013,8.20
8.5394,-0.08552,0.10123,0.01047,0.00000,0.00000,0.00000,58,25,29,2,64,20,25,12,ok,2,0,0.002,8,1.72,-2.75,10.36,50,0.026,8.20
8.5518,-0.08552,0.10123,0.01047,0.00000,0.00000,0.00000,58,21,30,2,65,22,26,10,ok,2,0,0.002,8,1.72,-2.75,10.36,50,0.039,8.20
8.5720,-0.08552,0.10123,0.01047,0.00000,0.00000,0.00000,60,17,31,2,64,23,27,9,ok,2,0,0.002,8,1.72,-2.75,10.36,50,0.051,8.20
8.5769,-0.08552,0.10123,0.01047,0.00000,0.00000,0.00000,60,12,32,2,64,24,28,10,ok,2,0,0.002,8,1.72,-2.75,10.36,50,0.063,8.20
8.5896,-0.08552,0.10123,0.01047,0.00000,0.00000,0.00000,60,10,33,2,65,25,29,10,ok,2,0,0.002,8,1.72,-2.75,10.36,50,0.076,8.20
8.6121,-0.08552,0.10123,0.01047,0.00000,0.00000,0.00000,60,10,35,2,64,27,30,9,ok,2,0,0.002,8,1.72,-2.75,10.36,50,0.089,8.20
8.6153,-0.08552,0.10123,0.01047,0.00000,0.00000,0.00000,60,6,36,2,64,29,32,9,ok,2,0,0.002,8,1.72,-2.75,10.36,50,0.102,8.20
8.6279,-0.08552,0.10123,0.01047,0.00000,0.00000,0.00000,60,4,38,3,64,30,33,10,ok,2,0,0.002,8,1.72,-2.75,10.36,50,0.115,8.20
8.6481,-0.08552,0.10123,0.01047,0.00000,0.00000,0.00000,60,1,39,3,64,32,35,9,ok,2,0,0.002,8,1.72,-2.75,10.36,50,0.127,8.20
8.6529,-0.08552,0.10123,0.01047,0.00000,0.00000,0.00000,59,-1,41,3,64,33,36,9,ok,2,0,0.002,9,1.72,-2.75,10.36,50,0.140,8.20
8.6654,-0.08552,0.10123,0.01047,0.00000,0.00000,0.00000,58,-3,42,2,64,35,37,9,ok,2,0,0.002,9,1.72,-2.75,10.36,50,0.152,8.20
8.6881,-0.08552,0.10123,0.01047,0.00000,0.00000,0.00000,58,-4,43,3,65,35,38,8,ok,2,0,0.002,9,1.72,-2.75,10.36,50,0.165,8.20
8.6915,-0.08552,0.10123,0.01047,0.00000,0.00000,0.00000,56,-5,43,3,66,35,39,8,ok,2,0,0.002,9,1.72,-2.75,10.36,50,0.178,8.20
8.7039,-0.08552,0.10123,0.01047,0.00000,0.00000,0.00000,56,-6,45,3,68,33,41,7,ok,2,0,0.002,9,1.72,-2.75,10.36,50,0.191,8.20
8.7241,-0.08552,0.10123,0.01047,0.00000,0.00000,0.00000,56,-8,46,3,70,28,42,7,ok,2,0,0.002,9,1.72,-2.75,10.36,50,0.203,8.20
8.7292,0.00873,0.02793,0.01047,0.00000,0.00000,0.00000,54,-9,47,4,72,24,44,7,ok,2,0,0.002,9,1.30,1.00,9.56,51,0.000,8.20
8.7416,0.00873,0.02793,0.01047,0.00000,0.00000,0.00000,53,-10,48,3,73,22,44,7,ok,2,0,0.002,9,1.30,1.00,9.56,51,0.012,8.20
8.7641,0.00873,0.02793,0.01047,0.00000,0.00000,0.00000,52,-10,49,3,75,21,45,7,ok,2,0,0.002,9,1.30,1.00,9.56,51,0.025,8.20
8.7673,0.00873,0.02793,0.01047,0.00000,0.00000,0.00000,51,-11,49,5,75,19,46,7,ok,2,0,0.002,9,1.30,1.00,9.56,51,0.038,8.20
8.7799,0.00873,0.02793,0.01047,0.00000,0.00000,0.00000,50,-11,51,6,74,15,47,8,ok,2,0,0.002,9,1.30,1.00,9.56,51,0.051,8.20
8.8000,0.00873,0.02793,0.01047,0.00000,0.00000,0.00000,48,-10,52,5,74,12,48,8,ok,2,0,0.002,9,1.30,1.00,9.56,51,0.063,8.20
8.8050,0.00873,0.02793,0.01047,0.00000,0.00000,0.00000,47,-10,53,6,73,10,49,8,ok,2,0,0.002,9,1.30,1.00,9.56,51,0.076,8.20
8.8174,0.00873,0.02793,0.01047,0.00000,0.00000,0.00000,46,-10,53,6,72,7,49,9,ok,2,0,0.002,9,1.30,1.00,9.56,51,0.089,8.20
8.8400,0.00873,0.02793,0.01047,0.00000,0.00000,0.00000,44,-10,55,6,72,5,50,8,ok,2,0,0.002,9,1.30,1.00,9.56,51,0.101,8.20
8.8435,0.00873,0.02793,0.01047,0.00000,0.00000,0.00000,43,-9,56,6,71,3,51,9,ok,2,0,0.002,9,1.30,1.00,9.56,51,0.114,8.20
8.8559,0.00873,0.02793,0.01047,0.00000,0.00000,0.00000,42,-8,57,7,69,1,52,7,ok,2,0,0.002,9,1.30,1.00,9.56,51,0.127,8.20
8.8760,0.00873,0.02793,0.01047,0.00000,0.00000,0.00000,40,-7,57,8,66,1,52,8,ok,2,0,0.002,9,1.30,1.00,9.56,51,0.140,8.20
8.8809,0.00873,0.02793,0.01047,0.00000,0.00000,0.00000,38,-6,57,8,65,-1,53,8,ok,2,0,0.002,9,1.30,1.00,9.56,51,0.152,8.20
8.8934,0.00873,0.02793,0.01047,0.00000,0.00000,0.00000,37,-4,58,8,64,-3,54,9,ok,2,0,0.002,9,1.30,1.00,9.56,51,0.164,8.20
8.9161,0.00873,0.02793,0.01047,0.00000,0.00000,0.00000,35,-2,59,9,61,-4,55,9,ok,2,0,0.002,9,1.30,1.00,9.56,51,0.177,8.20
8.9192,0.00873,0.02793,0.01047,0.00000,0.00000,0.00000,34,-2,60,11,60,-5,55,8,ok,2,0,0.002,9,1.30,1.00,9.56,51,0.190,8.20
8.9322,0.05411,-0.02793,0.00698,0.00000,0.00000,0.00000,34,-1,60,10,59,-6,56,6,ok,2,0,0.002,9,-0.14,-0.43,10.57,52,0.000,8.20
8.9520,0.05411,-0.02793,0.00698,0.00000,0.00000,0.00000,33,2,61,11,56,-6,57,7,ok,2,0,0.002,9,-0.14,-0.43,10.57,52,0.012,8.20
8.9569,0.05411,-0.02793,0.00698,0.00000,0.00000,0.00000,32,5,61,11,54,-7,58,8,ok,2,0,0.002,9,-0.14,-0.43,10.57,52,0.025,8.20
8.9696,0.05411,-0.02793,0.00698,0.00000,0.00000,0.00000,32,8,61,12,51,-6,58,8,ok,2,0,0.002,9,-0.14,-0.43,10.57,52,0.038,8.20
8.9920,0.05411,-0.02793,0.00698,0.00000,0.00000,0.00000,31,11,62,11,48,-6,59,9,ok,2,0,0.002,9,-0.14,-0.43,10.57,52,0.050,8.20
8.9953,0.05411,-0.02793,0.00698,0.00000,0.00000,0.00000,32,11,62,12,46,-6,60,10,ok,2,0,0.002,9,-0.14,-0.43,10.57,52,0.063,8.20
9.0080,0.05411,-0.02793,0.00698,0.00000,0.00000,0.00000,32,11,62,13,43,-5,60,10,ok,2,0,0.002,9,-0.14,-0.43,10.57,52,0.076,8.20
9.0280,0.05411,-0.02793,0.00698,0.00000,0.00000,0.00000,33,10,63,13,40,-5,60,11,ok,2,0,0.002,9,-0.14,-0.43,10.57,52,0.089,8.20
9.0329,0.05411,-0.02793,0.00698,0.00000,0.00000,0.00000,34,9,62,14,37,-4,61,11,ok,2,0,0.002,9,-0.14,-0.43,10.57,52,0.101,8.20
9.0455,0.05411,-0.02793,0.00698,0.00000,0.00000,0.00000,34,9,63,15,35,-3,61,13,ok,2,0,0.002,9,-0.14,-0.43,10.57,52,0.113,8.20
9.0681,0.05411,-0.02793,0.00698,0.00000,0.00000,0.00000,36,8,63,15,31,-2,61,13,ok,2,0,0.002,9,-0.14,-0.43,10.57,52,0.126,8.20
9.0713,0.05411,-0.02793,0.00698,0.00000,0.00000,0.00000,36,7,63,16,30,0,62,14,ok,2,0,0.002,9,-0.14,-0.43,10.57,52,0.139,8.20
9.0840,0.05411,-0.02793,0.00698,0.00000,0.00000,0.00000,36,6,64,18,28,1,62,15,ok,2,0,0.002,9,-0.14,-0.43,10.57,52,0.152,8.20
9.1040,0.05411,-0.02793,0.00698,0.00000,0.00000,0.00000,37,5,64,19,25,5,63,15,ok,2,0,0.002,9,-0.14,-0.43,10.57,52,0.165,8.20
9.1088,0.05411,-0.02793,0.00698,0.00000,0.00000,0.00000,38,5,64,20,24,8,63,16,ok,2,0,0.002,9,-0.14,-0.43,10.57,52,0.177,8.20
9.1214,0.05411,-0.02793,0.00698,0.00000,0.00000,0.00000,38,4,64,22,23,11,63,17,ok,2,0,0.002,9,-0.14,-0.43,10.57,52,0.190,8.20
9.1441,-0.10996,-0.01396,-0.00873,0.00000,0.00000,0.00000,38,4,64,23,22,14,63,18,ok,2,0,0.002,9,0.75,-0.35,9.50,53,0.000,8.20
9.1472,-0.10996,-0.01396,-0.00873,0.00000,0.00000,0.00000,39,3,63,26,23,13,64,19,ok,2,0,0.002,9,0.75,-0.35,9.50,53,0.013,8.20
9.1599,-0.10996,-0.01396,-0.00873,0.00000,0.00000,0.00000,40,2,64,28,24,13,64,20,ok,2,0,0.002,9,0.75,-0.35,9.50,53,0.026,8.20
9.1801,-0.10996,-0.01396,-0.00873,0.00000,0.00000,0.00000,40,2,65,26,25,11,65,21,ok,2,0,0.002,9,0.75,-0.35,9.50,53,0.039,8.20
9.1849,-0.10996,-0.01396,-0.00873,0.00000,0.00000,0.00000,40,1,67,23,26,10,65,22,ok,2,0,0.002,9,0.75,-0.35,9.50,53,0.051,8.20
9.1974,-0.10996,-0.01396,-0.00873,0.00000,0.00000,0.00000,41,0,70,20,27,10,65,23,ok,2,0,0.002,9,0.75,-0.35,9.50,53,0.064,8.20
9.2201,-0.10996,-0.01396,-0.00873,0.00000,0.00000,0.00000,42,0,71,16,28,10,65,24,ok,2,0,0.002,9,0.75,-0.35,9.50,53,0.076,8.20
9.2233,-0.10996,-0.01396,-0.00873,0.00000,0.00000,0.00000,42,0,71,14,30,9,64,26,ok,2,0,0.002,9,0.75,-0.35,9.50,53,0.089,8.20
9.2360,-0.10996,-0.01396,-0.00873,0.00000,0.00000,0.00000,44,0,71,13,32,9,65,27,ok,2,0,0.002,9,0.75,-0.35,9.50,53,0.102,8.20
9.2560,-0.10996,-0.01396,-0.00873,0.00000,0.00000,0.00000,44,0,71,9,33,9,64,29,ok,2,0,0.002,9,0.75,-0.35,9.50,53,0.115,8.20
9.2611,-0.10996,-0.01396,-0.00873,0.00000,0.00000,0.00000,45,2,70,6,35,9,64,31,ok,2,0,0.002,9,0.75,-0.35,9.50,53,0.127,8.20
9.2735,-0.10996,-0.01396,-0.00873,0.00000,0.00000,0.00000,46,2,69,3,36,8,64,32,ok,2,0,0.002,9,0.75,-0.35,9.50,53,0.140,8.20
9.2960,-0.10996,-0.01396,-0.00873,0.00000,0.00000,0.00000,46,3,67,0,37,8,64,33,ok,2,0,0.002,9,0.75,-0.35,9.50,53,0.152,8.20
9.2992,-0.10996,-0.01396,-0.00873,0.00000,0.00000,0.00000,47,2,66,-2,38,8,64,35,ok,2,0,0.002,9,0.75,-0.35,9.50,53,0.165,8.20
9.3121,-0.10996,-0.01396,-0.00873,0.00000,0.00000,0.00000,48,3,65,-3,39,8,63,36,ok,2,0,0.002,9,0.75,-0.35,9.50,53,0.178,8.20
9.3321,-0.10996,-0.01396,-0.00873,0.00000,0.00000,0.00000,48,3,62,-4,41,7,64,36,ok,2,0,0.002,9,0.75,-0.35,9.50,53,0.190,8.20
9.3372,-0.12043,0.02094,0.01571,0.00000,0.00000,0.00000,48,3,61,-6,42,7,65,35,ok,2,0,0.002,9,0.01,-1.13,9.21,54,0.000,8.20
9.3495,-0.12043,0.02094,0.01571,0.00000,0.00000,0.00000,49,3,60,-8,43,7,67,33,ok,2,0,0.002,9,0.01,-1.13,9.21,54,0.012,8.20
9.3721,-0.12043,0.02094,0.01571,0.00000,0.00000,0.00000,50,4,58,-8,44,7,69,28,ok,2,0,0.002,9,0.01,-1.13,9.21,54,0.025,8.20
9.3753,-0.12043,0.02094,0.01571,0.00000,0.00000,0.00000,50,3,56,-9,44,7,70,24,ok,2,0,0.002,9,0.01,-1.13,9.21,54,0.038,8.20
9.3881,-0.12043,0.02094,0.01571,0.00000,0.00000,0.00000,50,3,53,-9,46,7,72,21,ok,2,0,0.002,9,0.01,-1.13,9.21,54,0.051,8.20
9.4080,-0.12043,0.02094,0.01571,0.00000,0.00000,0.00000,50,5,51,-10,47,7,72,21,ok,2,0,0.002,9,0.01,-1.13,9.21,54,0.063,8.20
9.4128,-0.12043,0.02094,0.01571,0.00000,0.00000,0.00000,51,6,49,-10,47,7,72,19,ok,2,0,0.002,9,0.01,-1.13,9.21,54,0.076,8.20
9.4254,-0.12043,0.02094,0.01571,0.00000,0.00000,0.00000,52,5,46,-10,49,7,72,15,ok,2,0,0.002,9,0.01,-1.13,9.21,54,0.089,8.20
9.4481,-0.12043,0.02094,0.01571,0.00000,0.00000,0.00000,52,6,44,-9,49,7,72,12,ok,2,0,0.002,9,0.01,-1.13,9.21,54,0.101,8.20
9.4513,-0.12043,0.02094,0.01571,0.00000,0.00000,0.00000,52,7,41,-10,50,7,71,11,ok,2,0,0.002,9,0.01,-1.13,9.21,54,0.114,8.20
9.4639,-0.12043,0.02094,0.01571,0.00000,0.00000,0.00000,53,7,39,-10,51,7,71,7,ok,2,0,0.002,9,0.01,-1.13,9.21,54,0.127,8.20
9.4841,-0.12043,0.02094,0.01571,0.00000,0.00000,0.00000,54,7,36,-9,52,6,71,6,ok,2,0,0.002,9,0.01,-1.13,9.21,54,0.140,8.20
9.4889,-0.12043,0.02094,0.01571,0.00000,0.00000,0.00000,54,7,33,-9,52,7,70,4,ok,2,0,0.003,9,0.01,-1.13,9.21,54,0.152,8.20
9.5015,-0.12043,0.02094,0.01571,0.00000,0.00000,0.00000,54,8,30,-7,53,7,68,2,ok,2,0,0.003,9,0.01,-1.13,9.21,54,0.165,8.20
9.5241,-0.12043,0.02094,0.01571,0.00000,0.00000,0.00000,54,8,27,-6,54,8,66,2,ok,2,0,0.003,9,0.01,-1.13,9.21,54,0.177,8.20
9.5272,-0.12043,0.02094,0.01571,0.00000,0.00000,0.00000,54,9,24,-4,55,8,65,0,ok,2,0,0.003,9,0.01,-1.13,9.21,54,0.190,8.20
9.5401,-0.12043,0.02094,0.01571,0.00000,0.00000,0.00000,55,10,20,-2,56,8,64,-2,ok,2,0,0.003,9,0.01,-1.13,9.21,54,0.203,8.20
9.5601,-0.00524,0.04014,-0.03840,0.00000,0.00000,0.00000,55,10,19,-1,58,6,62,-3,ok,2,0,0.003,9,0.81,0.07,10.17,55,0.000,8.20
9.5650,-0.00524,0.04014,-0.03840,0.00000,0.00000,0.00000,56,10,18,0,58,7,59,-4,ok,2,0,0.003,9,0.81,0.07,10.17,55,0.013,8.20
9.5774,-0.00524,0.04014,-0.03840,0.00000,0.00000,0.00000,56,11,16,3,59,8,57,-4,ok,2,0,0.003,9,0.81,0.07,10.17,55,0.025,8.20
9.6001,-0.00524,0.04014,-0.03840,0.00000,0.00000,0.00000,56,11,15,6,59,8,55,-5,ok,2,0,0.003,9,0.81,0.07,10.17,55,0.038,8.20
9.6032,-0.00524,0.04014,-0.03840,0.00000,0.00000,0.00000,56,12,13,9,60,9,53,-6,ok,2,0,0.003,9,0.81,0.07,10.17,55,0.051,8.20
9.6159,-0.00524,0.04014,-0.03840,0.00000,0.00000,0.00000,56,13,13,11,60,9,50,-5,ok,2,0,0.003,9,0.81,0.07,10.17,55,0.064,8.20
9.6361,-0.00524,0.04014,-0.03840,0.00000,0.00000,0.00000,56,14,14,11,61,9,47,-5,ok,2,0,0.003,9,0.81,0.07,10.17,55,0.076,8.20
9.6409,-0.00524,0.04014,-0.03840,0.00000,0.00000,0.00000,56,14,15,11,61,10,45,-5,ok,2,0,0.003,9,0.81,0.07,10.17,55,0.088,8.20
9.6536,-0.00524,0.04014,-0.03840,0.00000,0.00000,0.00000,56,14,16,10,61,10,42,-4,ok,2,0,0.003,9,0.81,0.07,10.17,55,0.101,8.20
9.6761,-0.00524,0.04014,-0.03840,0.00000,0.00000,0.00000,56,15,18,9,61,12,40,-4,ok,2,0,0.003,9,0.81,0.07,10.17,55,0.114,8.20
9.6793,-0.00524,0.04014,-0.03840,0.00000,0.00000,0.00000,56,16,19,8,61,12,37,-3,ok,2,0,0.003,10,0.81,0.07,10.17,55,0.127,8.20
9.6919,-0.00524,0.04014,-0.03840,0.00000,0.00000,0.00000,56,16,21,7,62,13,35,-3,ok,2,0,0.003,10,0.81,0.07,10.17,55,0.140,8.20
9.7121,-0.00524,0.04014,-0.03840,0.00000,0.00000,0.00000,56,17,21,7,62,14,31,-1,ok,2,0,0.003,10,0.81,0.07,10.17,55,0.152,8.20
9.7171,-0.00524,0.04014,-0.03840,0.00000,0.00000,0.00000,57,18,23,6,63,14,30,0,ok,2,0,0.003,10,0.81,0.07,10.17,55,0.165,8.20
9.7294,-0.00524,0.04014,-0.03840,0.00000,0.00000,0.00000,57,20,24,5,63,15,27,2,ok,2,0,0.003,10,0.81,0.07,10.17,55,0.177,8.20
9.7521,-0.01222,0.05061,-0.04712,0.00000,0.00000,0.00000,58,21,24,5,63,16,25,5,ok,2,0,0.003,10,-0.15,-0.57,9.77,56,0.000,8.20
9.7553,-0.01222,0.05061,-0.04712,0.00000,0.00000,0.00000,58,22,25,4,63,17,24,7,ok,2,0,0.003,10,-0.15,-0.57,9.77,56,0.013,8.20
9.7679,-0.01222,0.05061,-0.04712,0.00000,0.00000,0.00000,58,23,26,3,64,17,23,11,ok,2,0,0.003,10,-0.15,-0.57,9.77,56,0.026,8.20
9.7880,-0.01222,0.05061,-0.04712,0.00000,0.00000,0.00000,57,25,27,3,64,19,22,13,ok,2,0,0.003,10,-0.15,-0.57,9.77,56,0.039,8.20
9.7929,-0.01222,0.05061,-0.04712,0.00000,0.00000,0.00000,57,26,27,2,64,20,24,12,ok,2,0,0.003,10,-0.15,-0.57,9.77,56,0.051,8.20
9.8057,-0.01222,0.05061,-0.04712,0.00000,0.00000,0.00000,58,25,29,2,64,21,25,12,ok,2,0,0.003,10,-0.15,-0.57,9.77,56,0.064,8.20
9.8281,-0.01222,0.05061,-0.04712,0.00000,0.00000,0.00000,58,21,30,2,65,22,25,10,ok,2,0,0.003,10,-0.15,-0.57,9.77,56,0.076,8.20
9.8313,-0.01222,0.05061,-0.04712,0.00000,0.00000,0.00000,60,18,31,1,64,23,27,9,ok,2,0,0.003,10,-0.15,-0.57,9.77,56,0.089,8.20
9.8439,-0.01222,0.05061,-0.04712,0.00000,0.00000,0.00000,60,13,32,2,64,25,28,10,ok,2,0,0.003,10,-0.15,-0.57,9.77,56,0.102,8.20
9.8640,-0.01222,0.05061,-0.04712,0.00000,0.00000,0.00000,60,11,34,2,65,25,29,9,ok,2,0,0.003,10,-0.15,-0.57,9.77,56,0.114,8.20
9.8689,-0.01222,0.05061,-0.04712,0.00000,0.00000,0.00000,60,11,35,2,64,28,30,9,ok,2,0,0.003,10,-0.15,-0.57,9.77,56,0.127,8.20
9.8816,-0.01222,0.05061,-0.04712,0.00000,0.00000,0.00000,60,7,37,2,64,29,32,9,ok,2,0,0.003,10,-0.15,-0.57,9.77,56,0.139,8.20
9.9040,-0.01222,0.05061,-0.04712,0.00000,0.00000,0.00000,60,5,39,3,64,30,33,9,ok,2,0,0.003,10,-0.15,-0.57,9.77,56,0.152,8.20
9.9072,-0.01222,0.05061,-0.04712,0.00000,0.00000,0.00000,60,2,40,3,64,32,35,9,ok,2,0,0.003,10,-0.15,-0.57,9.77,56,0.165,8.20
9.9208,-0.01222,0.05061,-0.04712,0.00000,0.00000,0.00000,59,-1,41,3,64,34,36,9,ok,2,0,0.003,10,-0.15,-0.57,9.77,56,0.178,8.20
9.9401,-0.01222,0.05061,-0.04712,0.00000,0.00000,0.00000,58,-3,43,2,64,35,37,9,ok,2,0,0.003,10,-0.15,-0.57,9.77,56,0.190,8.20
9.9452,-0.06458,-0.00175,-0.01222,0.00000,0.00000,0.00000,58,-4,44,3,64,35,38,8,ok,2,0,0.003,10,0.83,0.36,11.76,57,0.000,8.20
9.9574,-0.06458,-0.00175,-0.01222,0.00000,0.00000,0.00000,56,-5,44,3,66,35,39,8,ok,2,0,0.003,10,0.83,0.36,11.76,57,0.013,8.20
9.9801,-0.06458,-0.00175,-0.01222,0.00000,0.00000,0.00000,56,-6,45,3,68,33,41,7,ok,2,0,0.003,10,0.83,0.36,11.76,57,0.025,8.20
9.9833,-0.06458,-0.00175,-0.01222,0.00000,0.00000,0.00000,56,-9,47,3,70,28,42,7,ok,2,0,0.003,10,0.83,0.36,11.76,57,0.038,8.20
9.9961,-0.06458,-0.00175,-0.01222,0.00000,0.00000,0.00000,54,-9,48,4,71,24,44,7,ok,2,0,0.003,10,0.83,0.36,11.76,57,0.051,8.20
10.0160,-0.06458,-0.00175,-0.01222,0.00000,0.00000,0.00000,54,-10,49,4,73,21,44,7,ok,2,0,0.003,10,0.83,0.36,11.76,57,0.064,8.20
10.0209,-0.06458,-0.00175,-0.01222,0.00000,0.00000,0.00000,52,-11,50,4,74,20,45,7,ok,2,0,0.003,10,0.83,0.36,11.76,57,0.076,8.20
10.0399,-0.06458,-0.00175,-0.01222,0.00000,0.00000,0.00000,51,-11,50,6,74,18,46,7,ok,2,0,0.003,10,0.83,0.36,11.76,57,0.089,8.20
10.0561,-0.06458,-0.00175,-0.01222,0.00000,0.00000,0.00000,50,-11,51,6,74,15,47,8,ok,2,0,0.003,10,0.83,0.36,11.76,57,0.101,8.20
10.0592,-0.06458,-0.00175,-0.01222,0.00000,0.00000,0.00000,48,-11,52,6,73,11,48,8,ok,2,0,0.003,10,0.83,0.36,11.76,57,0.114,8.20
10.0719,-0.06458,-0.00175,-0.01222,0.00000,0.00000,0.00000,48,-10,53,6,73,10,49,8,ok,2,0,0.003,10,0.83,0.36,11.76,57,0.127,8.20
10.0920,-0.06458,-0.00175,-0.01222,0.00000,0.00000,0.00000,46,-11,53,7,72,6,49,9,ok,2,0,0.003,10,0.83,0.36,11.76,57,0.140,8.20
10.0969,-0.06458,-0.00175,-0.01222,0.00000,0.00000,0.00000,44,-11,56,7,72,5,50,8,ok,2,0,0.003,10,0.83,0.36,11.76,57,0.152,8.20
10.1094,-0.06458,-0.00175,-0.01222,0.00000,0.00000,0.00000,44,-10,56,7,71,3,51,9,ok,2,0,0.003,10,0.83,0.36,11.76,57,0.165,8.20
10.1321,-0.06458,-0.00175,-0.01222,0.00000,0.00000,0.00000,42,-8,57,7,69,1,52,8,ok,2,0,0.003,10,0.83,0.36,11.76,57,0.177,8.20
10.1353,-0.06458,-0.00175,-0.01222,0.00000,0.00000,0.00000,40,-7,57,8,66,1,52,9,ok,2,0,0.003,10,0.83,0.36,11.76,57,0.190,8.20
10.1483,0.06807,-0.03142,-0.02094,0.00000,0.00000,0.00000,38,-6,58,8,65,-1,53,9,ok,2,0,0.003,10,0.01,0.81,9.62,58,0.000,8.20
10.1680,0.06807,-0.03142,-0.02094,0.00000,0.00000,0.00000,37,-4,58,8,64,-2,54,9,ok,2,0,0.003,10,0.01,0.81,9.62,58,0.012,8.20
10.1729,0.06807,-0.03142,-0.02094,0.00000,0.00000,0.00000,35,-1,59,9,62,-4,54,9,ok,2,0,0.003,10,0.01,0.81,9.62,58,0.025,8.20
10.1854,0.06807,-0.03142,-0.02094,0.00000,0.00000,0.00000,34,-1,60,10,61,-5,54,8,ok,2,0,0.003,10,0.01,0.81,9.62,58,0.038,8.20
10.2081,0.06807,-0.03142,-0.02094,0.00000,0.00000,0.00000,34,1,61,10,59,-5,56,6,ok,2,0,0.003,10,0.01,0.81,9.62,58,0.050,8.20
10.2113,0.06807,-0.03142,-0.02094,0.00000,0.00000,0.00000,34,3,61,10,56,-6,56,7,ok,2,0,0.003,10,0.01,0.81,9.62,58,0.063,8.20
10.2241,0.06807,-0.03142,-0.02094,0.00000,0.00000,0.00000,32,6,61,10,54,-7,57,8,ok,2,0,0.003,10,0.01,0.81,9.62,58,0.076,8.20
10.2440,0.06807,-0.03142,-0.02094,0.00000,0.00000,0.00000,32,10,61,11,51,-6,58,9,ok,2,0,0.003,10,0.01,0.81,9.62,58,0.089,8.20
10.2489,0.06807,-0.03142,-0.02094,0.00000,0.00000,0.00000,32,12,62,11,48,-6,58,9,ok,2,0,0.003,10,0.01,0.81,9.62,58,0.101,8.20
10.2615,0.06807,-0.03142,-0.02094,0.00000,0.00000,0.00000,32,12,62,12,46,-6,59,9,ok,2,0,0.003,10,0.01,0.81,9.62,58,0.114,8.20
10.2841,0.06807,-0.03142,-0.02094,0.00000,0.00000,0.00000,32,12,62,13,43,-5,59,10,ok,2,0,0.003,10,0.01,0.81,9.62,58,0.126,8.20
10.2873,0.06807,-0.03142,-0.02094,0.00000,0.00000,0.00000,33,10,62,13,40,-5,60,11,ok,2,0,0.003,10,0.01,0.81,9.62,58,0.139,8.20
10.2999,0.06807,-0.03142,-0.02094,0.00000,0.00000,0.00000,34,9,62,14,37,-4,60,12,ok,2,0,0.003,10,0.01,0.81,9.62,58,0.152,8.20
10.3200,0.06807,-0.03142,-0.02094,0.00000,0.00000,0.00000,34,8,63,15,34,-3,61,13,ok,2,0,0.003,10,0.01,0.81,9.62,58,0.165,8.20
10.3249,0.06807,-0.03142,-0.02094,0.00000,0.00000,0.00000,36,7,63,16,31,-2,61,13,ok,2,0,0.003,10,0.01,0.81,9.62,58,0.177,8.20
10.3376,0.06807,-0.03142,-0.02094,0.00000,0.00000,0.00000,36,7,63,17,29,0,62,14,ok,2,0,0.003,10,0.01,0.81,9.62,58,0.190,8.20
10.3601,0.06807,-0.03142,-0.02094,0.00000,0.00000,0.00000,36,6,64,18,28,1,62,15,ok,2,0,0.003,10,0.01,0.81,9.62,58,0.202,8.20
10.3636,-0.08552,0.06807,-0.02967,0.00000,0.00000,0.00000,37,5,64,19,25,5,63,15,ok,2,0,0.003,10,0.92,0.19,8.52,59,0.000,8.20
10.3759,-0.08552,0.06807,-0.02967,0.00000,0.00000,0.00000,38,5,64,21,24,7,63,16,ok,2,0,0.003,10,0.92,0.19,8.52,59,0.013,8.20
10.3960,-0.08552,0.06807,-0.02967,0.00000,0.00000,0.00000,38,4,64,22,22,10,63,18,ok,2,0,0.003,10,0.92,0.19,8.52,59,0.025,8.20
10.4009,-0.08552,0.06807,-0.02967,0.00000,0.00000,0.00000,38,3,64,24,21,13,64,18,ok,2,0,0.003,10,0.92,0.19,8.52,59,0.038,8.20
10.4135,-0.08552,0.06807,-0.02967,0.00000,0.00000,0.00000,39,2,63,27,23,13,64,19,ok,2,0,0.003,10,0.92,0.19,8.52,59,0.050,8.20
10.4361,-0.08552,0.06807,-0.02967,0.00000,0.00000,0.00000,40,1,63,28,24,13,64,20,ok,2,0,0.003,10,0.92,0.19,8.52,59,0.063,8.20
10.4393,-0.08552,0.06807,-0.02967,0.00000,0.00000,0.00000,40,1,64,27,25,11,64,21,ok,2,0,0.003,10,0.92,0.19,8.52,59,0.076,8.20
10.4519,-0.08552,0.06807,-0.02967,0.00000,0.00000,0.00000,40,0,67,24,26,10,65,22,ok,2,0,0.003,10,0.92,0.19,8.52,59,0.089,8.20
10.4720,-0.08552,0.06807,-0.02967,0.00000,0.00000,0.00000,41,0,69,20,28,10,65,23,ok,2,0,0.003,10,0.92,0.19,8.52,59,0.101,8.20
10.4769,-0.08552,0.06807,-0.02967,0.00000,0.00000,0.00000,42,0,70,16,29,10,65,24,ok,2,0,0.003,10,0.92,0.19,8.52,59,0.114,8.20
10.4895,-0.08552,0.06807,-0.02967,0.00000,0.00000,0.00000,42,0,70,13,30,9,65,26,ok,2,0,0.003,10,0.92,0.19,8.52,59,0.126,8.20
10.5120,-0.08552,0.06807,-0.02967,0.00000,0.00000,0.00000,44,1,70,12,33,9,66,27,ok,2,0,0.003,10,0.92,0.19,8.52,59,0.139,8.20
10.5153,-0.08552,0.06807,-0.02967,0.00000,0.00000,0.00000,44,1,70,9,33,9,65,29,ok,2,0,0.003,10,0.92,0.19,8.52,59,0.152,8.20
10.5280,-0.08552,0.06807,-0.02967,0.00000,0.00000,0.00000,45,2,69,6,35,9,64,30,ok,2,0,0.003,10,0.92,0.19,8.52,59,0.165,8.20
10.5480,-0.08552,0.06807,-0.02967,0.00000,0.00000,0.00000,46,2,68,3,37,8,64,31,ok,2,0,0.003,10,0.92,0.19,8.52,59,0.177,8.20
10.5529,-0.08552,0.06807,-0.02967,0.00000,0.00000,0.00000,46,2,67,0,38,8,64,33,ok,2,0,0.003,10,0.92,0.19,8.52,59,0.190,8.20
10.5658,-0.17279,0.02269,-0.01745,0.00000,0.00000,0.00000,46,2,66,-2,39,8,64,35,ok,2,0,0.003,10,0.27,-2.18,8.19,60,0.000,8.20
10.5881,-0.17279,0.02269,-0.01745,0.00000,0.00000,0.00000,48,2,64,-3,40,7,64,36,ok,2,0,0.003,10,0.27,-2.18,8.19,60,0.013,8.20
10.5913,-0.17279,0.02269,-0.01745,0.00000,0.00000,0.00000,48,2,62,-4,41,6,65,36,ok,2,0,0.003,10,0.27,-2.18,8.19,60,0.026,8.20
10.6039,-0.17279,0.02269,-0.01745,0.00000,0.00000,0.00000,48,2,61,-6,42,6,66,35,ok,2,0,0.003,10,0.27,-2.18,8.19,60,0.039,8.20
10.6240,-0.17279,0.02269,-0.01745,0.00000,0.00000,0.00000,49,2,60,-8,43,6,68,33,ok,2,0,0.003,10,0.27,-2.18,8.19,60,0.051,8.20
10.6288,-0.17279,0.02269,-0.01745,0.00000,0.00000,0.00000,50,3,57,-8,44,7,70,28,ok,2,0,0.003,10,0.27,-2.18,8.19,60,0.064,8.20
10.6414,-0.17279,0.02269,-0.01745,0.00000,0.00000,0.00000,50,2,55,-9,45,7,71,24,ok,2,0,0.003,10,0.27,-2.18,8.19,60,0.076,8.20
10.6641,-0.17279,0.02269,-0.01745,0.00000,0.00000,0.00000,50,2,53,-9,46,7,73,21,ok,2,0,0.003,10,0.27,-2.18,8.19,60,0.089,8.20
10.6673,-0.17279,0.02269,-0.01745,0.00000,0.00000,0.00000,50,4,51,-10,47,7,73,21,ok,2,0,0.003,10,0.27,-2.18,8.19,60,0.102,8.20
10.6799,-0.17279,0.02269,-0.01745,0.00000,0.00000,0.00000,51,5,49,-10,48,7,73,19,ok,2,0,0.003,10,0.27,-2.18,8.19,60,0.115,8.20
10.7000,-0.17279,0.02269,-0.01745,0.00000,0.00000,0.00000,52,5,46,-10,49,7,73,15,ok,2,0,0.003,11,0.27,-2.18,8.19,60,0.127,8.20
10.7049,-0.17279,0.02269,-0.01745,0.00000,0.00000,0.00000,52,6,44,-10,49,7,72,13,ok,2,0,0.003,11,0.27,-2.18,8.19,60,0.140,8.20
10.7175,-0.17279,0.02269,-0.01745,0.00000,0.00000,0.00000,52,7,41,-10,50,7,71,11,ok,2,0,0.003,11,0.27,-2.18,8.19,60,0.152,8.20
10.7401,-0.17279,0.02269,-0.01745,0.00000,0.00000,0.00000,53,7,39,-10,51,7,71,7,ok,2,0,0.003,11,0.27,-2.18,8.19,60,0.165,8.20
10.7433,-0.17279,0.02269,-0.01745,0.00000,0.00000,0.00000,54,7,36,-9,52,6,71,6,ok,2,0,0.003,11,0.27,-2.18,8.19,60,0.178,8.20
10.7559,-0.17279,0.02269,-0.01745,0.00000,0.00000,0.00000,54,7,33,-9,52,7,70,4,ok,2,0,0.003,11,0.27,-2.18,8.19,60,0.191,8.20
10.7761,-0.03142,0.01047,-0.03665,0.00000,0.00000,0.00000,54,8,30,-7,53,7,68,2,ok,2,0,0.003,11,0.06,-0.16,9.71,61,0.000,8.20
10.7809,-0.03142,0.01047,-0.03665,0.00000,0.00000,0.00000,54,8,27,-7,54,8,66,2,ok,2,0,0.003,11,0.06,-0.16,9.71,61,0.012,8.20
10.7935,-0.03142,0.01047,-0.03665,0.00000,0.00000,0.00000,54,9,24,-5,55,8,64,0,ok,2,0,0.003,11,0.06,-0.16,9.71,61,0.025,8.20
10.8160,-0.03142,0.01047,-0.03665,0.00000,0.00000,0.00000,55,10,20,-3,56,8,63,-2,ok,2,0,0.003,11,0.06,-0.16,9.71,61,0.038,8.20
10.8195,-0.03142,0.01047,-0.03665,0.00000,0.00000,0.00000,55,11,19,-1,59,6,61,-3,ok,2,0,0.003,11,0.06,-0.16,9.71,61,0.051,8.20
10.8319,-0.03142,0.01047,-0.03665,0.00000,0.00000,0.00000,56,11,18,0,59,7,59,-4,ok,2,0,0.003,11,0.06,-0.16,9.71,61,0.064,8.20
10.8520,-0.03142,0.01047,-0.03665,0.00000,0.00000,0.00000,56,11,16,2,59,8,57,-4,ok,2,0,0.003,11,0.06,-0.16,9.71,61,0.076,8.20
10.8569,-0.03142,0.01047,-0.03665,0.00000,0.00000,0.00000,56,12,15,5,59,8,55,-5,ok,2,0,0.003,11,0.06,-0.16,9.71,61,0.089,8.20
10.8694,-0.03142,0.01047,-0.03665,0.00000,0.00000,0.00000,56,13,13,8,60,8,53,-6,ok,2,0,0.003,11,0.06,-0.16,9.71,61,0.101,8.20
10.8921,-0.03142,0.01047,-0.03665,0.00000,0.00000,0.00000,56,13,13,11,60,9,50,-5,ok,2,0,0.003,11,0.06,-0.16,9.71,61,0.114,8.20
10.8955,-0.03142,0.01047,-0.03665,0.00000,0.00000,0.00000,56,14,14,11,60,9,48,-5,ok,2,0,0.003,11,0.06,-0.16,9.71,61,0.127,8.20
10.9079,-0.03142,0.01047,-0.03665,0.00000,0.00000,0.00000,56,14,15,11,61,10,45,-5,ok,2,0,0.003,11,0.06,-0.16,9.71,61,0.140,8.20
10.9280,-0.03142,0.01047,-0.03665,0.00000,0.00000,0.00000,56,14,17,10,61,11,42,-4,ok,2,0,0.003,11,0.06,-0.16,9.71,61,0.152,8.20
10.9329,-0.03142,0.01047,-0.03665,0.00000,0.00000,0.00000,56,15,19,9,61,12,40,-4,ok,2,0,0.003,11,0.06,-0.16,9.71,61,0.164,8.20
10.9457,-0.03142,0.01047,-0.03665,0.00000,0.00000,0.00000,56,15,19,9,61,12,37,-3,ok,2,0,0.003,11,0.06,-0.16,9.71,61,0.177,8.20
10.9681,-0.03142,0.01047,-0.03665,0.00000,0.00000,0.00000,56,16,21,8,62,13,35,-3,ok,2,0,0.003,11,0.06,-0.16,9.71,61,0.190,8.20
10.9714,-0.03142,0.01047,-0.03665,0.00000,0.00000,0.00000,56,17,21,7,62,14,31,-1,ok,2,0,0.003,11,0.06,-0.16,9.71,61,0.203,8.20
10.9842,0.02443,0.08901,-0.06109,0.00000,0.00000,0.00000,58,19,23,6,63,14,30,0,ok,2,0,0.003,11,-0.16,0.56,9.46,62,0.000,8.20
11.0040,0.02443,0.08901,-0.06109,0.00000,0.00000,0.00000,58,20,24,5,63,15,27,2,ok,2,0,0.003,11,-0.16,0.56,9.46,62,0.013,8.20
11.0089,0.02443,0.08901,-0.06109,0.00000,0.00000,0.00000,58,21,24,5,63,16,25,5,ok,2,0,0.003,11,-0.16,0.56,9.46,62,0.025,8.20
11.0214,0.02443,0.08901,-0.06109,0.00000,0.00000,0.00000,58,22,25,4,63,17,24,7,ok,2,0,0.003,11,-0.16,0.56,9.46,62,0.037,8.20
11.0441,0.02443,0.08901,-0.06109,0.00000,0.00000,0.00000,58,23,25,3,64,17,22,11,ok,2,0,0.003,11,-0.16,0.56,9.46,62,0.050,8.20
11.0473,0.02443,0.08901,-0.06109,0.00000,0.00000,0.00000,57,26,27,3,64,18,22,13,ok,2,0,0.003,11,-0.16,0.56,9.46,62,0.063,8.20
11.0601,0.02443,0.08901,-0.06109,0.00000,0.00000,0.00000,57,27,27,2,64,20,24,12,ok,2,0,0.003,11,-0.16,0.56,9.46,62,0.076,8.20
11.0800,0.02443,0.08901,-0.06109,0.00000,0.00000,0.00000,58,25,28,2,64,21,24,12,ok,2,0,0.003,11,-0.16,0.56,9.46,62,0.088,8.20
11.0849,0.02443,0.08901,-0.06109,0.00000,0.00000,0.00000,58,22,29,2,65,22,25,10,ok,2,0,0.003,11,-0.16,0.56,9.46,62,0.101,8.20
11.0976,0.02443,0.08901,-0.06109,0.00000,0.00000,0.00000,60,18,30,1,64,23,27,9,ok,2,0,0.003,11,-0.16,0.56,9.46,62,0.113,8.20
11.1201,0.02443,0.08901,-0.06109,0.00000,0.00000,0.00000,60,13,32,2,64,25,28,10,ok,2,0,0.003,11,-0.16,0.56,9.46,62,0.126,8.20
11.1232,0.02443,0.08901,-0.06109,0.00000,0.00000,0.00000,60,11,33,2,65,25,29,9,ok,2,0,0.003,11,-0.16,0.56,9.46,62,0.139,8.20
11.1358,0.02443,0.08901,-0.06109,0.00000,0.00000,0.00000,60,10,35,2,64,28,30,9,ok,2,0,0.003,11,-0.16,0.56,9.46,62,0.152,8.20
11.1560,0.02443,0.08901,-0.06109,0.00000,0.00000,0.00000,60,7,36,2,64,29,32,9,ok,2,0,0.003,11,-0.16,0.56,9.46,62,0.164,8.20
11.1609,0.02443,0.08901,-0.06109,0.00000,0.00000,0.00000,60,4,38,3,64,30,33,9,ok,2,0,0.003,11,-0.16,0.56,9.46,62,0.177,8.20
11.1734,0.02443,0.08901,-0.06109,0.00000,0.00000,0.00000,59,1,39,3,65,32,35,9,ok,2,0,0.003,11,-0.16,0.56,9.46,62,0.189,8.20
11.1961,-0.09599,0.02094,-0.02094,0.00000,0.00000,0.00000,58,-1,41,3,64,34,36,8,ok,2,0,0.003,11,-0.44,-0.18,7.69,63,0.000,8.20
11.1993,-0.09599,0.02094,-0.02094,0.00000,0.00000,0.00000,58,-3,42,2,64,34,37,9,ok,2,0,0.003,11,-0.44,-0.18,7.69,63,0.013,8.20
11.2119,-0.09599,0.02094,-0.02094,0.00000,0.00000,0.00000,58,-4,44,3,65,35,39,8,ok,2,0,0.003,11,-0.44,-0.18,7.69,63,0.026,8.20
11.2320,-0.09599,0.02094,-0.02094,0.00000,0.00000,0.00000,56,-6,44,3,66,35,40,8,ok,2,0,0.003,11,-0.44,-0.18,7.69,63,0.039,8.20
11.2370,-0.09599,0.02094,-0.02094,0.00000,0.00000,0.00000,56,-7,45,3,67,33,41,7,ok,2,0,0.003,11,-0.44,-0.18,7.69,63,0.051,8.20
11.2496,-0.09599,0.02094,-0.02094,0.00000,0.00000,0.00000,56,-9,46,3,69,28,43,7,ok,2,0,0.003,11,-0.44,-0.18,7.69,63,0.064,8.20
11.2720,-0.09599,0.02094,-0.02094,0.00000,0.00000,0.00000,54,-10,48,4,71,24,44,7,ok,2,0,0.003,11,-0.44,-0.18,7.69,63,0.076,8.20
11.2752,-0.09599,0.02094,-0.02094,0.00000,0.00000,0.00000,54,-11,49,4,73,21,44,7,ok,2,0,0.003,11,-0.44,-0.18,7.69,63,0.089,8.20
11.2878,-0.09599,0.02094,-0.02094,0.00000,0.00000,0.00000,52,-11,49,4,74,20,45,8,ok,2,0,0.003,11,-0.44,-0.18,7.69,63,0.102,8.20
11.3080,-0.09599,0.02094,-0.02094,0.00000,0.00000,0.00000,51,-12,49,6,74,18,46,8,ok,2,0,0.003,11,-0.44,-0.18,7.69,63,0.115,8.20
11.3131,-0.09599,0.02094,-0.02094,0.00000,0.00000,0.00000,50,-12,51,6,74,14,47,8,ok,2,0,0.003,11,-0.44,-0.18,7.69,63,0.127,8.20
11.3255,-0.09599,0.02094,-0.02094,0.00000,0.00000,0.00000,48,-11,52,6,73,11,48,8,ok,2,0,0.003,11,-0.44,-0.18,7.69,63,0.139,8.20
11.3481,-0.09599,0.02094,-0.02094,0.00000,0.00000,0.00000,48,-10,53,6,73,9,49,8,ok,2,0,0.003,11,-0.44,-0.18,7.69,63,0.152,8.20
11.3512,-0.09599,0.02094,-0.02094,0.00000,0.00000,0.00000,46,-10,53,7,72,6,49,9,ok,2,0,0.003,11,-0.44,-0.18,7.69,63,0.165,8.20
11.3639,-0.09599,0.02094,-0.02094,0.00000,0.00000,0.00000,44,-11,55,7,72,4,50,8,ok,2,0,0.003,11,-0.44,-0.18,7.69,63,0.178,8.20
11.3841,-0.09599,0.02094,-0.02094,0.00000,0.00000,0.00000,44,-10,56,7,71,3,51,9,ok,2,0,0.003,11,-0.44,-0.18,7.69,63,0.190,8.20
11.3892,0.00873,-0.00698,-0.01396,0.00000,0.00000,0.00000,42,-8,57,7,69,1,52,8,ok,2,0,0.003,11,-1.00,0.80,9.53,64,0.000,8.20
11.4014,0.00873,-0.00698,-0.01396,0.00000,0.00000,0.00000,40,-7,57,8,66,2,52,9,ok,2,0,0.003,11,-1.00,0.80,9.53,64,0.013,8.20
11.4240,0.00873,-0.00698,-0.01396,0.00000,0.00000,0.00000,38,-5,57,7,65,-1,52,9,ok,2,0,0.003,11,-1.00,0.80,9.53,64,0.025,8.20
11.4272,0.00873,-0.00698,-0.01396,0.00000,0.00000,0.00000,37,-3,58,8,64,-2,54,9,ok,2,0,0.003,11,-1.00,0.80,9.53,64,0.038,8.20
11.4399,0.00873,-0.00698,-0.01396,0.00000,0.00000,0.00000,35,-1,59,9,62,-4,54,9,ok,2,0,0.003,11,-1.00,0.80,9.53,64,0.051,8.20
11.4600,0.00873,-0.00698,-0.01396,0.00000,0.00000,0.00000,35,-1,60,10,61,-5,54,8,ok,2,0,0.003,11,-1.00,0.80,9.53,64,0.063,8.20
11.4649,0.00873,-0.00698,-0.01396,0.00000,0.00000,0.00000,34,1,61,10,59,-6,56,6,ok,2,0,0.003,11,-1.00,0.80,9.53,64,0.076,8.20
11.4774,0.00873,-0.00698,-0.01396,0.00000,0.00000,0.00000,34,3,61,10,56,-7,57,7,ok,2,0,0.003,11,-1.00,0.80,9.53,64,0.088,8.20
11.5002,0.00873,-0.00698,-0.01396,0.00000,0.00000,0.00000,32,6,61,10,54,-7,58,8,ok,2,0,0.003,11,-1.00,0.80,9.53,64,0.101,8.20
11.5040,0.00873,-0.00698,-0.01396,0.00000,0.00000,0.00000,32,9,61,11,51,-7,58,8,ok,2,0,0.003,11,-1.00,0.80,9.53,64,0.115,8.20
11.5161,0.00873,-0.00698,-0.01396,0.00000,0.00000,0.00000,32,11,61,11,48,-6,59,9,ok,2,0,0.003,11,-1.00,0.80,9.53,64,0.127,8.20
11.5361,0.00873,-0.00698,-0.01396,0.00000,0.00000,0.00000,32,11,62,12,46,-6,60,10,ok,2,0,0.003,11,-1.00,0.80,9.53,64,0.140,8.20
11.5411,0.00873,-0.00698,-0.01396,0.00000,0.00000,0.00000,32,11,61,13,43,-5,59,10,ok,2,0,0.003,11,-1.00,0.80,9.53,64,0.152,8.20
11.5538,0.00873,-0.00698,-0.01396,0.00000,0.00000,0.00000,33,10,62,14,40,-5,60,11,ok,2,0,0.003,11,-1.00,0.80,9.53,64,0.165,8.20
11.5761,0.00873,-0.00698,-0.01396,0.00000,0.00000,0.00000,34,9,62,14,37,-4,60,12,ok,2,0,0.003,11,-1.00,0.80,9.53,64,0.177,8.20
11.5793,0.00873,-0.00698,-0.01396,0.00000,0.00000,0.00000,34,8,62,15,35,-3,61,13,ok,2,0,0.003,11,-1.00,0.80,9.53,64,0.190,8.20
11.5921,0.00873,-0.00698,-0.01396,0.00000,0.00000,0.00000,36,7,63,16,31,-2,61,13,ok,2,0,0.003,11,-1.00,0.80,9.53,64,0.203,8.20
11.6120,-0.06981,0.02269,-0.00698,0.00000,0.00000,0.00000,36,7,63,17,30,0,62,14,ok,2,0,0.003,11,1.03,-1.46,13.67,65,0.000,8.20
11.6169,-0.06981,0.02269,-0.00698,0.00000,0.00000,0.00000,36,6,64,18,27,1,62,15,ok,2,0,0.003,11,1.03,-1.46,13.67,65,0.012,8.20
11.6294,-0.06981,0.02269,-0.00698,0.00000,0.00000,0.00000,37,5,64,20,25,4,63,15,ok,2,0,0.003,11,1.03,-1.46,13.67,65,0.025,8.20
11.6521,-0.06981,0.02269,-0.00698,0.00000,0.00000,0.00000,38,4,64,21,24,7,63,17,ok,2,0,0.003,11,1.03,-1.46,13.67,65,0.038,8.20
11.6553,-0.06981,0.02269,-0.00698,0.00000,0.00000,0.00000,38,4,64,22,23,10,63,18,ok,2,0,0.003,11,1.03,-1.46,13.67,65,0.051,8.20
11.6679,-0.06981,0.02269,-0.00698,0.00000,0.00000,0.00000,38,3,64,23,22,13,64,18,ok,2,0,0.003,11,1.03,-1.46,13.67,65,0.064,8.20
11.6881,-0.06981,0.02269,-0.00698,0.00000,0.00000,0.00000,39,3,63,26,24,13,64,19,ok,2,0,0.003,11,1.03,-1.46,13.67,65,0.076,8.20
11.6928,-0.06981,0.02269,-0.00698,0.00000,0.00000,0.00000,40,2,63,28,24,13,64,20,ok,2,0,0.003,11,1.03,-1.46,13.67,65,0.088,8.20
11.7054,-0.06981,0.02269,-0.00698,0.00000,0.00000,0.00000,40,2,64,26,25,11,64,21,ok,2,0,0.003,12,1.03,-1.46,13.67,65,0.101,8.20
11.7281,-0.06981,0.02269,-0.00698,0.00000,0.00000,0.00000,40,1,67,23,27,10,65,22,ok,2,0,0.003,12,1.03,-1.46,13.67,65,0.113,8.20
11.7314,-0.06981,0.02269,-0.00698,0.00000,0.00000,0.00000,41,1,69,19,28,10,65,23,ok,2,0,0.003,12,1.03,-1.46,13.67,65,0.127,8.20
11.7439,-0.06981,0.02269,-0.00698,0.00000,0.00000,0.00000,42,1,70,15,29,10,64,24,ok,2,0,0.003,12,1.03,-1.46,13.67,65,0.140,8.20
11.7640,-0.06981,0.02269,-0.00698,0.00000,0.00000,0.00000,42,1,70,12,30,9,64,26,ok,2,0,0.003,12,1.03,-1.46,13.67,65,0.152,8.20
11.7689,-0.06981,0.02269,-0.00698,0.00000,0.00000,0.00000,44,1,70,12,33,9,65,27,ok,2,0,0.003,12,1.03,-1.46,13.67,65,0.164,8.20
11.7814,-0.06981,0.02269,-0.00698,0.00000,0.00000,0.00000,44,1,70,8,33,9,64,29,ok,2,0,0.003,12,1.03,-1.46,13.67,65,0.177,8.20
11.8041,-0.06981,0.02269,-0.00698,0.00000,0.00000,0.00000,45,2,69,6,35,9,64,30,ok,2,0,0.003,12,1.03,-1.46,13.67,65,0.190,8.20
11.8076,-0.15359,-0.02094,0.02443,0.00000,0.00000,0.00000,46,2,69,3,36,8,64,31,ok,2,0,0.003,12,-0.09,-1.78,10.15,66,0.000,8.20
11.8199,-0.15359,-0.02094,0.02443,0.00000,0.00000,0.00000,46,2,67,0,37,8,64,33,ok,2,0,0.003,12,-0.09,-1.78,10.15,66,0.013,8.20
11.8400,-0.15359,-0.02094,0.02443,0.00000,0.00000,0.00000,47,2,66,-2,39,7,64,35,ok,2,0,0.003,12,-0.09,-1.78,10.15,66,0.025,8.20
11.8449,-0.15359,-0.02094,0.02443,0.00000,0.00000,0.00000,48,2,64,-3,39,7,64,36,ok,2,0,0.003,12,-0.09,-1.78,10.15,66,0.038,8.20
11.8574,-0.15359,-0.02094,0.02443,0.00000,0.00000,0.00000,48,2,62,-4,40,6,65,36,ok,2,0,0.003,12,-0.09,-1.78,10.15,66,0.050,8.20
11.8800,-0.15359,-0.02094,0.02443,0.00000,0.00000,0.00000,48,2,61,-5,42,6,66,35,ok,2,0,0.003,12,-0.09,-1.78,10.15,66,0.063,8.20
11.8833,-0.15359,-0.02094,0.02443,0.00000,0.00000,0.00000,49,2,60,-7,43,7,68,33,ok,2,0,0.003,12,-0.09,-1.78,10.15,66,0.076,8.20
11.8959,-0.15359,-0.02094,0.02443,0.00000,0.00000,0.00000,50,3,58,-8,44,7,69,28,ok,2,0,0.003,12,-0.09,-1.78,10.15,66,0.089,8.20
11.9160,-0.15359,-0.02094,0.02443,0.00000,0.00000,0.00000,50,3,56,-9,45,7,70,24,ok,2,0,0.003,12,-0.09,-1.78,10.15,66,0.101,8.20
11.9209,-0.15359,-0.02094,0.02443,0.00000,0.00000,0.00000,50,3,53,-9,46,7,72,21,ok,2,0,0.003,12,-0.09,-1.78,10.15,66,0.114,8.20
11.9334,-0.15359,-0.02094,0.02443,0.00000,0.00000,0.00000,50,5,51,-10,47,7,72,21,ok,2,0,0.003,12,-0.09,-1.78,10.15,66,0.126,8.20
11.9561,-0.15359,-0.02094,0.02443,0.00000,0.00000,0.00000,51,6,49,-10,47,7,72,19,ok,2,0,0.003,12,-0.09,-1.78,10.15,66,0.139,8.20
11.9593,-0.15359,-0.02094,0.02443,0.00000,0.00000,0.00000,52,6,46,-10,48,7,72,15,ok,2,0,0.003,12,-0.09,-1.78,10.15,66,0.152,8.20
11.9720,-0.15359,-0.02094,0.02443,0.00000,0.00000,0.00000,52,7,44,-10,49,7,72,13,ok,2,0,0.003,12,-0.09,-1.78,10.15,66,0.165,8.20
11.9921,-0.15359,-0.02094,0.02443,0.00000,0.00000,0.00000,52,7,42,-10,50,7,71,11,ok,2,0,0.003,12,-0.09,-1.78,10.15,66,0.177,8.20
11.9968,-0.15359,-0.02094,0.02443,0.00000,0.00000,0.00000,54,7,39,-10,51,7,71,8,ok,2,0,0.003,12,-0.09,-1.78,10.15,66,0.190,8.20
12.0098,-0.01920,-0.02269,0.03840,0.00000,0.00000,0.00000,54,7,37,-9,52,6,70,6,ok,2,0,0.003,12,-0.43,0.42,10.26,67,0.000,8.20
12.0360,-0.01920,-0.02269,0.03840,0.00000,0.00000,0.00000,54,8,33,-9,52,7,69,4,ok,2,0,0.003,12,-0.43,0.42,10.26,67,0.013,8.20
12.0394,-0.01920,-0.02269,0.03840,0.00000,0.00000,0.00000,54,8,31,-8,53,8,67,2,ok,2,0,0.003,12,-0.43,0.42,10.26,67,0.030,8.20
12.0518,-0.01920,-0.02269,0.03840,0.00000,0.00000,0.00000,54,9,27,-7,54,8,65,2,ok,2,0,0.003,12,-0.43,0.42,10.26,67,0.043,8.20
12.0720,-0.01920,-0.02269,0.03840,0.00000,0.00000,0.00000,54,10,25,-5,55,8,64,0,ok,2,0,0.003,12,-0.43,0.42,10.26,67,0.055,8.20
12.0769,-0.01920,-0.02269,0.03840,0.00000,0.00000,0.00000,55,11,21,-3,56,8,63,-2,ok,2,0,0.003,12,-0.43,0.42,10.26,67,0.068,8.20
12.0895,-0.01920,-0.02269,0.03840,0.00000,0.00000,0.00000,56,11,19,-1,58,6,61,-3,ok,2,0,0.003,12,-0.43,0.42,10.26,67,0.080,8.20
12.1121,-0.01920,-0.02269,0.03840,0.00000,0.00000,0.00000,56,11,18,0,58,7,59,-4,ok,2,0,0.003,12,-0.43,0.42,10.26,67,0.093,8.20
12.1154,-0.01920,-0.02269,0.03840,0.00000,0.00000,0.00000,56,12,16,2,59,8,57,-5,ok,2,0,0.003,12,-0.43,0.42,10.26,67,0.106,8.20
12.1279,-0.01920,-0.02269,0.03840,0.00000,0.00000,0.00000,56,12,15,5,59,8,55,-6,ok,2,0,0.003,12,-0.43,0.42,10.26,67,0.119,8.20
12.1480,-0.01920,-0.02269,0.03840,0.00000,0.00000,0.00000,56,13,13,9,59,9,53,-6,ok,2,0,0.003,12,-0.43,0.42,10.26,67,0.131,8.20
12.1529,-0.01920,-0.02269,0.03840,0.00000,0.00000,0.00000,56,12,13,11,60,9,50,-5,ok,2,0,0.003,12,-0.43,0.42,10.26,67,0.143,8.20
12.1654,-0.01920,-0.02269,0.03840,0.00000,0.00000,0.00000,56,13,15,12,60,10,47,-5,ok,2,0,0.003,12,-0.43,0.42,10.26,67,0.156,8.20
12.1880,-0.01920,-0.02269,0.03840,0.00000,0.00000,0.00000,56,13,15,12,61,10,45,-5,ok,2,0,0.003,12,-0.43,0.42,10.26,67,0.169,8.20
