# run_gait log  cmd_fwd=0.100 hz=80.0 fw_balance=off policy_yaw_sign=-1
t,roll,pitch,yaw,gx,gy,gz,j0,j1,j2,j3,j4,j5,j6,j7,guard_state,hottest_j,hottest_tier,hottest_frac,duty_s,ax,ay,az,imu_n,imu_age_s,volt
0.0421,0.00698,0.00698,0.00000,0.00000,0.00000,0.00000,22,0,57,10,60,-3,54,8,ok,3,0,0.000,0,0.07,0.07,10.00,2,0.000,nan
0.0474,0.00698,0.00698,0.00000,0.00000,0.00000,0.00000,19,1,59,10,59,-4,56,6,ok,0,0,0.000,0,0.07,0.07,10.00,2,0.027,nan
0.0603,0.00698,0.00698,0.00000,0.00000,0.00000,0.00000,17,4,59,11,56,-5,56,8,ok,0,0,0.000,0,0.07,0.07,10.00,2,0.040,8.33
0.0820,0.00698,0.00698,0.00000,0.00000,0.00000,0.00000,15,7,60,12,55,-6,56,8,ok,0,0,0.000,0,0.07,0.07,10.00,2,0.052,8.33
0.0860,0.00698,0.00698,0.00000,0.00000,0.00000,0.00000,14,10,60,13,52,-5,57,9,ok,4,0,0.000,0,0.07,0.07,10.00,2,0.067,8.33
0.0984,0.00698,0.00698,0.00000,0.00000,0.00000,0.00000,12,12,60,13,50,-5,58,10,ok,4,0,0.000,0,0.07,0.07,10.00,2,0.079,8.33
0.1220,0.00698,0.00698,0.00000,0.00000,0.00000,0.00000,14,13,60,14,47,-5,59,10,ok,4,0,0.000,0,0.07,0.07,10.00,2,0.092,8.33
0.1260,0.00698,0.00698,0.00000,0.00000,0.00000,0.00000,14,13,60,15,44,-4,59,11,ok,4,0,0.000,0,0.07,0.07,10.00,2,0.107,8.33
0.1385,0.00698,0.00698,0.00000,0.00000,0.00000,0.00000,16,12,61,15,42,-4,60,12,ok,4,0,0.000,0,0.07,0.07,10.00,2,0.119,8.33
0.1620,0.00698,0.00698,0.00000,0.00000,0.00000,0.00000,17,11,61,16,39,-3,60,12,ok,4,0,0.000,0,0.07,0.07,10.00,2,0.132,8.33
0.1658,0.00698,0.00698,0.00000,0.00000,0.00000,0.00000,17,11,61,17,36,-2,61,13,ok,4,0,0.000,0,0.07,0.07,10.00,2,0.147,8.33
0.1780,0.00698,0.00698,0.00000,0.00000,0.00000,0.00000,19,9,61,17,32,-1,61,14,ok,4,0,0.000,0,0.07,0.07,10.00,2,0.159,8.33
0.1979,0.00698,0.00698,0.00000,0.00000,0.00000,0.00000,19,9,61,19,30,1,62,15,ok,4,0,0.000,0,0.07,0.07,10.00,2,0.172,8.33
0.2030,-0.02618,-0.09425,-0.01396,0.00000,0.00000,0.00000,22,8,62,20,27,2,62,16,ok,4,0,0.000,0,-1.21,0.43,9.39,3,0.000,8.33
0.2155,-0.02618,-0.09425,-0.01396,0.00000,0.00000,0.00000,23,7,62,21,25,5,63,16,ok,4,0,0.000,0,-1.21,0.43,9.39,3,0.013,8.33
0.2379,-0.02618,-0.09425,-0.01396,0.00000,0.00000,0.00000,24,6,62,21,23,8,64,17,ok,4,0,0.000,0,-1.21,0.43,9.39,3,0.025,8.33
0.2410,-0.02618,-0.09425,-0.01396,0.00000,0.00000,0.00000,25,6,62,22,22,11,64,18,ok,4,0,0.000,0,-1.21,0.43,9.39,3,0.038,8.33
0.2535,-0.02618,-0.09425,-0.01396,0.00000,0.00000,0.00000,26,6,62,23,21,14,65,18,ok,4,0,0.000,0,-1.21,0.43,9.39,3,0.051,8.33
0.2739,-0.02618,-0.09425,-0.01396,0.00000,0.00000,0.00000,28,5,61,26,22,14,65,19,ok,4,0,0.000,0,-1.21,0.43,9.39,3,0.063,8.33
0.2786,-0.02618,-0.09425,-0.01396,0.00000,0.00000,0.00000,29,5,62,28,22,14,65,20,ok,4,0,0.000,0,-1.21,0.43,9.39,3,0.076,8.33
0.2912,-0.02618,-0.09425,-0.01396,0.00000,0.00000,0.00000,30,5,64,27,23,12,65,21,ok,4,0,0.000,0,-1.21,0.43,9.39,3,0.088,8.33
0.3139,-0.02618,-0.09425,-0.01396,0.00000,0.00000,0.00000,31,4,67,23,25,11,66,23,ok,4,0,0.000,0,-1.21,0.43,9.39,3,0.101,8.33
0.3170,-0.02618,-0.09425,-0.01396,0.00000,0.00000,0.00000,33,4,69,20,26,11,66,24,ok,4,0,0.000,0,-1.21,0.43,9.39,3,0.114,8.33
0.3295,-0.02618,-0.09425,-0.01396,0.00000,0.00000,0.00000,34,4,70,16,27,11,65,25,ok,4,0,0.000,0,-1.21,0.43,9.39,3,0.127,8.33
0.3499,-0.02618,-0.09425,-0.01396,0.00000,0.00000,0.00000,35,4,71,14,28,10,65,27,ok,4,0,0.000,0,-1.21,0.43,9.39,3,0.139,8.33
0.3546,-0.02618,-0.09425,-0.01396,0.00000,0.00000,0.00000,37,3,71,13,30,10,65,28,ok,4,0,0.000,0,-1.21,0.43,9.39,3,0.152,8.33
0.3672,-0.02618,-0.09425,-0.01396,0.00000,0.00000,0.00000,38,3,71,10,30,10,64,30,ok,4,0,0.000,0,-1.21,0.43,9.39,3,0.164,8.33
0.3899,-0.02618,-0.09425,-0.01396,0.00000,0.00000,0.00000,40,4,71,7,32,10,64,31,ok,4,0,0.000,0,-1.21,0.43,9.39,3,0.177,8.33
0.3932,-0.02618,-0.09425,-0.01396,0.00000,0.00000,0.00000,41,4,70,4,34,9,65,32,ok,4,0,0.000,0,-1.21,0.43,9.39,3,0.190,8.33
0.4059,-0.09425,0.02618,0.02269,0.00000,0.00000,0.00000,43,3,69,1,35,9,64,33,ok,4,0,0.000,0,1.59,-0.32,9.98,4,0.000,8.33
0.4259,-0.09425,0.02618,0.02269,0.00000,0.00000,0.00000,44,3,68,0,36,8,64,35,ok,4,0,0.000,0,1.59,-0.32,9.98,4,0.013,8.33
0.4306,-0.09425,0.02618,0.02269,0.00000,0.00000,0.00000,46,3,67,-1,37,8,64,36,ok,4,0,0.000,0,1.59,-0.32,9.98,4,0.025,8.33
0.4432,-0.09425,0.02618,0.02269,0.00000,0.00000,0.00000,46,3,65,-2,39,7,65,36,ok,4,0,0.000,0,1.59,-0.32,9.98,4,0.038,8.33
0.4659,-0.09425,0.02618,0.02269,0.00000,0.00000,0.00000,48,3,63,-4,41,6,66,34,ok,4,0,0.000,0,1.59,-0.32,9.98,4,0.050,8.33
0.4690,-0.09425,0.02618,0.02269,0.00000,0.00000,0.00000,48,3,62,-6,42,6,67,32,ok,4,0,0.000,0,1.59,-0.32,9.98,4,0.063,8.33
0.4817,-0.09425,0.02618,0.02269,0.00000,0.00000,0.00000,50,4,59,-7,43,6,70,27,ok,4,0,0.000,0,1.59,-0.32,9.98,4,0.076,8.33
0.5019,-0.09425,0.02618,0.02269,0.00000,0.00000,0.00000,51,3,56,-8,44,6,71,23,ok,4,0,0.000,0,1.59,-0.32,9.98,4,0.088,8.33
0.5068,-0.09425,0.02618,0.02269,0.00000,0.00000,0.00000,52,3,54,-9,46,7,73,20,ok,4,0,0.000,0,1.59,-0.32,9.98,4,0.101,8.33
0.5192,-0.09425,0.02618,0.02269,0.00000,0.00000,0.00000,52,5,52,-10,47,7,73,20,ok,4,0,0.000,0,1.59,-0.32,9.98,4,0.113,8.33
0.5419,-0.09425,0.02618,0.02269,0.00000,0.00000,0.00000,53,5,49,-10,48,7,73,17,ok,4,0,0.000,1,1.59,-0.32,9.98,4,0.126,8.33
0.5450,-0.09425,0.02618,0.02269,0.00000,0.00000,0.00000,54,5,47,-10,49,7,73,14,ok,4,0,0.000,1,1.59,-0.32,9.98,4,0.139,8.33
0.5576,-0.09425,0.02618,0.02269,0.00000,0.00000,0.00000,54,6,45,-10,50,7,73,11,ok,4,0,0.000,1,1.59,-0.32,9.98,4,0.152,8.33
0.5781,-0.09425,0.02618,0.02269,0.00000,0.00000,0.00000,55,7,42,-10,51,7,72,9,ok,4,0,0.000,1,1.59,-0.32,9.98,4,0.164,8.33
0.5827,-0.09425,0.02618,0.02269,0.00000,0.00000,0.00000,57,7,39,-11,52,7,72,6,ok,4,0,0.000,1,1.59,-0.32,9.98,4,0.177,8.33
0.5954,-0.09425,0.02618,0.02269,0.00000,0.00000,0.00000,57,7,37,-10,53,6,72,4,ok,4,0,0.000,1,1.59,-0.32,9.98,4,0.189,8.33
0.6179,-0.06632,-0.03840,0.06109,0.00000,0.00000,0.00000,58,7,33,-9,53,7,70,2,ok,4,0,0.000,1,-0.57,-0.68,9.24,5,0.000,8.33
0.6210,-0.06632,-0.03840,0.06109,0.00000,0.00000,0.00000,58,8,31,-8,54,7,69,0,ok,4,0,0.000,1,-0.57,-0.68,9.24,5,0.013,8.33
0.6338,-0.06632,-0.03840,0.06109,0.00000,0.00000,0.00000,59,8,27,-7,54,8,66,0,ok,4,0,0.000,1,-0.57,-0.68,9.24,5,0.026,8.33
0.6539,-0.06632,-0.03840,0.06109,0.00000,0.00000,0.00000,59,9,24,-5,55,8,65,-2,ok,2,0,0.000,1,-0.57,-0.68,9.24,5,0.039,8.33
0.6586,-0.06632,-0.03840,0.06109,0.00000,0.00000,0.00000,60,10,20,-2,56,9,64,-3,ok,2,0,0.000,1,-0.57,-0.68,9.24,5,0.051,8.33
0.6712,-0.06632,-0.03840,0.06109,0.00000,0.00000,0.00000,61,10,19,-1,58,7,62,-5,ok,2,0,0.000,1,-0.57,-0.68,9.24,5,0.064,8.33
0.6939,-0.06632,-0.03840,0.06109,0.00000,0.00000,0.00000,61,10,18,0,58,8,60,-5,ok,2,0,0.000,1,-0.57,-0.68,9.24,5,0.076,8.33
0.6972,-0.06632,-0.03840,0.06109,0.00000,0.00000,0.00000,62,11,16,3,59,9,58,-6,ok,2,0,0.000,1,-0.57,-0.68,9.24,5,0.089,8.33
0.7096,-0.06632,-0.03840,0.06109,0.00000,0.00000,0.00000,62,11,15,6,59,9,55,-6,ok,2,0,0.000,1,-0.57,-0.68,9.24,5,0.102,8.33
0.7299,-0.06632,-0.03840,0.06109,0.00000,0.00000,0.00000,62,12,13,9,59,10,54,-7,ok,2,0,0.000,1,-0.57,-0.68,9.24,5,0.115,8.33
0.7347,-0.06632,-0.03840,0.06109,0.00000,0.00000,0.00000,63,12,12,11,60,10,50,-6,ok,2,0,0.000,1,-0.57,-0.68,9.24,5,0.127,8.33
0.7472,-0.06632,-0.03840,0.06109,0.00000,0.00000,0.00000,63,13,14,12,60,10,48,-6,ok,2,0,0.000,1,-0.57,-0.68,9.24,5,0.140,8.33
0.7699,-0.06632,-0.03840,0.06109,0.00000,0.00000,0.00000,62,14,15,12,60,11,45,-6,ok,2,0,0.000,1,-0.57,-0.68,9.24,5,0.152,8.33
0.7730,-0.06632,-0.03840,0.06109,0.00000,0.00000,0.00000,63,14,17,10,61,11,42,-5,ok,2,0,0.000,1,-0.57,-0.68,9.24,5,0.165,8.33
0.7858,-0.06632,-0.03840,0.06109,0.00000,0.00000,0.00000,63,15,19,9,61,12,40,-4,ok,2,0,0.000,1,-0.57,-0.68,9.24,5,0.178,8.33
0.8059,-0.06981,0.10996,0.07679,0.00000,0.00000,0.00000,64,16,20,9,61,13,37,-3,ok,2,0,0.000,1,0.76,-1.18,9.39,6,0.000,8.33
0.8106,-0.06981,0.10996,0.07679,0.00000,0.00000,0.00000,64,17,21,8,61,13,35,-3,ok,2,0,0.000,1,0.76,-1.18,9.39,6,0.012,8.33
0.8232,-0.06981,0.10996,0.07679,0.00000,0.00000,0.00000,64,18,22,7,61,14,31,-1,ok,2,0,0.000,1,0.76,-1.18,9.39,6,0.025,8.33
0.8459,-0.06981,0.10996,0.07679,0.00000,0.00000,0.00000,65,19,23,6,62,14,29,0,ok,2,0,0.000,1,0.76,-1.18,9.39,6,0.038,8.33
0.8490,-0.06981,0.10996,0.07679,0.00000,0.00000,0.00000,65,20,24,5,62,15,27,1,ok,2,0,0.000,1,0.76,-1.18,9.39,6,0.051,8.33
0.8619,-0.06981,0.10996,0.07679,0.00000,0.00000,0.00000,65,21,24,5,62,16,25,5,ok,2,0,0.000,1,0.76,-1.18,9.39,6,0.064,8.33
0.8819,-0.06981,0.10996,0.07679,0.00000,0.00000,0.00000,65,22,25,4,63,17,24,7,ok,2,0,0.000,1,0.76,-1.18,9.39,6,0.076,8.33
0.8866,-0.06981,0.10996,0.07679,0.00000,0.00000,0.00000,65,22,25,3,64,17,23,11,ok,2,0,0.000,1,0.76,-1.18,9.39,6,0.088,8.33
0.8992,-0.06981,0.10996,0.07679,0.00000,0.00000,0.00000,64,25,26,3,64,19,23,13,ok,2,0,0.000,1,0.76,-1.18,9.39,6,0.101,8.33
0.9219,-0.06981,0.10996,0.07679,0.00000,0.00000,0.00000,64,26,27,2,64,20,25,12,ok,2,0,0.000,1,0.76,-1.18,9.39,6,0.114,8.33
0.9250,-0.06981,0.10996,0.07679,0.00000,0.00000,0.00000,65,25,28,2,64,21,25,11,ok,2,0,0.000,1,0.76,-1.18,9.39,6,0.127,8.33
0.9375,-0.06981,0.10996,0.07679,0.00000,0.00000,0.00000,67,21,29,2,65,22,26,10,ok,2,0,0.000,1,0.76,-1.18,9.39,6,0.139,8.33
0.9579,-0.06981,0.10996,0.07679,0.00000,0.00000,0.00000,69,17,31,1,64,23,27,9,ok,2,0,0.000,1,0.76,-1.18,9.39,6,0.152,8.33
0.9626,-0.06981,0.10996,0.07679,0.00000,0.00000,0.00000,70,13,32,2,64,25,28,10,ok,2,0,0.000,1,0.76,-1.18,9.39,6,0.164,8.33
0.9752,-0.06981,0.10996,0.07679,0.00000,0.00000,0.00000,70,11,33,2,65,25,30,9,ok,2,0,0.000,1,0.76,-1.18,9.39,6,0.177,8.33
0.9979,-0.06981,0.10996,0.07679,0.00000,0.00000,0.00000,70,10,35,2,64,27,31,8,ok,2,0,0.000,1,0.76,-1.18,9.39,6,0.189,8.33
1.0013,0.05411,0.04887,0.18675,0.00000,0.00000,0.00000,70,7,36,2,64,29,33,8,ok,2,0,0.000,1,1.01,0.82,12.07,7,0.000,8.33
1.0136,0.05411,0.04887,0.18675,0.00000,0.00000,0.00000,69,5,38,2,65,31,33,8,ok,2,0,0.000,1,1.01,0.82,12.07,7,0.013,8.33
1.0339,0.05411,0.04887,0.18675,0.00000,0.00000,0.00000,68,2,39,2,65,32,35,8,ok,2,0,0.000,1,1.01,0.82,12.07,7,0.025,8.33
1.0386,0.05411,0.04887,0.18675,0.00000,0.00000,0.00000,67,0,41,2,64,34,36,8,ok,2,0,0.000,1,1.01,0.82,12.07,7,0.038,8.33
1.0512,0.05411,0.04887,0.18675,0.00000,0.00000,0.00000,66,-2,42,1,64,35,37,8,ok,2,0,0.000,1,1.01,0.82,12.07,7,0.050,8.33
1.0739,0.05411,0.04887,0.18675,0.00000,0.00000,0.00000,65,-3,44,2,65,36,38,7,ok,2,0,0.000,1,1.01,0.82,12.07,7,0.063,8.33
1.0770,0.05411,0.04887,0.18675,0.00000,0.00000,0.00000,63,-4,44,1,66,35,39,7,ok,2,0,0.000,1,1.01,0.82,12.07,7,0.076,8.33
1.0896,0.05411,0.04887,0.18675,0.00000,0.00000,0.00000,62,-5,45,2,67,33,41,6,ok,2,0,0.000,1,1.01,0.82,12.07,7,0.089,8.33
1.1099,0.05411,0.04887,0.18675,0.00000,0.00000,0.00000,61,-7,47,2,69,29,42,6,ok,2,0,0.000,1,1.01,0.82,12.07,7,0.101,8.33
1.1146,0.05411,0.04887,0.18675,0.00000,0.00000,0.00000,59,-8,48,3,71,24,43,6,ok,2,0,0.000,1,1.01,0.82,12.07,7,0.114,8.33
1.1272,0.05411,0.04887,0.18675,0.00000,0.00000,0.00000,56,-9,49,3,73,22,44,6,ok,2,0,0.000,1,1.01,0.82,12.07,7,0.126,8.33
1.1499,0.05411,0.04887,0.18675,0.00000,0.00000,0.00000,54,-10,50,3,74,21,45,7,ok,2,0,0.000,1,1.01,0.82,12.07,7,0.139,8.33
1.1530,0.05411,0.04887,0.18675,0.00000,0.00000,0.00000,52,-11,50,6,73,19,46,7,ok,2,0,0.000,1,1.01,0.82,12.07,7,0.152,8.33
1.1655,0.05411,0.04887,0.18675,0.00000,0.00000,0.00000,49,-11,51,6,73,15,47,7,ok,2,0,0.000,1,1.01,0.82,12.07,7,0.165,8.33
1.1859,0.05411,0.04887,0.18675,0.00000,0.00000,0.00000,46,-11,52,6,73,12,48,7,ok,2,0,0.000,1,1.01,0.82,12.07,7,0.177,8.33
1.1906,0.05411,0.04887,0.18675,0.00000,0.00000,0.00000,44,-11,53,6,72,10,49,7,ok,2,0,0.000,1,1.01,0.82,12.07,7,0.190,8.33
1.2034,0.09774,-0.02793,0.18326,0.00000,0.00000,0.00000,41,-11,53,7,72,7,49,8,ok,2,0,0.000,1,-0.43,1.25,10.44,8,0.000,8.33
1.2259,0.09774,-0.02793,0.18326,0.00000,0.00000,0.00000,38,-11,56,7,72,6,50,7,ok,2,0,0.000,1,-0.43,1.25,10.44,8,0.013,8.33
1.2290,0.09774,-0.02793,0.18326,0.00000,0.00000,0.00000,36,-10,56,7,71,4,51,8,ok,2,0,0.000,1,-0.43,1.25,10.44,8,0.026,8.33
1.2415,0.09774,-0.02793,0.18326,0.00000,0.00000,0.00000,32,-9,57,7,69,2,52,7,ok,2,0,0.000,1,-0.43,1.25,10.44,8,0.039,8.33
1.2619,0.09774,-0.02793,0.18326,0.00000,0.00000,0.00000,30,-7,58,7,66,2,52,8,ok,2,0,0.000,1,-0.43,1.25,10.44,8,0.051,8.33
1.2666,0.09774,-0.02793,0.18326,0.00000,0.00000,0.00000,26,-6,58,7,65,0,53,8,ok,2,0,0.000,1,-0.43,1.25,10.44,8,0.063,8.33
1.2792,0.09774,-0.02793,0.18326,0.00000,0.00000,0.00000,24,-4,59,8,63,-2,54,8,ok,2,0,0.000,1,-0.43,1.25,10.44,8,0.076,8.33
1.3019,0.09774,-0.02793,0.18326,0.00000,0.00000,0.00000,20,-1,60,9,61,-3,55,8,ok,2,0,0.000,1,-0.43,1.25,10.44,8,0.089,8.33
1.3050,0.09774,-0.02793,0.18326,0.00000,0.00000,0.00000,19,-1,61,10,60,-5,55,7,ok,2,0,0.000,1,-0.43,1.25,10.44,8,0.102,8.33
1.3178,0.09774,-0.02793,0.18326,0.00000,0.00000,0.00000,18,0,61,10,58,-5,57,5,ok,2,0,0.000,1,-0.43,1.25,10.44,8,0.115,8.33
1.3379,0.09774,-0.02793,0.18326,0.00000,0.00000,0.00000,16,2,61,11,55,-6,57,7,ok,0,0,0.000,1,-0.43,1.25,10.44,8,0.127,8.33
1.3426,0.09774,-0.02793,0.18326,0.00000,0.00000,0.00000,15,5,61,11,53,-7,58,7,ok,0,0,0.000,1,-0.43,1.25,10.44,8,0.139,8.33
1.3551,0.09774,-0.02793,0.18326,0.00000,0.00000,0.00000,13,9,61,12,50,-6,58,8,ok,0,0,0.000,1,-0.43,1.25,10.44,8,0.152,8.33
1.3779,0.09774,-0.02793,0.18326,0.00000,0.00000,0.00000,12,11,62,12,48,-5,59,8,ok,0,0,0.000,1,-0.43,1.25,10.44,8,0.165,8.33
1.3811,0.09774,-0.02793,0.18326,0.00000,0.00000,0.00000,14,11,62,13,45,-5,60,9,ok,0,0,0.000,1,-0.43,1.25,10.44,8,0.178,8.33
1.3938,0.09774,-0.02793,0.18326,0.00000,0.00000,0.00000,15,11,62,13,42,-4,59,9,ok,0,0,0.000,1,-0.43,1.25,10.44,8,0.191,8.33
1.4139,0.03665,0.03491,0.23038,0.00000,0.00000,0.00000,16,10,63,14,40,-4,60,10,ok,0,0,0.000,1,0.01,0.70,10.35,9,0.000,8.33
1.4186,0.03665,0.03491,0.23038,0.00000,0.00000,0.00000,18,9,62,15,37,-4,61,11,ok,0,0,0.000,1,0.01,0.70,10.35,9,0.012,8.33
1.4312,0.03665,0.03491,0.23038,0.00000,0.00000,0.00000,18,8,63,15,34,-3,61,12,ok,4,0,0.000,1,0.01,0.70,10.35,9,0.025,8.33
1.4539,0.03665,0.03491,0.23038,0.00000,0.00000,0.00000,20,7,63,16,31,-2,61,13,ok,4,0,0.000,1,0.01,0.70,10.35,9,0.037,8.33
1.4570,0.03665,0.03491,0.23038,0.00000,0.00000,0.00000,21,7,63,17,29,0,62,13,ok,4,0,0.000,1,0.01,0.70,10.35,9,0.051,8.33
1.4698,0.03665,0.03491,0.23038,0.00000,0.00000,0.00000,22,6,64,19,27,2,62,14,ok,4,0,0.000,1,0.01,0.70,10.35,9,0.064,8.33
1.4899,0.03665,0.03491,0.23038,0.00000,0.00000,0.00000,24,5,64,20,25,5,63,15,ok,4,0,0.000,1,0.01,0.70,10.35,9,0.076,8.33
1.4946,0.03665,0.03491,0.23038,0.00000,0.00000,0.00000,24,4,64,21,24,8,63,16,ok,4,0,0.000,1,0.01,0.70,10.35,9,0.089,8.33
1.5072,0.03665,0.03491,0.23038,0.00000,0.00000,0.00000,26,3,64,22,23,11,63,17,ok,4,0,0.000,1,0.01,0.70,10.35,9,0.101,8.33
1.5299,0.03665,0.03491,0.23038,0.00000,0.00000,0.00000,26,3,64,23,22,14,64,17,ok,4,0,0.000,1,0.01,0.70,10.35,9,0.114,8.33
1.5330,0.03665,0.03491,0.23038,0.00000,0.00000,0.00000,27,3,63,26,24,14,64,18,ok,4,0,0.000,1,0.01,0.70,10.35,9,0.127,8.33
1.5458,0.03665,0.03491,0.23038,0.00000,0.00000,0.00000,28,2,63,27,24,14,64,19,ok,4,0,0.000,1,0.01,0.70,10.35,9,0.139,8.33
1.5659,0.03665,0.03491,0.23038,0.00000,0.00000,0.00000,29,2,64,25,25,12,64,20,ok,4,0,0.000,2,0.01,0.70,10.35,9,0.152,8.33
1.5706,0.03665,0.03491,0.23038,0.00000,0.00000,0.00000,31,2,67,22,26,11,65,21,ok,4,0,0.000,2,0.01,0.70,10.35,9,0.164,8.33
1.5831,0.03665,0.03491,0.23038,0.00000,0.00000,0.00000,32,1,69,19,27,11,65,22,ok,4,0,0.000,2,0.01,0.70,10.35,9,0.177,8.33
1.6059,0.03665,0.03491,0.23038,0.00000,0.00000,0.00000,34,1,70,15,29,10,64,23,ok,4,0,0.000,2,0.01,0.70,10.35,9,0.190,8.33
1.6093,0.02618,0.08203,0.21642,0.00000,0.00000,0.00000,35,1,71,12,30,9,64,25,ok,4,0,0.000,2,0.26,0.44,8.72,10,0.000,8.33
1.6219,0.02618,0.08203,0.21642,0.00000,0.00000,0.00000,37,2,70,12,32,9,65,26,ok,4,0,0.000,2,0.26,0.44,8.72,10,0.013,8.33
1.6419,0.02618,0.08203,0.21642,0.00000,0.00000,0.00000,38,2,70,8,32,9,64,28,ok,4,0,0.000,2,0.26,0.44,8.72,10,0.025,8.33
1.6467,0.02618,0.08203,0.21642,0.00000,0.00000,0.00000,40,2,69,6,35,9,64,29,ok,4,0,0.000,2,0.26,0.44,8.72,10,0.038,8.33
1.6592,0.02618,0.08203,0.21642,0.00000,0.00000,0.00000,41,2,69,3,36,8,64,30,ok,4,0,0.000,2,0.26,0.44,8.72,10,0.050,8.33
1.6819,0.02618,0.08203,0.21642,0.00000,0.00000,0.00000,42,2,67,0,37,9,64,32,ok,4,0,0.000,2,0.26,0.44,8.72,10,0.063,8.33
1.6850,0.02618,0.08203,0.21642,0.00000,0.00000,0.00000,43,2,66,-2,38,8,64,34,ok,4,0,0.000,2,0.26,0.44,8.72,10,0.076,8.33
1.6976,0.02618,0.08203,0.21642,0.00000,0.00000,0.00000,44,2,64,-3,39,8,63,35,ok,4,0,0.000,2,0.26,0.44,8.72,10,0.089,8.33
1.7179,0.02618,0.08203,0.21642,0.00000,0.00000,0.00000,45,2,62,-4,41,7,64,35,ok,4,0,0.000,2,0.26,0.44,8.72,10,0.101,8.33
1.7227,0.02618,0.08203,0.21642,0.00000,0.00000,0.00000,46,2,61,-6,42,7,66,34,ok,4,0,0.000,2,0.26,0.44,8.72,10,0.114,8.33
1.7352,0.02618,0.08203,0.21642,0.00000,0.00000,0.00000,47,2,60,-8,43,7,68,32,ok,4,0,0.000,2,0.26,0.44,8.72,10,0.126,8.33
1.7579,0.02618,0.08203,0.21642,0.00000,0.00000,0.00000,48,3,58,-8,44,8,70,26,ok,4,0,0.000,2,0.26,0.44,8.72,10,0.139,8.33
1.7612,0.02618,0.08203,0.21642,0.00000,0.00000,0.00000,50,3,55,-9,45,8,71,23,ok,4,0,0.000,2,0.26,0.44,8.72,10,0.152,8.33
1.7736,0.02618,0.08203,0.21642,0.00000,0.00000,0.00000,50,3,53,-9,46,8,72,20,ok,4,0,0.000,2,0.26,0.44,8.72,10,0.165,8.33
1.7939,0.02618,0.08203,0.21642,0.00000,0.00000,0.00000,50,5,51,-10,47,8,73,20,ok,4,0,0.000,2,0.26,0.44,8.72,10,0.177,8.33
1.7989,0.02618,0.08203,0.21642,0.00000,0.00000,0.00000,51,5,49,-10,47,8,73,18,ok,4,0,0.000,2,0.26,0.44,8.72,10,0.190,8.33
1.8115,-0.07854,-0.00000,0.31765,0.00000,0.00000,0.00000,52,5,46,-10,48,8,73,14,ok,4,0,0.001,2,-0.39,-0.78,9.16,11,0.000,8.33
1.8339,-0.07854,-0.00000,0.31765,0.00000,0.00000,0.00000,53,5,44,-10,49,8,72,12,ok,4,0,0.001,2,-0.39,-0.78,9.16,11,0.013,8.33
1.8370,-0.07854,-0.00000,0.31765,0.00000,0.00000,0.00000,53,6,41,-10,50,7,72,10,ok,4,0,0.001,2,-0.39,-0.78,9.16,11,0.026,8.33
1.8495,-0.07854,-0.00000,0.31765,0.00000,0.00000,0.00000,56,6,39,-10,50,8,72,6,ok,2,0,0.001,2,-0.39,-0.78,9.16,11,0.038,8.33
1.8699,-0.07854,-0.00000,0.31765,0.00000,0.00000,0.00000,56,6,36,-9,51,7,71,5,ok,2,0,0.001,2,-0.39,-0.78,9.16,11,0.051,8.33
1.8746,-0.07854,-0.00000,0.31765,0.00000,0.00000,0.00000,57,6,33,-8,51,8,71,3,ok,2,0,0.001,2,-0.39,-0.78,9.16,11,0.063,8.33
1.8874,-0.07854,-0.00000,0.31765,0.00000,0.00000,0.00000,58,7,31,-7,52,8,69,1,ok,2,0,0.001,2,-0.39,-0.78,9.16,11,0.076,8.33
1.9099,-0.07854,-0.00000,0.31765,0.00000,0.00000,0.00000,58,7,27,-6,53,8,66,1,ok,2,0,0.001,2,-0.39,-0.78,9.16,11,0.088,8.33
1.9131,-0.07854,-0.00000,0.31765,0.00000,0.00000,0.00000,59,8,25,-4,54,8,65,-1,ok,2,0,0.001,2,-0.39,-0.78,9.16,11,0.102,8.33
1.9256,-0.07854,-0.00000,0.31765,0.00000,0.00000,0.00000,60,9,21,-2,55,8,64,-2,ok,2,0,0.001,2,-0.39,-0.78,9.16,11,0.115,8.33
1.9459,-0.07854,-0.00000,0.31765,0.00000,0.00000,0.00000,60,9,19,-1,58,6,62,-4,ok,2,0,0.001,2,-0.39,-0.78,9.16,11,0.127,8.33
1.9506,-0.07854,-0.00000,0.31765,0.00000,0.00000,0.00000,61,9,18,1,58,7,60,-5,ok,2,0,0.001,2,-0.39,-0.78,9.16,11,0.140,8.33
1.9632,-0.07854,-0.00000,0.31765,0.00000,0.00000,0.00000,61,11,16,3,58,8,58,-5,ok,2,0,0.001,2,-0.39,-0.78,9.16,11,0.152,8.33
1.9859,-0.07854,-0.00000,0.31765,0.00000,0.00000,0.00000,62,11,15,6,59,9,55,-6,ok,2,0,0.001,2,-0.39,-0.78,9.16,11,0.165,8.33
1.9890,-0.07854,-0.00000,0.31765,0.00000,0.00000,0.00000,62,12,13,9,59,9,54,-6,ok,2,0,0.001,2,-0.39,-0.78,9.16,11,0.178,8.33
2.0015,-0.07854,-0.00000,0.31765,0.00000,0.00000,0.00000,62,12,13,11,60,10,50,-6,ok,2,0,0.001,2,-0.39,-0.78,9.16,11,0.190,8.33
2.0219,0.01571,0.01222,0.31067,0.00000,0.00000,0.00000,62,13,14,12,60,10,48,-5,ok,2,0,0.001,2,0.97,0.78,8.28,12,0.000,8.33
2.0268,0.01571,0.01222,0.31067,0.00000,0.00000,0.00000,61,14,15,11,61,11,45,-5,ok,2,0,0.001,2,0.97,0.78,8.28,12,0.012,8.33
2.0392,0.01571,0.01222,0.31067,0.00000,0.00000,0.00000,62,14,17,10,61,11,42,-5,ok,2,0,0.001,2,0.97,0.78,8.28,12,0.025,8.33
2.0619,0.01571,0.01222,0.31067,0.00000,0.00000,0.00000,62,15,19,9,61,12,40,-5,ok,2,0,0.001,2,0.97,0.78,8.28,12,0.038,8.33
2.0650,0.01571,0.01222,0.31067,0.00000,0.00000,0.00000,63,16,19,8,61,13,37,-4,ok,2,0,0.001,2,0.97,0.78,8.28,12,0.051,8.33
2.0778,0.01571,0.01222,0.31067,0.00000,0.00000,0.00000,63,17,21,7,62,13,35,-3,ok,2,0,0.001,2,0.97,0.78,8.28,12,0.064,8.33
2.0979,0.01571,0.01222,0.31067,0.00000,0.00000,0.00000,63,18,22,7,62,14,31,-2,ok,2,0,0.001,2,0.97,0.78,8.28,12,0.076,8.33
2.1026,0.01571,0.01222,0.31067,0.00000,0.00000,0.00000,65,20,23,5,63,15,30,-1,ok,2,0,0.001,2,0.97,0.78,8.28,12,0.088,8.33
2.1152,0.01571,0.01222,0.31067,0.00000,0.00000,0.00000,65,21,24,5,62,16,27,1,ok,2,0,0.001,2,0.97,0.78,8.28,12,0.101,8.33
2.1379,0.01571,0.01222,0.31067,0.00000,0.00000,0.00000,65,22,24,4,62,17,25,4,ok,2,0,0.001,2,0.97,0.78,8.28,12,0.114,8.33
2.1411,0.01571,0.01222,0.31067,0.00000,0.00000,0.00000,65,23,25,4,63,17,24,6,ok,2,0,0.001,2,0.97,0.78,8.28,12,0.127,8.33
2.1536,0.01571,0.01222,0.31067,0.00000,0.00000,0.00000,65,23,26,3,64,18,23,10,ok,2,0,0.001,2,0.97,0.78,8.28,12,0.140,8.33
2.1739,0.01571,0.01222,0.31067,0.00000,0.00000,0.00000,64,26,27,3,64,19,22,12,ok,2,0,0.001,2,0.97,0.78,8.28,12,0.152,8.33
2.1788,0.01571,0.01222,0.31067,0.00000,0.00000,0.00000,64,27,28,2,64,20,24,12,ok,2,0,0.001,2,0.97,0.78,8.28,12,0.165,8.33
2.1912,0.01571,0.01222,0.31067,0.00000,0.00000,0.00000,65,25,29,2,64,21,25,11,ok,2,0,0.001,2,0.97,0.78,8.28,12,0.177,8.33
2.2139,0.01571,0.01222,0.31067,0.00000,0.00000,0.00000,67,22,30,2,65,22,25,10,ok,2,0,0.001,2,0.97,0.78,8.28,12,0.190,8.33
2.2173,0.01047,0.07679,0.37001,0.00000,0.00000,0.00000,70,18,31,1,64,24,27,9,ok,2,0,0.001,2,0.39,-1.05,8.87,13,0.000,8.33
2.2298,0.01047,0.07679,0.37001,0.00000,0.00000,0.00000,70,14,33,2,64,25,28,10,ok,2,0,0.001,2,0.39,-1.05,8.87,13,0.013,8.33
2.2499,0.01047,0.07679,0.37001,0.00000,0.00000,0.00000,71,11,34,2,64,26,29,9,ok,2,0,0.001,2,0.39,-1.05,8.87,13,0.025,8.33
2.2546,0.01047,0.07679,0.37001,0.00000,0.00000,0.00000,70,11,36,2,63,28,30,8,ok,2,0,0.001,2,0.39,-1.05,8.87,13,0.038,8.33
2.2672,0.01047,0.07679,0.37001,0.00000,0.00000,0.00000,70,7,37,2,64,29,32,8,ok,2,0,0.001,2,0.39,-1.05,8.87,13,0.050,8.33
2.2899,0.01047,0.07679,0.37001,0.00000,0.00000,0.00000,69,5,39,3,64,30,33,8,ok,2,0,0.001,2,0.39,-1.05,8.87,13,0.063,8.33
2.2932,0.01047,0.07679,0.37001,0.00000,0.00000,0.00000,69,2,40,3,64,32,35,8,ok,2,0,0.001,2,0.39,-1.05,8.87,13,0.076,8.33
2.3056,0.01047,0.07679,0.37001,0.00000,0.00000,0.00000,68,-1,41,3,63,34,36,8,ok,2,0,0.001,2,0.39,-1.05,8.87,13,0.089,8.33
2.3259,0.01047,0.07679,0.37001,0.00000,0.00000,0.00000,66,-3,42,2,63,35,37,8,ok,2,0,0.001,2,0.39,-1.05,8.87,13,0.101,8.33
2.3306,0.01047,0.07679,0.37001,0.00000,0.00000,0.00000,65,-4,44,3,64,36,38,7,ok,2,0,0.001,2,0.39,-1.05,8.87,13,0.114,8.33
2.3431,0.01047,0.07679,0.37001,0.00000,0.00000,0.00000,63,-5,44,3,65,36,39,7,ok,2,0,0.001,2,0.39,-1.05,8.87,13,0.126,8.33
2.3659,0.01047,0.07679,0.37001,0.00000,0.00000,0.00000,62,-6,45,3,67,33,41,7,ok,2,0,0.001,2,0.39,-1.05,8.87,13,0.139,8.33
2.3690,0.01047,0.07679,0.37001,0.00000,0.00000,0.00000,61,-8,46,3,69,29,42,6,ok,2,0,0.001,2,0.39,-1.05,8.87,13,0.152,8.33
2.3815,0.01047,0.07679,0.37001,0.00000,0.00000,0.00000,58,-9,48,4,71,24,44,6,ok,2,0,0.001,2,0.39,-1.05,8.87,13,0.165,8.33
2.4019,0.01047,0.07679,0.37001,0.00000,0.00000,0.00000,56,-10,49,4,73,22,44,6,ok,2,0,0.001,2,0.39,-1.05,8.87,13,0.177,8.33
2.4066,0.01047,0.07679,0.37001,0.00000,0.00000,0.00000,54,-10,49,4,74,21,45,7,ok,2,0,0.001,2,0.39,-1.05,8.87,13,0.190,8.33
2.4194,0.01047,0.07679,0.37001,0.00000,0.00000,0.00000,52,-11,49,6,73,19,46,7,ok,2,0,0.001,2,0.39,-1.05,8.87,13,0.202,8.33
2.4419,0.11868,0.08727,0.38223,0.00000,0.00000,0.00000,49,-11,51,6,73,15,47,7,ok,2,0,0.001,2,-0.18,1.28,9.92,14,0.000,8.33
2.4451,0.11868,0.08727,0.38223,0.00000,0.00000,0.00000,46,-11,52,6,73,12,48,7,ok,2,0,0.001,2,-0.18,1.28,9.92,14,0.013,8.33
2.4579,0.11868,0.08727,0.38223,0.00000,0.00000,0.00000,43,-10,53,6,73,11,49,7,ok,2,0,0.001,2,-0.18,1.28,9.92,14,0.026,8.33
2.4779,0.11868,0.08727,0.38223,0.00000,0.00000,0.00000,41,-10,53,7,72,7,49,8,ok,2,0,0.001,2,-0.18,1.28,9.92,14,0.039,8.33
2.4826,0.11868,0.08727,0.38223,0.00000,0.00000,0.00000,38,-11,55,6,72,6,50,7,ok,2,0,0.001,2,-0.18,1.28,9.92,14,0.051,8.33
2.4952,0.11868,0.08727,0.38223,0.00000,0.00000,0.00000,36,-9,56,6,71,4,51,8,ok,2,0,0.001,2,-0.18,1.28,9.92,14,0.064,8.33
2.5180,0.11868,0.08727,0.38223,0.00000,0.00000,0.00000,32,-8,56,6,69,2,52,7,ok,2,0,0.001,2,-0.18,1.28,9.92,14,0.076,8.33
2.5211,0.11868,0.08727,0.38223,0.00000,0.00000,0.00000,30,-7,57,7,66,2,52,7,ok,2,0,0.001,2,-0.18,1.28,9.92,14,0.089,8.33
2.5337,0.11868,0.08727,0.38223,0.00000,0.00000,0.00000,26,-6,57,7,65,0,53,7,ok,2,0,0.001,2,-0.18,1.28,9.92,14,0.102,8.33
2.5539,0.11868,0.08727,0.38223,0.00000,0.00000,0.00000,23,-4,58,8,63,-2,54,8,ok,0,0,0.001,2,-0.18,1.28,9.92,14,0.115,8.33
2.5587,0.11868,0.08727,0.38223,0.00000,0.00000,0.00000,19,-2,59,9,61,-3,55,7,ok,0,0,0.001,3,-0.18,1.28,9.92,14,0.127,8.33
2.5712,0.11868,0.08727,0.38223,0.00000,0.00000,0.00000,19,-2,60,10,60,-5,55,7,ok,0,0,0.001,3,-0.18,1.28,9.92,14,0.140,8.33
2.5939,0.11868,0.08727,0.38223,0.00000,0.00000,0.00000,17,-1,60,10,58,-5,57,5,ok,0,0,0.001,3,-0.18,1.28,9.92,14,0.152,8.33
2.5972,0.11868,0.08727,0.38223,0.00000,0.00000,0.00000,15,1,61,11,56,-6,57,6,ok,0,0,0.001,3,-0.18,1.28,9.92,14,0.165,8.33
2.6097,0.11868,0.08727,0.38223,0.00000,0.00000,0.00000,14,4,61,11,54,-6,58,7,ok,0,0,0.001,3,-0.18,1.28,9.92,14,0.178,8.33
2.6299,0.06632,-0.03142,0.39794,0.00000,0.00000,0.00000,12,8,61,12,51,-6,59,8,ok,0,0,0.001,3,-0.26,0.27,9.56,15,0.000,8.33
2.6346,0.06632,-0.03142,0.39794,0.00000,0.00000,0.00000,11,10,61,12,48,-5,59,8,ok,0,0,0.001,3,-0.26,0.27,9.56,15,0.013,8.33
2.6472,0.06632,-0.03142,0.39794,0.00000,0.00000,0.00000,13,10,61,13,46,-5,60,9,ok,0,0,0.001,3,-0.26,0.27,9.56,15,0.025,8.33
2.6699,0.06632,-0.03142,0.39794,0.00000,0.00000,0.00000,14,10,61,13,43,-4,60,9,ok,0,0,0.001,3,-0.26,0.27,9.56,15,0.038,8.33
2.6730,0.06632,-0.03142,0.39794,0.00000,0.00000,0.00000,15,9,62,14,40,-4,61,10,ok,0,0,0.001,3,-0.26,0.27,9.56,15,0.051,8.33
2.6858,0.06632,-0.03142,0.39794,0.00000,0.00000,0.00000,17,8,62,14,37,-3,61,11,ok,0,0,0.001,3,-0.26,0.27,9.56,15,0.064,8.33
2.7059,0.06632,-0.03142,0.39794,0.00000,0.00000,0.00000,18,8,63,15,34,-3,62,12,ok,0,0,0.001,3,-0.26,0.27,9.56,15,0.076,8.33
2.7106,0.06632,-0.03142,0.39794,0.00000,0.00000,0.00000,20,7,63,16,31,-1,62,12,ok,0,0,0.001,3,-0.26,0.27,9.56,15,0.089,8.33
2.7232,0.06632,-0.03142,0.39794,0.00000,0.00000,0.00000,21,7,63,17,29,0,62,13,ok,0,0,0.001,3,-0.26,0.27,9.56,15,0.101,8.33
2.7459,0.06632,-0.03142,0.39794,0.00000,0.00000,0.00000,23,6,65,18,28,2,63,14,ok,0,0,0.001,3,-0.26,0.27,9.56,15,0.114,8.33
2.7492,0.06632,-0.03142,0.39794,0.00000,0.00000,0.00000,24,5,65,19,25,5,63,14,ok,0,0,0.001,3,-0.26,0.27,9.56,15,0.127,8.33
2.7615,0.06632,-0.03142,0.39794,0.00000,0.00000,0.00000,25,5,65,20,24,8,63,16,ok,0,0,0.001,3,-0.26,0.27,9.56,15,0.140,8.33
2.7819,0.06632,-0.03142,0.39794,0.00000,0.00000,0.00000,26,4,65,21,23,11,63,17,ok,0,0,0.001,3,-0.26,0.27,9.56,15,0.152,8.33
2.7866,0.06632,-0.03142,0.39794,0.00000,0.00000,0.00000,27,4,65,23,22,15,64,17,ok,0,0,0.001,3,-0.26,0.27,9.56,15,0.164,8.33
2.7991,0.06632,-0.03142,0.39794,0.00000,0.00000,0.00000,28,3,64,25,23,14,64,18,ok,0,0,0.001,3,-0.26,0.27,9.56,15,0.177,8.33
2.8219,0.06632,-0.03142,0.39794,0.00000,0.00000,0.00000,29,3,64,27,24,14,64,19,ok,0,0,0.001,3,-0.26,0.27,9.56,15,0.189,8.33
2.8253,0.04189,0.10996,0.42237,0.00000,0.00000,0.00000,30,2,65,25,25,12,64,20,ok,0,0,0.001,3,1.17,1.03,10.05,16,0.000,8.33
2.8378,0.04189,0.10996,0.42237,0.00000,0.00000,0.00000,31,2,68,23,25,11,64,21,ok,0,0,0.001,3,1.17,1.03,10.05,16,0.013,8.33
2.8579,0.04189,0.10996,0.42237,0.00000,0.00000,0.00000,32,1,70,19,27,11,64,22,ok,0,0,0.001,3,1.17,1.03,10.05,16,0.025,8.33
2.8626,0.04189,0.10996,0.42237,0.00000,0.00000,0.00000,34,1,71,15,28,10,64,23,ok,0,0,0.001,3,1.17,1.03,10.05,16,0.038,8.33
2.8752,0.04189,0.10996,0.42237,0.00000,0.00000,0.00000,35,1,71,13,30,9,64,25,ok,0,0,0.001,3,1.17,1.03,10.05,16,0.050,8.33
2.8979,0.04189,0.10996,0.42237,0.00000,0.00000,0.00000,37,1,70,12,32,9,65,26,ok,0,0,0.001,3,1.17,1.03,10.05,16,0.063,8.33
2.9010,0.04189,0.10996,0.42237,0.00000,0.00000,0.00000,38,1,70,9,32,9,64,28,ok,0,0,0.001,3,1.17,1.03,10.05,16,0.076,8.33
2.9138,0.04189,0.10996,0.42237,0.00000,0.00000,0.00000,39,2,69,6,35,9,64,29,ok,0,0,0.001,3,1.17,1.03,10.05,16,0.089,8.33
2.9339,0.04189,0.10996,0.42237,0.00000,0.00000,0.00000,40,2,68,3,36,9,64,31,ok,0,0,0.001,3,1.17,1.03,10.05,16,0.101,8.33
2.9386,0.04189,0.10996,0.42237,0.00000,0.00000,0.00000,42,1,67,1,37,9,64,32,ok,0,0,0.001,3,1.17,1.03,10.05,16,0.114,8.33
2.9513,0.04189,0.10996,0.42237,0.00000,0.00000,0.00000,43,1,66,-1,38,8,64,34,ok,0,0,0.001,3,1.17,1.03,10.05,16,0.126,8.33
2.9739,0.04189,0.10996,0.42237,0.00000,0.00000,0.00000,44,2,64,-3,39,8,64,35,ok,0,0,0.001,3,1.17,1.03,10.05,16,0.139,8.33
2.9770,0.04189,0.10996,0.42237,0.00000,0.00000,0.00000,44,2,62,-4,41,7,65,35,ok,0,0,0.001,3,1.17,1.03,10.05,16,0.152,8.33
2.9895,0.04189,0.10996,0.42237,0.00000,0.00000,0.00000,45,2,61,-6,42,7,66,34,ok,0,0,0.001,3,1.17,1.03,10.05,16,0.165,8.33
3.0099,0.04189,0.10996,0.42237,0.00000,0.00000,0.00000,47,2,60,-8,43,7,68,32,ok,0,0,0.001,3,1.17,1.03,10.05,16,0.177,8.33
3.0146,0.04189,0.10996,0.42237,0.00000,0.00000,0.00000,48,3,57,-8,44,7,70,26,ok,0,0,0.001,3,1.17,1.03,10.05,16,0.190,8.33
3.0274,0.04189,0.10996,0.42237,0.00000,0.00000,0.00000,49,3,55,-9,45,7,71,23,ok,0,0,0.001,3,1.17,1.03,10.05,16,0.202,8.33
3.0499,-0.11345,0.04014,0.48695,0.00000,0.00000,0.00000,50,2,53,-9,46,8,73,20,ok,0,0,0.001,3,-0.74,-0.97,10.65,17,0.000,8.33
3.0530,-0.11345,0.04014,0.48695,0.00000,0.00000,0.00000,50,4,51,-10,47,7,73,20,ok,0,0,0.001,3,-0.74,-0.97,10.65,17,0.013,8.33
3.0659,-0.11345,0.04014,0.48695,0.00000,0.00000,0.00000,51,5,48,-10,47,7,74,18,ok,0,0,0.001,3,-0.74,-0.97,10.65,17,0.026,8.33
3.0859,-0.11345,0.04014,0.48695,0.00000,0.00000,0.00000,52,4,46,-10,48,7,74,14,ok,0,0,0.001,3,-0.74,-0.97,10.65,17,0.038,8.33
3.0906,-0.11345,0.04014,0.48695,0.00000,0.00000,0.00000,53,5,44,-9,48,8,73,12,ok,0,0,0.001,3,-0.74,-0.97,10.65,17,0.051,8.33
3.1032,-0.11345,0.04014,0.48695,0.00000,0.00000,0.00000,53,5,41,-9,49,7,73,10,ok,0,0,0.001,3,-0.74,-0.97,10.65,17,0.063,8.33
3.1259,-0.11345,0.04014,0.48695,0.00000,0.00000,0.00000,55,6,39,-10,50,8,72,7,ok,0,0,0.001,3,-0.74,-0.97,10.65,17,0.076,8.33
3.1290,-0.11345,0.04014,0.48695,0.00000,0.00000,0.00000,56,6,37,-8,52,7,71,5,ok,0,0,0.001,3,-0.74,-0.97,10.65,17,0.089,8.33
3.1416,-0.11345,0.04014,0.48695,0.00000,0.00000,0.00000,57,6,33,-8,52,8,70,4,ok,2,0,0.001,3,-0.74,-0.97,10.65,17,0.102,8.33
3.1619,-0.11345,0.04014,0.48695,0.00000,0.00000,0.00000,57,7,31,-7,53,8,68,2,ok,2,0,0.001,3,-0.74,-0.97,10.65,17,0.114,8.33
3.1666,-0.11345,0.04014,0.48695,0.00000,0.00000,0.00000,58,7,27,-6,54,8,66,1,ok,2,0,0.001,3,-0.74,-0.97,10.65,17,0.127,8.33
3.1792,-0.11345,0.04014,0.48695,0.00000,0.00000,0.00000,59,8,24,-4,55,8,65,-1,ok,2,0,0.001,3,-0.74,-0.97,10.65,17,0.139,8.33
3.2019,-0.11345,0.04014,0.48695,0.00000,0.00000,0.00000,60,10,20,-2,55,8,64,-2,ok,2,0,0.001,3,-0.74,-0.97,10.65,17,0.152,8.33
3.2050,-0.11345,0.04014,0.48695,0.00000,0.00000,0.00000,60,10,19,-1,57,6,62,-3,ok,2,0,0.001,3,-0.74,-0.97,10.65,17,0.165,8.33
3.2176,-0.11345,0.04014,0.48695,0.00000,0.00000,0.00000,61,10,18,0,58,7,60,-5,ok,2,0,0.001,3,-0.74,-0.97,10.65,17,0.178,8.33
3.2379,-0.11345,0.04014,0.48695,0.00000,0.00000,0.00000,61,11,16,3,58,8,58,-5,ok,2,0,0.001,3,-0.74,-0.97,10.65,17,0.190,8.33
3.2428,-0.07854,0.04712,0.49742,0.00000,0.00000,0.00000,61,11,15,6,59,8,56,-6,ok,2,0,0.001,3,1.80,-0.82,8.15,18,0.000,8.33
3.2552,-0.07854,0.04712,0.49742,0.00000,0.00000,0.00000,61,12,13,9,59,9,54,-7,ok,2,0,0.001,3,1.80,-0.82,8.15,18,0.013,8.33
3.2779,-0.07854,0.04712,0.49742,0.00000,0.00000,0.00000,61,12,12,11,60,10,50,-5,ok,2,0,0.001,3,1.80,-0.82,8.15,18,0.025,8.33
3.2812,-0.07854,0.04712,0.49742,0.00000,0.00000,0.00000,62,13,14,12,60,10,48,-5,ok,2,0,0.001,3,1.80,-0.82,8.15,18,0.038,8.33
3.2936,-0.07854,0.04712,0.49742,0.00000,0.00000,0.00000,61,14,15,11,61,11,46,-5,ok,2,0,0.001,3,1.80,-0.82,8.15,18,0.051,8.33
3.3139,-0.07854,0.04712,0.49742,0.00000,0.00000,0.00000,62,14,16,10,61,11,43,-4,ok,2,0,0.001,3,1.80,-0.82,8.15,18,0.064,8.33
3.3186,-0.07854,0.04712,0.49742,0.00000,0.00000,0.00000,62,15,18,9,61,12,41,-4,ok,2,0,0.001,3,1.80,-0.82,8.15,18,0.076,8.33
3.3312,-0.07854,0.04712,0.49742,0.00000,0.00000,0.00000,62,16,19,8,61,13,37,-3,ok,2,0,0.001,3,1.80,-0.82,8.15,18,0.089,8.33
3.3539,-0.07854,0.04712,0.49742,0.00000,0.00000,0.00000,63,16,21,7,61,13,35,-3,ok,2,0,0.001,3,1.80,-0.82,8.15,18,0.101,8.33
3.3571,-0.07854,0.04712,0.49742,0.00000,0.00000,0.00000,63,18,21,7,62,14,31,-1,ok,2,0,0.001,3,1.80,-0.82,8.15,18,0.114,8.33
3.3696,-0.07854,0.04712,0.49742,0.00000,0.00000,0.00000,64,19,23,6,63,14,30,0,ok,2,0,0.001,3,1.80,-0.82,8.15,18,0.127,8.33
3.3899,-0.07854,0.04712,0.49742,0.00000,0.00000,0.00000,64,20,24,5,63,15,28,1,ok,2,0,0.001,3,1.80,-0.82,8.15,18,0.140,8.33
3.3947,-0.07854,0.04712,0.49742,0.00000,0.00000,0.00000,65,21,24,5,63,16,26,4,ok,2,0,0.001,3,1.80,-0.82,8.15,18,0.152,8.33
3.4074,-0.07854,0.04712,0.49742,0.00000,0.00000,0.00000,65,22,25,4,63,17,25,7,ok,2,0,0.001,3,1.80,-0.82,8.15,18,0.165,8.33
3.4299,-0.07854,0.04712,0.49742,0.00000,0.00000,0.00000,65,23,26,3,64,17,23,11,ok,2,0,0.001,3,1.80,-0.82,8.15,18,0.177,8.33
3.4332,-0.07854,0.04712,0.49742,0.00000,0.00000,0.00000,64,26,27,3,64,19,23,13,ok,2,0,0.001,3,1.80,-0.82,8.15,18,0.190,8.33
3.4460,-0.04538,0.11519,0.54978,0.00000,0.00000,0.00000,64,26,27,2,64,20,25,12,ok,2,0,0.001,3,0.79,-0.81,8.97,19,0.000,8.33
3.4659,-0.04538,0.11519,0.54978,0.00000,0.00000,0.00000,65,25,29,2,64,21,25,11,ok,2,0,0.001,3,0.79,-0.81,8.97,19,0.012,8.33
3.4707,-0.04538,0.11519,0.54978,0.00000,0.00000,0.00000,67,22,30,2,65,22,26,10,ok,2,0,0.001,3,0.79,-0.81,8.97,19,0.025,8.33
3.4832,-0.04538,0.11519,0.54978,0.00000,0.00000,0.00000,69,18,31,1,64,23,27,9,ok,2,0,0.001,3,0.79,-0.81,8.97,19,0.037,8.33
3.5059,-0.04538,0.11519,0.54978,0.00000,0.00000,0.00000,70,14,32,2,64,25,28,10,ok,2,0,0.001,3,0.79,-0.81,8.97,19,0.050,8.33
3.5092,-0.04538,0.11519,0.54978,0.00000,0.00000,0.00000,70,11,33,2,65,25,29,9,ok,2,0,0.001,3,0.79,-0.81,8.97,19,0.063,8.33
3.5215,-0.04538,0.11519,0.54978,0.00000,0.00000,0.00000,70,11,35,2,64,28,30,9,ok,2,0,0.001,3,0.79,-0.81,8.97,19,0.076,8.33
3.5419,-0.04538,0.11519,0.54978,0.00000,0.00000,0.00000,70,7,36,2,64,29,32,9,ok,2,0,0.001,3,0.79,-0.81,8.97,19,0.088,8.33
3.5466,-0.04538,0.11519,0.54978,0.00000,0.00000,0.00000,69,5,38,3,64,30,33,9,ok,2,0,0.001,3,0.79,-0.81,8.97,19,0.101,8.33
3.5593,-0.04538,0.11519,0.54978,0.00000,0.00000,0.00000,68,2,39,3,64,32,35,8,ok,2,0,0.001,3,0.79,-0.81,8.97,19,0.113,8.33
3.5819,-0.04538,0.11519,0.54978,0.00000,0.00000,0.00000,67,-1,41,3,64,34,36,8,ok,2,0,0.001,4,0.79,-0.81,8.97,19,0.126,8.33
3.5850,-0.04538,0.11519,0.54978,0.00000,0.00000,0.00000,66,-3,42,2,64,35,37,8,ok,2,0,0.001,4,0.79,-0.81,8.97,19,0.139,8.33
3.5975,-0.04538,0.11519,0.54978,0.00000,0.00000,0.00000,65,-4,43,3,65,35,38,8,ok,2,0,0.001,4,0.79,-0.81,8.97,19,0.152,8.33
3.6179,-0.04538,0.11519,0.54978,0.00000,0.00000,0.00000,63,-5,43,3,66,35,40,8,ok,2,0,0.001,4,0.79,-0.81,8.97,19,0.164,8.33
3.6228,-0.04538,0.11519,0.54978,0.00000,0.00000,0.00000,61,-6,45,3,68,33,41,7,ok,2,0,0.001,4,0.79,-0.81,8.97,19,0.177,8.33
3.6354,-0.04538,0.11519,0.54978,0.00000,0.00000,0.00000,61,-9,46,3,70,28,42,7,ok,2,0,0.001,4,0.79,-0.81,8.97,19,0.189,8.33
3.6579,0.10472,0.06807,0.59167,0.00000,0.00000,0.00000,58,-9,47,4,71,24,44,7,ok,2,0,0.001,4,0.07,0.97,10.90,20,0.000,8.33
3.6611,0.10472,0.06807,0.59167,0.00000,0.00000,0.00000,55,-10,48,3,73,22,44,7,ok,2,0,0.001,4,0.07,0.97,10.90,20,0.013,8.33
3.6735,0.10472,0.06807,0.59167,0.00000,0.00000,0.00000,53,-10,49,3,74,21,45,7,ok,2,0,0.001,4,0.07,0.97,10.90,20,0.026,8.33
3.6939,0.10472,0.06807,0.59167,0.00000,0.00000,0.00000,51,-11,49,5,74,19,46,7,ok,2,0,0.001,4,0.07,0.97,10.90,20,0.039,8.33
3.6988,0.10472,0.06807,0.59167,0.00000,0.00000,0.00000,49,-11,51,6,74,15,47,7,ok,2,0,0.001,4,0.07,0.97,10.90,20,0.051,8.33
3.7112,0.10472,0.06807,0.59167,0.00000,0.00000,0.00000,46,-10,52,5,74,12,48,7,ok,2,0,0.001,4,0.07,0.97,10.90,20,0.064,8.33
3.7339,0.10472,0.06807,0.59167,0.00000,0.00000,0.00000,44,-10,53,5,73,10,49,7,ok,2,0,0.001,4,0.07,0.97,10.90,20,0.076,8.33
3.7371,0.10472,0.06807,0.59167,0.00000,0.00000,0.00000,41,-10,53,6,72,7,49,8,ok,2,0,0.001,4,0.07,0.97,10.90,20,0.089,8.33
3.7496,0.10472,0.06807,0.59167,0.00000,0.00000,0.00000,38,-10,55,6,72,5,50,7,ok,2,0,0.001,4,0.07,0.97,10.90,20,0.102,8.33
3.7699,0.10472,0.06807,0.59167,0.00000,0.00000,0.00000,36,-9,55,6,71,4,51,8,ok,2,0,0.001,4,0.07,0.97,10.90,20,0.115,8.33
3.7746,0.10472,0.06807,0.59167,0.00000,0.00000,0.00000,32,-8,57,6,69,1,52,7,ok,2,0,0.001,4,0.07,0.97,10.90,20,0.127,8.33
3.7872,0.10472,0.06807,0.59167,0.00000,0.00000,0.00000,30,-7,57,7,66,2,52,8,ok,2,0,0.001,4,0.07,0.97,10.90,20,0.140,8.33
3.8099,0.10472,0.06807,0.59167,0.00000,0.00000,0.00000,26,-6,57,8,65,0,53,8,ok,2,0,0.001,4,0.07,0.97,10.90,20,0.152,8.33
3.8130,0.10472,0.06807,0.59167,0.00000,0.00000,0.00000,23,-5,58,8,64,-2,54,8,ok,0,0,0.001,4,0.07,0.97,10.90,20,0.165,8.33
3.8258,0.10472,0.06807,0.59167,0.00000,0.00000,0.00000,19,-2,59,9,61,-3,55,8,ok,0,0,0.001,4,0.07,0.97,10.90,20,0.178,8.33
3.8459,0.10472,0.06807,0.59167,0.00000,0.00000,0.00000,19,-2,60,11,60,-5,55,7,ok,0,0,0.001,4,0.07,0.97,10.90,20,0.190,8.33
3.8509,0.10297,-0.04712,0.58818,0.00000,0.00000,0.00000,18,-1,60,10,59,-5,57,5,ok,0,0,0.001,4,-1.07,0.71,9.54,21,0.000,8.33
3.8632,0.10297,-0.04712,0.58818,0.00000,0.00000,0.00000,16,1,61,11,56,-6,57,7,ok,0,0,0.001,4,-1.07,0.71,9.54,21,0.013,8.33
3.8859,0.10297,-0.04712,0.58818,0.00000,0.00000,0.00000,14,4,61,11,54,-7,58,7,ok,0,0,0.001,4,-1.07,0.71,9.54,21,0.025,8.33
3.8890,0.10297,-0.04712,0.58818,0.00000,0.00000,0.00000,12,8,61,12,51,-6,59,8,ok,0,0,0.001,4,-1.07,0.71,9.54,21,0.038,8.33
3.9015,0.10297,-0.04712,0.58818,0.00000,0.00000,0.00000,12,10,62,11,48,-5,59,8,ok,0,0,0.001,4,-1.07,0.71,9.54,21,0.051,8.33
3.9219,0.10297,-0.04712,0.58818,0.00000,0.00000,0.00000,14,11,62,12,46,-5,60,9,ok,0,0,0.001,4,-1.07,0.71,9.54,21,0.064,8.33
3.9267,0.10297,-0.04712,0.58818,0.00000,0.00000,0.00000,14,11,62,13,43,-4,60,9,ok,0,0,0.001,4,-1.07,0.71,9.54,21,0.076,8.33
3.9392,0.10297,-0.04712,0.58818,0.00000,0.00000,0.00000,16,10,63,13,40,-4,61,10,ok,0,0,0.001,4,-1.07,0.71,9.54,21,0.089,8.33
3.9619,0.10297,-0.04712,0.58818,0.00000,0.00000,0.00000,18,9,62,14,37,-3,61,11,ok,0,0,0.001,4,-1.07,0.71,9.54,21,0.101,8.33
3.9652,0.10297,-0.04712,0.58818,0.00000,0.00000,0.00000,18,9,63,15,34,-3,61,12,ok,0,0,0.001,4,-1.07,0.71,9.54,21,0.114,8.33
3.9776,0.10297,-0.04712,0.58818,0.00000,0.00000,0.00000,20,8,63,15,31,-1,61,12,ok,0,0,0.001,4,-1.07,0.71,9.54,21,0.127,8.33
3.9979,0.10297,-0.04712,0.58818,0.00000,0.00000,0.00000,21,7,63,16,29,0,62,13,ok,0,0,0.001,4,-1.07,0.71,9.54,21,0.140,8.33
4.0029,0.10297,-0.04712,0.58818,0.00000,0.00000,0.00000,23,6,65,18,27,2,62,14,ok,0,0,0.001,4,-1.07,0.71,9.54,21,0.152,8.33
4.0152,0.10297,-0.04712,0.58818,0.00000,0.00000,0.00000,24,5,65,19,25,5,63,15,ok,0,0,0.001,4,-1.07,0.71,9.54,21,0.165,8.33
4.0379,0.10297,-0.04712,0.58818,0.00000,0.00000,0.00000,25,5,65,20,24,8,63,16,ok,0,0,0.001,4,-1.07,0.71,9.54,21,0.177,8.33
4.0410,0.10297,-0.04712,0.58818,0.00000,0.00000,0.00000,26,4,65,21,23,12,63,17,ok,0,0,0.001,4,-1.07,0.71,9.54,21,0.190,8.33
4.0539,0.01571,0.13614,0.58469,0.00000,0.00000,0.00000,27,4,65,23,22,14,63,17,ok,0,0,0.001,4,1.36,0.42,9.35,22,0.000,8.33
4.0739,0.01571,0.13614,0.58469,0.00000,0.00000,0.00000,28,4,64,26,23,13,64,18,ok,0,0,0.001,4,1.36,0.42,9.35,22,0.013,8.33
4.0786,0.01571,0.13614,0.58469,0.00000,0.00000,0.00000,29,3,64,28,23,13,64,19,ok,0,0,0.001,4,1.36,0.42,9.35,22,0.025,8.33
4.0913,0.01571,0.13614,0.58469,0.00000,0.00000,0.00000,30,2,65,26,24,11,64,20,ok,0,0,0.001,4,1.36,0.42,9.35,22,0.038,8.33
4.1139,0.01571,0.13614,0.58469,0.00000,0.00000,0.00000,31,1,67,23,26,10,64,21,ok,0,0,0.001,4,1.36,0.42,9.35,22,0.050,8.33
4.1171,0.01571,0.13614,0.58469,0.00000,0.00000,0.00000,32,0,69,20,27,10,64,22,ok,0,0,0.001,4,1.36,0.42,9.35,22,0.063,8.33
4.1299,0.01571,0.13614,0.58469,0.00000,0.00000,0.00000,33,0,70,16,28,10,64,23,ok,0,0,0.001,4,1.36,0.42,9.35,22,0.076,8.33
4.1499,0.01571,0.13614,0.58469,0.00000,0.00000,0.00000,34,0,70,14,30,9,64,25,ok,0,0,0.001,4,1.36,0.42,9.35,22,0.088,8.33
4.1546,0.01571,0.13614,0.58469,0.00000,0.00000,0.00000,36,0,70,13,32,9,65,26,ok,0,0,0.001,4,1.36,0.42,9.35,22,0.101,8.33
4.1674,0.01571,0.13614,0.58469,0.00000,0.00000,0.00000,37,0,70,9,33,10,64,28,ok,0,0,0.001,4,1.36,0.42,9.35,22,0.113,8.33
4.1899,0.01571,0.13614,0.58469,0.00000,0.00000,0.00000,39,1,69,6,35,9,64,30,ok,0,0,0.001,4,1.36,0.42,9.35,22,0.126,8.33
4.1930,0.01571,0.13614,0.58469,0.00000,0.00000,0.00000,40,1,68,3,36,9,65,31,ok,0,0,0.001,4,1.36,0.42,9.35,22,0.139,8.33
4.2055,0.01571,0.13614,0.58469,0.00000,0.00000,0.00000,41,1,67,0,37,9,64,32,ok,0,0,0.001,4,1.36,0.42,9.35,22,0.152,8.33
4.2259,0.01571,0.13614,0.58469,0.00000,0.00000,0.00000,43,1,66,-2,39,8,64,34,ok,0,0,0.001,4,1.36,0.42,9.35,22,0.165,8.33
4.2308,0.01571,0.13614,0.58469,0.00000,0.00000,0.00000,44,2,64,-3,40,8,64,35,ok,0,0,0.001,4,1.36,0.42,9.35,22,0.177,8.33
4.2432,0.01571,0.13614,0.58469,0.00000,0.00000,0.00000,44,2,62,-4,41,7,65,35,ok,0,0,0.001,4,1.36,0.42,9.35,22,0.190,8.33
4.2659,-0.05934,0.04887,0.62832,0.00000,0.00000,0.00000,45,2,60,-6,42,7,66,34,ok,0,0,0.001,4,0.33,-0.21,9.35,23,0.000,8.33
4.2693,-0.05934,0.04887,0.62832,0.00000,0.00000,0.00000,47,2,59,-8,43,7,68,32,ok,0,0,0.001,4,0.33,-0.21,9.35,23,0.013,8.33
4.2816,-0.05934,0.04887,0.62832,0.00000,0.00000,0.00000,48,3,57,-8,44,7,70,27,ok,0,0,0.001,4,0.33,-0.21,9.35,23,0.026,8.33
4.3019,-0.05934,0.04887,0.62832,0.00000,0.00000,0.00000,49,2,55,-9,45,7,72,23,ok,0,0,0.001,4,0.33,-0.21,9.35,23,0.039,8.33
4.3067,-0.05934,0.04887,0.62832,0.00000,0.00000,0.00000,50,2,53,-9,46,7,73,20,ok,0,0,0.001,4,0.33,-0.21,9.35,23,0.051,8.33
4.3194,-0.05934,0.04887,0.62832,0.00000,0.00000,0.00000,50,4,51,-10,47,7,73,20,ok,0,0,0.001,4,0.33,-0.21,9.35,23,0.064,8.33
4.3419,-0.05934,0.04887,0.62832,0.00000,0.00000,0.00000,51,5,49,-10,48,8,73,18,ok,0,0,0.001,4,0.33,-0.21,9.35,23,0.076,8.33
4.3450,-0.05934,0.04887,0.62832,0.00000,0.00000,0.00000,52,5,46,-10,49,8,73,14,ok,0,0,0.001,4,0.33,-0.21,9.35,23,0.089,8.33
4.3577,-0.05934,0.04887,0.62832,0.00000,0.00000,0.00000,53,5,44,-9,49,8,72,12,ok,0,0,0.001,4,0.33,-0.21,9.35,23,0.102,8.33
4.3779,-0.05934,0.04887,0.62832,0.00000,0.00000,0.00000,53,6,41,-10,50,7,72,10,ok,0,0,0.001,4,0.33,-0.21,9.35,23,0.115,8.33
4.3828,-0.05934,0.04887,0.62832,0.00000,0.00000,0.00000,56,6,39,-10,51,8,71,7,ok,0,0,0.001,4,0.33,-0.21,9.35,23,0.127,8.33
4.3953,-0.05934,0.04887,0.62832,0.00000,0.00000,0.00000,56,7,36,-9,52,7,71,5,ok,0,0,0.001,4,0.33,-0.21,9.35,23,0.140,8.33
4.4179,-0.05934,0.04887,0.62832,0.00000,0.00000,0.00000,57,7,33,-9,52,7,70,3,ok,2,0,0.001,4,0.33,-0.21,9.35,23,0.152,8.33
4.4213,-0.05934,0.04887,0.62832,0.00000,0.00000,0.00000,58,8,30,-7,52,8,68,1,ok,2,0,0.001,4,0.33,-0.21,9.35,23,0.165,8.33
4.4336,-0.05934,0.04887,0.62832,0.00000,0.00000,0.00000,58,8,27,-6,53,8,66,1,ok,2,0,0.001,4,0.33,-0.21,9.35,23,0.178,8.33
4.4539,-0.05934,0.04887,0.62832,0.00000,0.00000,0.00000,59,9,24,-4,54,8,65,-1,ok,2,0,0.001,4,0.33,-0.21,9.35,23,0.191,8.33
4.4589,-0.05934,0.04887,0.62832,0.00000,0.00000,0.00000,60,10,20,-2,55,8,64,-2,ok,2,0,0.001,4,0.33,-0.21,9.35,23,0.203,8.33
4.4714,-0.12915,0.01920,0.69464,0.00000,0.00000,0.00000,60,10,19,-1,57,6,62,-4,ok,2,0,0.001,4,0.41,-1.18,10.57,24,0.000,8.33
4.4939,-0.12915,0.01920,0.69464,0.00000,0.00000,0.00000,61,9,18,1,58,7,60,-5,ok,2,0,0.001,4,0.41,-1.18,10.57,24,0.012,8.33
4.4971,-0.12915,0.01920,0.69464,0.00000,0.00000,0.00000,61,10,16,3,58,8,58,-5,ok,2,0,0.001,4,0.41,-1.18,10.57,24,0.026,8.33
4.5098,-0.12915,0.01920,0.69464,0.00000,0.00000,0.00000,61,10,15,6,59,8,56,-6,ok,2,0,0.001,4,0.41,-1.18,10.57,24,0.039,8.33
4.5299,-0.12915,0.01920,0.69464,0.00000,0.00000,0.00000,61,11,13,9,59,9,54,-6,ok,2,0,0.001,4,0.41,-1.18,10.57,24,0.051,8.33
4.5346,-0.12915,0.01920,0.69464,0.00000,0.00000,0.00000,62,11,12,12,60,9,51,-5,ok,2,0,0.001,4,0.41,-1.18,10.57,24,0.064,8.33
4.5472,-0.12915,0.01920,0.69464,0.00000,0.00000,0.00000,62,12,14,12,60,10,48,-5,ok,2,0,0.001,4,0.41,-1.18,10.57,24,0.076,8.33
4.5699,-0.12915,0.01920,0.69464,0.00000,0.00000,0.00000,61,13,15,12,61,11,46,-5,ok,2,0,0.001,4,0.41,-1.18,10.57,24,0.089,8.33
4.5730,-0.12915,0.01920,0.69464,0.00000,0.00000,0.00000,62,13,17,11,61,11,43,-4,ok,2,0,0.001,4,0.41,-1.18,10.57,24,0.102,8.33
4.5855,-0.12915,0.01920,0.69464,0.00000,0.00000,0.00000,62,14,19,10,61,12,41,-4,ok,2,0,0.001,5,0.41,-1.18,10.57,24,0.114,8.33
4.6059,-0.12915,0.01920,0.69464,0.00000,0.00000,0.00000,63,15,19,9,61,12,37,-3,ok,2,0,0.001,5,0.41,-1.18,10.57,24,0.127,8.33
4.6106,-0.12915,0.01920,0.69464,0.00000,0.00000,0.00000,63,16,21,8,62,13,35,-3,ok,2,0,0.001,5,0.41,-1.18,10.57,24,0.139,8.33
4.6232,-0.12915,0.01920,0.69464,0.00000,0.00000,0.00000,63,18,22,7,62,14,31,-1,ok,2,0,0.001,5,0.41,-1.18,10.57,24,0.152,8.33
4.6459,-0.12915,0.01920,0.69464,0.00000,0.00000,0.00000,65,19,23,6,63,14,30,0,ok,2,0,0.001,5,0.41,-1.18,10.57,24,0.164,8.33
4.6491,-0.12915,0.01920,0.69464,0.00000,0.00000,0.00000,65,20,24,5,63,15,28,2,ok,2,0,0.001,5,0.41,-1.18,10.57,24,0.178,8.33
4.6616,-0.12915,0.01920,0.69464,0.00000,0.00000,0.00000,65,21,24,5,63,16,26,5,ok,2,0,0.001,5,0.41,-1.18,10.57,24,0.191,8.33
4.6859,-0.02793,0.11868,0.73827,0.00000,0.00000,0.00000,65,22,25,4,63,17,25,7,ok,2,0,0.001,5,1.75,-0.72,9.89,25,0.000,8.33
4.6894,-0.02793,0.11868,0.73827,0.00000,0.00000,0.00000,65,23,26,3,64,18,23,11,ok,2,0,0.001,5,1.75,-0.72,9.89,25,0.015,8.33
4.7021,-0.02793,0.11868,0.73827,0.00000,0.00000,0.00000,64,26,27,3,64,19,22,13,ok,2,0,0.001,5,1.75,-0.72,9.89,25,0.028,8.33
4.7219,-0.02793,0.11868,0.73827,0.00000,0.00000,0.00000,64,27,27,2,64,20,24,12,ok,2,0,0.001,5,1.75,-0.72,9.89,25,0.040,8.33
4.7271,-0.02793,0.11868,0.73827,0.00000,0.00000,0.00000,65,26,28,2,64,21,24,12,ok,2,0,0.001,5,1.75,-0.72,9.89,25,0.053,8.33
4.7396,-0.02793,0.11868,0.73827,0.00000,0.00000,0.00000,67,22,29,2,65,22,25,10,ok,2,0,0.001,5,1.75,-0.72,9.89,25,0.065,8.33
4.7620,-0.02793,0.11868,0.73827,0.00000,0.00000,0.00000,69,19,30,1,64,23,26,9,ok,2,0,0.001,5,1.75,-0.72,9.89,25,0.078,8.33
4.7654,-0.02793,0.11868,0.73827,0.00000,0.00000,0.00000,70,14,32,1,64,25,28,10,ok,2,0,0.001,5,1.75,-0.72,9.89,25,0.091,8.33
4.7779,-0.02793,0.11868,0.73827,0.00000,0.00000,0.00000,70,12,33,1,65,25,29,9,ok,2,0,0.001,5,1.75,-0.72,9.89,25,0.104,8.33
4.7979,-0.02793,0.11868,0.73827,0.00000,0.00000,0.00000,70,11,35,1,64,28,30,9,ok,2,0,0.001,5,1.75,-0.72,9.89,25,0.116,8.33
4.8030,-0.02793,0.11868,0.73827,0.00000,0.00000,0.00000,70,8,36,2,64,29,32,9,ok,2,0,0.001,5,1.75,-0.72,9.89,25,0.129,8.33
4.8153,-0.02793,0.11868,0.73827,0.00000,0.00000,0.00000,69,5,38,3,64,30,33,9,ok,2,0,0.001,5,1.75,-0.72,9.89,25,0.141,8.33
4.8419,-0.02793,0.11868,0.73827,0.00000,0.00000,0.00000,68,2,39,3,64,32,35,8,ok,2,0,0.001,5,1.75,-0.72,9.89,25,0.154,8.33
4.8451,-0.02793,0.11868,0.73827,0.00000,0.00000,0.00000,67,-1,41,3,64,34,36,8,ok,2,0,0.001,5,1.75,-0.72,9.89,25,0.171,8.33
4.8576,-0.02793,0.11868,0.73827,0.00000,0.00000,0.00000,66,-3,42,2,64,35,37,8,ok,2,0,0.001,5,1.75,-0.72,9.89,25,0.183,8.33
4.8779,-0.02793,0.11868,0.73827,0.00000,0.00000,0.00000,65,-4,43,2,65,35,38,8,ok,2,0,0.001,5,1.75,-0.72,9.89,25,0.196,8.33
4.8829,0.14486,0.06109,0.73827,0.00000,0.00000,0.00000,63,-5,43,2,66,35,40,7,ok,2,0,0.001,5,1.30,1.29,10.13,26,0.000,8.33
4.8951,0.14486,0.06109,0.73827,0.00000,0.00000,0.00000,61,-6,45,2,68,34,41,6,ok,2,0,0.001,5,1.30,1.29,10.13,26,0.013,8.33
4.9179,0.14486,0.06109,0.73827,0.00000,0.00000,0.00000,60,-8,46,2,70,29,42,6,ok,2,0,0.001,5,1.30,1.29,10.13,26,0.025,8.33
4.9210,0.14486,0.06109,0.73827,0.00000,0.00000,0.00000,58,-9,47,3,72,25,43,6,ok,2,0,0.001,5,1.30,1.29,10.13,26,0.038,8.33
4.9339,0.14486,0.06109,0.73827,0.00000,0.00000,0.00000,55,-9,49,3,74,22,43,6,ok,2,0,0.001,5,1.30,1.29,10.13,26,0.051,8.33
4.9539,0.14486,0.06109,0.73827,0.00000,0.00000,0.00000,54,-9,49,2,74,21,44,7,ok,2,0,0.001,5,1.30,1.29,10.13,26,0.064,8.33
4.9586,0.14486,0.06109,0.73827,0.00000,0.00000,0.00000,52,-10,49,4,74,19,46,7,ok,2,0,0.001,5,1.30,1.29,10.13,26,0.076,8.33
4.9713,0.14486,0.06109,0.73827,0.00000,0.00000,0.00000,49,-10,51,5,74,15,47,7,ok,2,0,0.001,5,1.30,1.29,10.13,26,0.089,8.33
4.9939,0.14486,0.06109,0.73827,0.00000,0.00000,0.00000,46,-10,52,4,73,12,48,7,ok,2,0,0.001,5,1.30,1.29,10.13,26,0.101,8.33
4.9970,0.14486,0.06109,0.73827,0.00000,0.00000,0.00000,44,-9,53,5,73,10,49,7,ok,2,0,0.001,5,1.30,1.29,10.13,26,0.114,8.33
5.0097,0.14486,0.06109,0.73827,0.00000,0.00000,0.00000,41,-10,53,6,72,7,49,8,ok,2,0,0.001,5,1.30,1.29,10.13,26,0.127,8.33
5.0379,0.14486,0.06109,0.73827,0.00000,0.00000,0.00000,38,-11,55,6,72,5,50,7,ok,2,0,0.001,5,1.30,1.29,10.13,26,0.140,8.33
5.0412,0.14486,0.06109,0.73827,0.00000,0.00000,0.00000,36,-10,56,7,71,4,51,8,ok,2,0,0.001,5,1.30,1.29,10.13,26,0.158,8.33
5.0537,0.14486,0.06109,0.73827,0.00000,0.00000,0.00000,32,-9,57,7,69,2,52,7,ok,2,0,0.001,5,1.30,1.29,10.13,26,0.171,8.33
5.0739,0.14486,0.06109,0.73827,0.00000,0.00000,0.00000,30,-8,57,8,66,2,52,8,ok,2,0,0.001,5,1.30,1.29,10.13,26,0.184,8.33
5.0788,0.14486,0.06109,0.73827,0.00000,0.00000,0.00000,26,-7,58,8,65,0,53,8,ok,0,0,0.001,5,1.30,1.29,10.13,26,0.196,8.33
5.0915,0.11519,-0.03491,0.73653,0.00000,0.00000,0.00000,23,-5,58,8,63,-2,54,8,ok,0,0,0.001,5,-0.34,1.49,9.62,27,0.000,8.33
5.1139,0.11519,-0.03491,0.73653,0.00000,0.00000,0.00000,19,-3,59,9,62,-3,55,8,ok,0,0,0.001,5,-0.34,1.49,9.62,27,0.013,8.33
5.1171,0.11519,-0.03491,0.73653,0.00000,0.00000,0.00000,19,-2,60,10,61,-5,55,7,ok,0,0,0.001,5,-0.34,1.49,9.62,27,0.026,8.33
5.1295,0.11519,-0.03491,0.73653,0.00000,0.00000,0.00000,18,-1,61,10,59,-5,57,5,ok,0,0,0.001,5,-0.34,1.49,9.62,27,0.039,8.33
5.1499,0.11519,-0.03491,0.73653,0.00000,0.00000,0.00000,16,1,61,11,55,-6,57,6,ok,0,0,0.001,5,-0.34,1.49,9.62,27,0.051,8.33
5.1546,0.11519,-0.03491,0.73653,0.00000,0.00000,0.00000,14,4,61,11,54,-6,58,7,ok,0,0,0.001,5,-0.34,1.49,9.62,27,0.064,8.33
5.1672,0.11519,-0.03491,0.73653,0.00000,0.00000,0.00000,13,8,61,12,51,-6,59,8,ok,0,0,0.001,5,-0.34,1.49,9.62,27,0.076,8.33
5.1899,0.11519,-0.03491,0.73653,0.00000,0.00000,0.00000,12,10,62,12,48,-5,59,8,ok,0,0,0.001,5,-0.34,1.49,9.62,27,0.089,8.33
5.1930,0.11519,-0.03491,0.73653,0.00000,0.00000,0.00000,14,11,62,13,45,-5,60,9,ok,0,0,0.001,5,-0.34,1.49,9.62,27,0.102,8.33
5.2055,0.11519,-0.03491,0.73653,0.00000,0.00000,0.00000,14,11,62,13,42,-5,60,9,ok,0,0,0.001,5,-0.34,1.49,9.62,27,0.115,8.33
5.2259,0.11519,-0.03491,0.73653,0.00000,0.00000,0.00000,16,9,63,14,40,-4,60,10,ok,0,0,0.001,5,-0.34,1.49,9.62,27,0.127,8.33
5.2306,0.11519,-0.03491,0.73653,0.00000,0.00000,0.00000,18,9,62,14,37,-3,61,11,ok,0,0,0.001,5,-0.34,1.49,9.62,27,0.140,8.33
5.2433,0.11519,-0.03491,0.73653,0.00000,0.00000,0.00000,18,8,63,15,34,-3,61,12,ok,0,0,0.001,5,-0.34,1.49,9.62,27,0.152,8.33
5.2700,0.11519,-0.03491,0.73653,0.00000,0.00000,0.00000,20,7,63,16,31,-1,61,13,ok,0,0,0.001,5,-0.34,1.49,9.62,27,0.165,8.33
5.2732,0.11519,-0.03491,0.73653,0.00000,0.00000,0.00000,21,7,63,17,29,0,62,13,ok,0,0,0.001,5,-0.34,1.49,9.62,27,0.182,8.33
5.2861,0.03491,0.11868,0.75224,0.00000,0.00000,0.00000,23,6,65,18,27,2,62,14,ok,0,0,0.001,5,2.88,0.22,10.40,28,0.000,8.33
5.3059,0.03491,0.11868,0.75224,0.00000,0.00000,0.00000,24,5,65,20,24,5,63,15,ok,0,0,0.001,5,2.88,0.22,10.40,28,0.013,8.33
5.3109,0.03491,0.11868,0.75224,0.00000,0.00000,0.00000,25,5,65,21,23,7,63,16,ok,0,0,0.001,5,2.88,0.22,10.40,28,0.025,8.33
5.3233,0.03491,0.11868,0.75224,0.00000,0.00000,0.00000,26,4,64,22,22,11,63,17,ok,0,0,0.001,5,2.88,0.22,10.40,28,0.038,8.33
5.3459,0.03491,0.11868,0.75224,0.00000,0.00000,0.00000,27,3,64,23,22,14,64,17,ok,0,0,0.001,5,2.88,0.22,10.40,28,0.050,8.33
5.3490,0.03491,0.11868,0.75224,0.00000,0.00000,0.00000,28,3,63,26,23,13,64,18,ok,0,0,0.001,5,2.88,0.22,10.40,28,0.063,8.33
5.3615,0.03491,0.11868,0.75224,0.00000,0.00000,0.00000,28,1,63,28,24,13,64,19,ok,0,0,0.001,5,2.88,0.22,10.40,28,0.076,8.33
5.3819,0.03491,0.11868,0.75224,0.00000,0.00000,0.00000,29,1,64,26,25,11,64,20,ok,0,0,0.001,5,2.88,0.22,10.40,28,0.088,8.33
5.3866,0.03491,0.11868,0.75224,0.00000,0.00000,0.00000,30,0,66,23,26,11,65,21,ok,0,0,0.001,5,2.88,0.22,10.40,28,0.101,8.33
5.3994,0.03491,0.11868,0.75224,0.00000,0.00000,0.00000,31,0,69,19,27,11,65,22,ok,0,0,0.001,5,2.88,0.22,10.40,28,0.113,8.33
5.4219,0.03491,0.11868,0.75224,0.00000,0.00000,0.00000,33,0,70,15,29,11,65,23,ok,0,0,0.001,5,2.88,0.22,10.40,28,0.126,8.33
5.4250,0.03491,0.11868,0.75224,0.00000,0.00000,0.00000,34,0,70,13,30,9,65,25,ok,0,0,0.001,5,2.88,0.22,10.40,28,0.139,8.33
5.4375,0.03491,0.11868,0.75224,0.00000,0.00000,0.00000,36,1,70,12,33,9,66,26,ok,0,0,0.001,5,2.88,0.22,10.40,28,0.152,8.33
5.4579,0.03491,0.11868,0.75224,0.00000,0.00000,0.00000,37,1,70,8,33,9,65,28,ok,0,0,0.001,5,2.88,0.22,10.40,28,0.164,8.33
5.4626,0.03491,0.11868,0.75224,0.00000,0.00000,0.00000,39,2,69,6,35,9,64,29,ok,0,0,0.001,5,2.88,0.22,10.40,28,0.177,8.33
5.4752,0.03491,0.11868,0.75224,0.00000,0.00000,0.00000,40,2,68,3,36,9,65,30,ok,0,0,0.001,5,2.88,0.22,10.40,28,0.189,8.33
5.4979,-0.03491,0.01745,0.75224,0.00000,0.00000,0.00000,42,2,67,0,37,9,64,32,ok,0,0,0.001,5,0.55,-1.99,10.01,29,0.000,8.33
5.5010,-0.03491,0.01745,0.75224,0.00000,0.00000,0.00000,43,1,66,-2,39,8,64,34,ok,0,0,0.001,5,0.55,-1.99,10.01,29,0.013,8.33
5.5135,-0.03491,0.01745,0.75224,0.00000,0.00000,0.00000,44,2,64,-3,40,8,64,35,ok,0,0,0.002,5,0.55,-1.99,10.01,29,0.026,8.33
5.5339,-0.03491,0.01745,0.75224,0.00000,0.00000,0.00000,44,2,62,-4,41,7,65,35,ok,0,0,0.001,5,0.55,-1.99,10.01,29,0.039,8.33
5.5386,-0.03491,0.01745,0.75224,0.00000,0.00000,0.00000,46,2,61,-6,42,7,66,34,ok,0,0,0.002,5,0.55,-1.99,10.01,29,0.051,8.33
5.5512,-0.03491,0.01745,0.75224,0.00000,0.00000,0.00000,47,2,60,-8,43,7,68,32,ok,0,0,0.002,5,0.55,-1.99,10.01,29,0.064,8.33
5.5739,-0.03491,0.01745,0.75224,0.00000,0.00000,0.00000,49,3,58,-8,44,8,70,27,ok,0,0,0.002,5,0.55,-1.99,10.01,29,0.076,8.33
5.5770,-0.03491,0.01745,0.75224,0.00000,0.00000,0.00000,50,2,56,-9,45,7,71,23,ok,0,0,0.002,5,0.55,-1.99,10.01,29,0.089,8.33
5.5896,-0.03491,0.01745,0.75224,0.00000,0.00000,0.00000,50,2,54,-9,46,7,73,20,ok,0,0,0.002,5,0.55,-1.99,10.01,29,0.102,8.33
5.6099,-0.03491,0.01745,0.75224,0.00000,0.00000,0.00000,50,4,51,-10,47,7,73,20,ok,0,0,0.002,5,0.55,-1.99,10.01,29,0.115,8.33
5.6148,-0.03491,0.01745,0.75224,0.00000,0.00000,0.00000,52,5,49,-10,47,8,73,18,ok,0,0,0.002,6,0.55,-1.99,10.01,29,0.127,8.33
5.6272,-0.03491,0.01745,0.75224,0.00000,0.00000,0.00000,52,5,46,-10,48,8,73,14,ok,0,0,0.002,6,0.55,-1.99,10.01,29,0.140,8.33
5.6499,-0.03491,0.01745,0.75224,0.00000,0.00000,0.00000,53,6,44,-10,49,8,72,12,ok,0,0,0.002,6,0.55,-1.99,10.01,29,0.152,8.33
5.6532,-0.03491,0.01745,0.75224,0.00000,0.00000,0.00000,54,7,42,-10,49,8,71,10,ok,0,0,0.002,6,0.55,-1.99,10.01,29,0.165,8.33
5.6655,-0.03491,0.01745,0.75224,0.00000,0.00000,0.00000,56,7,39,-10,50,8,71,7,ok,0,0,0.002,6,0.55,-1.99,10.01,29,0.178,8.33
5.6859,-0.03491,0.01745,0.75224,0.00000,0.00000,0.00000,56,7,37,-9,51,7,71,5,ok,0,0,0.002,6,0.55,-1.99,10.01,29,0.191,8.33
5.6909,-0.06109,-0.03316,0.80634,0.00000,0.00000,0.00000,57,7,33,-9,51,8,70,3,ok,0,0,0.002,6,0.04,-0.55,10.15,30,0.000,8.33
5.7032,-0.06109,-0.03316,0.80634,0.00000,0.00000,0.00000,58,8,31,-7,52,8,68,1,ok,2,0,0.002,6,0.04,-0.55,10.15,30,0.013,8.33
5.7259,-0.06109,-0.03316,0.80634,0.00000,0.00000,0.00000,58,8,27,-6,53,8,66,1,ok,2,0,0.002,6,0.04,-0.55,10.15,30,0.025,8.33
5.7292,-0.06109,-0.03316,0.80634,0.00000,0.00000,0.00000,59,8,24,-4,54,8,65,-1,ok,2,0,0.002,6,0.04,-0.55,10.15,30,0.038,8.33
5.7417,-0.06109,-0.03316,0.80634,0.00000,0.00000,0.00000,60,9,21,-2,55,8,64,-2,ok,2,0,0.002,6,0.04,-0.55,10.15,30,0.051,8.33
5.7619,-0.06109,-0.03316,0.80634,0.00000,0.00000,0.00000,60,10,19,-1,57,6,62,-3,ok,2,0,0.002,6,0.04,-0.55,10.15,30,0.064,8.33
5.7666,-0.06109,-0.03316,0.80634,0.00000,0.00000,0.00000,61,9,19,1,57,8,60,-5,ok,2,0,0.002,6,0.04,-0.55,10.15,30,0.076,8.33
5.7793,-0.06109,-0.03316,0.80634,0.00000,0.00000,0.00000,61,10,17,3,58,9,58,-5,ok,2,0,0.002,6,0.04,-0.55,10.15,30,0.089,8.33
5.8019,-0.06109,-0.03316,0.80634,0.00000,0.00000,0.00000,62,11,15,6,59,9,55,-6,ok,2,0,0.002,6,0.04,-0.55,10.15,30,0.101,8.33
5.8050,-0.06109,-0.03316,0.80634,0.00000,0.00000,0.00000,62,12,14,9,59,9,54,-6,ok,2,0,0.002,6,0.04,-0.55,10.15,30,0.114,8.33
5.8175,-0.06109,-0.03316,0.80634,0.00000,0.00000,0.00000,62,12,13,11,60,10,50,-5,ok,2,0,0.002,6,0.04,-0.55,10.15,30,0.127,8.33
5.8379,-0.06109,-0.03316,0.80634,0.00000,0.00000,0.00000,62,13,15,12,60,10,48,-5,ok,2,0,0.002,6,0.04,-0.55,10.15,30,0.140,8.33
5.8426,-0.06109,-0.03316,0.80634,0.00000,0.00000,0.00000,62,14,16,12,60,11,46,-5,ok,2,0,0.002,6,0.04,-0.55,10.15,30,0.152,8.33
5.8551,-0.06109,-0.03316,0.80634,0.00000,0.00000,0.00000,63,14,17,10,61,11,42,-4,ok,2,0,0.002,6,0.04,-0.55,10.15,30,0.164,8.33
5.8779,-0.06109,-0.03316,0.80634,0.00000,0.00000,0.00000,62,15,19,9,61,12,41,-4,ok,2,0,0.002,6,0.04,-0.55,10.15,30,0.177,8.33
5.8810,-0.06109,-0.03316,0.80634,0.00000,0.00000,0.00000,63,16,20,9,61,13,37,-3,ok,2,0,0.002,6,0.04,-0.55,10.15,30,0.190,8.33
5.8939,-0.06109,-0.03316,0.80634,0.00000,0.00000,0.00000,64,17,21,8,61,13,35,-3,ok,2,0,0.002,6,0.04,-0.55,10.15,30,0.203,8.33
5.9139,0.04363,0.03316,0.81856,0.00000,0.00000,0.00000,64,18,22,8,62,14,31,-1,ok,2,0,0.002,6,-0.00,0.58,9.65,31,0.000,8.33
5.9186,0.04363,0.03316,0.81856,0.00000,0.00000,0.00000,65,19,23,6,62,15,29,0,ok,2,0,0.002,6,-0.00,0.58,9.65,31,0.013,8.33
5.9312,0.04363,0.03316,0.81856,0.00000,0.00000,0.00000,65,20,24,5,62,16,27,1,ok,2,0,0.002,6,-0.00,0.58,9.65,31,0.025,8.33
5.9539,0.04363,0.03316,0.81856,0.00000,0.00000,0.00000,65,22,25,5,62,17,25,5,ok,2,0,0.002,6,-0.00,0.58,9.65,31,0.038,8.33
5.9570,0.04363,0.03316,0.81856,0.00000,0.00000,0.00000,65,23,26,4,63,17,24,7,ok,2,0,0.002,6,-0.00,0.58,9.65,31,0.051,8.33
5.9695,0.04363,0.03316,0.81856,0.00000,0.00000,0.00000,65,24,26,3,64,18,22,11,ok,2,0,0.002,6,-0.00,0.58,9.65,31,0.063,8.33
5.9899,0.04363,0.03316,0.81856,0.00000,0.00000,0.00000,64,27,27,2,64,19,22,13,ok,2,0,0.002,6,-0.00,0.58,9.65,31,0.076,8.33
5.9946,0.04363,0.03316,0.81856,0.00000,0.00000,0.00000,64,27,28,1,64,20,24,12,ok,2,0,0.002,6,-0.00,0.58,9.65,31,0.088,8.33
6.0072,0.04363,0.03316,0.81856,0.00000,0.00000,0.00000,65,26,29,1,64,21,24,11,ok,2,0,0.002,6,-0.00,0.58,9.65,31,0.101,8.33
6.0299,0.04363,0.03316,0.81856,0.00000,0.00000,0.00000,67,22,30,1,64,22,25,9,ok,2,0,0.002,6,-0.00,0.58,9.65,31,0.113,8.33
6.0330,0.04363,0.03316,0.81856,0.00000,0.00000,0.00000,70,19,31,1,64,24,26,9,ok,2,0,0.002,6,-0.00,0.58,9.65,31,0.127,8.33
6.0456,0.04363,0.03316,0.81856,0.00000,0.00000,0.00000,70,14,33,2,64,25,28,10,ok,2,0,0.002,6,-0.00,0.58,9.65,31,0.139,8.33
6.0659,0.04363,0.03316,0.81856,0.00000,0.00000,0.00000,71,11,34,2,65,26,29,9,ok,2,0,0.002,6,-0.00,0.58,9.65,31,0.152,8.33
6.0706,0.04363,0.03316,0.81856,0.00000,0.00000,0.00000,70,11,36,2,64,28,30,8,ok,2,0,0.002,6,-0.00,0.58,9.65,31,0.164,8.33
6.0831,0.04363,0.03316,0.81856,0.00000,0.00000,0.00000,70,7,37,2,64,29,32,8,ok,2,0,0.002,6,-0.00,0.58,9.65,31,0.177,8.33
6.1059,0.00873,0.06458,0.86568,0.00000,0.00000,0.00000,69,5,39,3,64,31,33,8,ok,2,0,0.002,6,1.30,-0.66,10.46,32,0.000,8.33
6.1090,0.00873,0.06458,0.86568,0.00000,0.00000,0.00000,69,2,40,3,64,32,35,8,ok,2,0,0.002,6,1.30,-0.66,10.46,32,0.013,8.33
6.1215,0.00873,0.06458,0.86568,0.00000,0.00000,0.00000,68,-1,42,3,63,34,36,8,ok,2,0,0.002,6,1.30,-0.66,10.46,32,0.026,8.33
6.1419,0.00873,0.06458,0.86568,0.00000,0.00000,0.00000,67,-3,43,3,63,35,37,8,ok,2,0,0.002,6,1.30,-0.66,10.46,32,0.039,8.33
6.1467,0.00873,0.06458,0.86568,0.00000,0.00000,0.00000,65,-4,44,3,64,36,38,8,ok,2,0,0.002,6,1.30,-0.66,10.46,32,0.051,8.33
6.1593,0.00873,0.06458,0.86568,0.00000,0.00000,0.00000,63,-5,44,3,65,35,39,7,ok,2,0,0.002,6,1.30,-0.66,10.46,32,0.064,8.33
6.1819,0.00873,0.06458,0.86568,0.00000,0.00000,0.00000,62,-6,45,3,67,33,41,7,ok,2,0,0.002,6,1.30,-0.66,10.46,32,0.076,8.33
6.1850,0.00873,0.06458,0.86568,0.00000,0.00000,0.00000,61,-9,47,3,69,29,42,7,ok,2,0,0.002,6,1.30,-0.66,10.46,32,0.089,8.33
6.1979,0.00873,0.06458,0.86568,0.00000,0.00000,0.00000,58,-9,48,4,71,24,43,7,ok,2,0,0.002,6,1.30,-0.66,10.46,32,0.102,8.33
6.2179,0.00873,0.06458,0.86568,0.00000,0.00000,0.00000,56,-11,49,4,72,22,44,7,ok,2,0,0.002,6,1.30,-0.66,10.46,32,0.115,8.33
6.2226,0.00873,0.06458,0.86568,0.00000,0.00000,0.00000,54,-11,49,4,73,21,45,7,ok,2,0,0.002,6,1.30,-0.66,10.46,32,0.127,8.33
6.2352,0.00873,0.06458,0.86568,0.00000,0.00000,0.00000,52,-12,50,6,73,19,46,7,ok,2,0,0.002,6,1.30,-0.66,10.46,32,0.140,8.33
6.2619,0.00873,0.06458,0.86568,0.00000,0.00000,0.00000,49,-11,51,6,73,15,47,7,ok,2,0,0.002,6,1.30,-0.66,10.46,32,0.152,8.33
6.2652,0.00873,0.06458,0.86568,0.00000,0.00000,0.00000,46,-11,52,6,73,12,48,7,ok,2,0,0.002,6,1.30,-0.66,10.46,32,0.169,8.33
6.2775,0.00873,0.06458,0.86568,0.00000,0.00000,0.00000,44,-11,53,6,73,10,49,8,ok,2,0,0.002,6,1.30,-0.66,10.46,32,0.182,8.33
6.2979,0.00873,0.06458,0.86568,0.00000,0.00000,0.00000,41,-11,53,7,72,7,50,8,ok,2,0,0.002,6,1.30,-0.66,10.46,32,0.195,8.33
6.3029,0.16406,-0.02443,0.80634,0.00000,0.00000,0.00000,38,-11,55,7,72,5,50,7,ok,2,0,0.002,6,-0.74,1.65,8.98,33,0.000,8.33
6.3152,0.16406,-0.02443,0.80634,0.00000,0.00000,0.00000,36,-10,56,6,71,5,51,8,ok,0,0,0.002,6,-0.74,1.65,8.98,33,0.013,8.33
6.3379,0.16406,-0.02443,0.80634,0.00000,0.00000,0.00000,32,-9,57,6,69,2,52,7,ok,0,0,0.002,6,-0.74,1.65,8.98,33,0.025,8.33
6.3410,0.16406,-0.02443,0.80634,0.00000,0.00000,0.00000,29,-7,57,7,67,3,52,8,ok,0,0,0.002,6,-0.74,1.65,8.98,33,0.038,8.33
6.3536,0.16406,-0.02443,0.80634,0.00000,0.00000,0.00000,26,-5,58,7,65,0,52,8,ok,0,0,0.002,6,-0.74,1.65,8.98,33,0.051,8.33
6.3739,0.16406,-0.02443,0.80634,0.00000,0.00000,0.00000,24,-3,59,7,64,-1,54,8,ok,0,0,0.002,6,-0.74,1.65,8.98,33,0.064,8.33
6.3786,0.16406,-0.02443,0.80634,0.00000,0.00000,0.00000,20,0,60,8,62,-3,54,8,ok,0,0,0.002,6,-0.74,1.65,8.98,33,0.076,8.33
6.3912,0.16406,-0.02443,0.80634,0.00000,0.00000,0.00000,19,0,61,9,60,-4,54,7,ok,0,0,0.002,6,-0.74,1.65,8.98,33,0.089,8.33
6.4139,0.16406,-0.02443,0.80634,0.00000,0.00000,0.00000,18,1,61,9,58,-5,56,5,ok,0,0,0.002,6,-0.74,1.65,8.98,33,0.101,8.33
6.4170,0.16406,-0.02443,0.80634,0.00000,0.00000,0.00000,16,3,61,10,55,-6,57,6,ok,0,0,0.002,6,-0.74,1.65,8.98,33,0.114,8.33
6.4295,0.16406,-0.02443,0.80634,0.00000,0.00000,0.00000,15,6,61,10,54,-6,57,7,ok,0,0,0.002,6,-0.74,1.65,8.98,33,0.127,8.33
6.4499,0.16406,-0.02443,0.80634,0.00000,0.00000,0.00000,13,9,61,11,51,-6,58,8,ok,0,0,0.002,6,-0.74,1.65,8.98,33,0.140,8.33
6.4546,0.16406,-0.02443,0.80634,0.00000,0.00000,0.00000,12,11,62,12,48,-5,59,8,ok,0,0,0.002,6,-0.74,1.65,8.98,33,0.152,8.33
6.4674,0.16406,-0.02443,0.80634,0.00000,0.00000,0.00000,14,11,62,13,45,-5,59,9,ok,0,0,0.002,6,-0.74,1.65,8.98,33,0.165,8.33
6.4899,0.16406,-0.02443,0.80634,0.00000,0.00000,0.00000,14,11,62,14,42,-4,59,9,ok,0,0,0.002,6,-0.74,1.65,8.98,33,0.177,8.33
6.4930,0.16406,-0.02443,0.80634,0.00000,0.00000,0.00000,16,9,63,14,40,-4,60,10,ok,0,0,0.002,6,-0.74,1.65,8.98,33,0.190,8.33
6.5059,0.07330,0.07854,0.85347,0.00000,0.00000,0.00000,18,9,62,14,37,-3,60,11,ok,0,0,0.002,6,1.12,1.16,9.76,34,0.000,8.33
6.5259,0.07330,0.07854,0.85347,0.00000,0.00000,0.00000,18,8,63,15,34,-3,61,12,ok,0,0,0.002,6,1.12,1.16,9.76,34,0.013,8.33
6.5308,0.07330,0.07854,0.85347,0.00000,0.00000,0.00000,20,7,63,16,30,-2,61,12,ok,0,0,0.002,6,1.12,1.16,9.76,34,0.025,8.33
6.5431,0.07330,0.07854,0.85347,0.00000,0.00000,0.00000,21,7,63,18,29,0,62,13,ok,0,0,0.002,6,1.12,1.16,9.76,34,0.038,8.33
6.5659,0.07330,0.07854,0.85347,0.00000,0.00000,0.00000,22,5,64,19,27,1,62,14,ok,0,0,0.002,6,1.12,1.16,9.76,34,0.050,8.33
6.5690,0.07330,0.07854,0.85347,0.00000,0.00000,0.00000,23,4,64,20,25,5,63,14,ok,0,0,0.002,6,1.12,1.16,9.76,34,0.063,8.33
6.5815,0.07330,0.07854,0.85347,0.00000,0.00000,0.00000,24,3,64,21,24,8,63,16,ok,0,0,0.002,6,1.12,1.16,9.76,34,0.076,8.33
6.6019,0.07330,0.07854,0.85347,0.00000,0.00000,0.00000,25,3,64,22,23,11,63,17,ok,0,0,0.002,6,1.12,1.16,9.76,34,0.089,8.33
6.6066,0.07330,0.07854,0.85347,0.00000,0.00000,0.00000,26,2,64,24,22,15,64,17,ok,0,0,0.002,6,1.12,1.16,9.76,34,0.101,8.33
6.6193,0.07330,0.07854,0.85347,0.00000,0.00000,0.00000,27,2,63,26,24,14,64,18,ok,0,0,0.002,6,1.12,1.16,9.76,34,0.114,8.33
6.6419,0.07330,0.07854,0.85347,0.00000,0.00000,0.00000,28,1,63,27,24,14,65,19,ok,0,0,0.002,7,1.12,1.16,9.76,34,0.126,8.33
6.6450,0.07330,0.07854,0.85347,0.00000,0.00000,0.00000,29,1,64,26,25,12,65,20,ok,0,0,0.002,7,1.12,1.16,9.76,34,0.139,8.33
6.6576,0.07330,0.07854,0.85347,0.00000,0.00000,0.00000,30,1,67,22,26,11,65,20,ok,0,0,0.002,7,1.12,1.16,9.76,34,0.152,8.33
6.6779,0.07330,0.07854,0.85347,0.00000,0.00000,0.00000,31,1,69,19,28,11,65,22,ok,0,0,0.002,7,1.12,1.16,9.76,34,0.165,8.33
6.6826,0.07330,0.07854,0.85347,0.00000,0.00000,0.00000,33,1,70,15,29,11,65,23,ok,0,0,0.002,7,1.12,1.16,9.76,34,0.177,8.33
6.6953,0.07330,0.07854,0.85347,0.00000,0.00000,0.00000,34,1,70,12,30,9,65,25,ok,0,0,0.002,7,1.12,1.16,9.76,34,0.190,8.33
6.7179,0.00349,0.05411,0.84125,0.00000,0.00000,0.00000,36,1,70,12,33,10,65,25,ok,0,0,0.002,7,-1.09,-0.42,8.69,35,0.000,8.33
6.7210,0.00349,0.05411,0.84125,0.00000,0.00000,0.00000,38,1,70,9,33,9,65,28,ok,0,0,0.002,7,-1.09,-0.42,8.69,35,0.013,8.33
6.7335,0.00349,0.05411,0.84125,0.00000,0.00000,0.00000,39,2,69,6,35,9,64,29,ok,0,0,0.002,7,-1.09,-0.42,8.69,35,0.026,8.33
6.7539,0.00349,0.05411,0.84125,0.00000,0.00000,0.00000,41,2,69,3,36,9,65,30,ok,0,0,0.002,7,-1.09,-0.42,8.69,35,0.039,8.33
6.7586,0.00349,0.05411,0.84125,0.00000,0.00000,0.00000,42,2,67,0,37,9,64,32,ok,0,0,0.002,7,-1.09,-0.42,8.69,35,0.051,8.33
6.7714,0.00349,0.05411,0.84125,0.00000,0.00000,0.00000,43,1,66,-1,38,8,64,34,ok,0,0,0.002,7,-1.09,-0.42,8.69,35,0.064,8.33
6.7939,0.00349,0.05411,0.84125,0.00000,0.00000,0.00000,44,2,64,-3,39,8,64,35,ok,0,0,0.002,7,-1.09,-0.42,8.69,35,0.076,8.33
6.7970,0.00349,0.05411,0.84125,0.00000,0.00000,0.00000,44,2,62,-4,40,7,65,35,ok,0,0,0.002,7,-1.09,-0.42,8.69,35,0.090,8.33
6.8097,0.00349,0.05411,0.84125,0.00000,0.00000,0.00000,46,2,61,-5,42,7,66,34,ok,0,0,0.002,7,-1.09,-0.42,8.69,35,0.102,8.33
6.8299,0.00349,0.05411,0.84125,0.00000,0.00000,0.00000,47,2,60,-8,43,7,68,32,ok,0,0,0.002,7,-1.09,-0.42,8.69,35,0.115,8.33
6.8346,0.00349,0.05411,0.84125,0.00000,0.00000,0.00000,48,3,58,-8,44,8,69,27,ok,0,0,0.002,7,-1.09,-0.42,8.69,35,0.127,8.33
6.8474,0.00349,0.05411,0.84125,0.00000,0.00000,0.00000,50,3,55,-9,44,8,71,23,ok,0,0,0.002,7,-1.09,-0.42,8.69,35,0.140,8.33
6.8699,0.00349,0.05411,0.84125,0.00000,0.00000,0.00000,50,3,53,-9,46,7,72,20,ok,0,0,0.002,7,-1.09,-0.42,8.69,35,0.152,8.33
6.8730,0.00349,0.05411,0.84125,0.00000,0.00000,0.00000,50,5,51,-10,47,7,73,20,ok,0,0,0.002,7,-1.09,-0.42,8.69,35,0.165,8.33
6.8855,0.00349,0.05411,0.84125,0.00000,0.00000,0.00000,51,6,49,-10,47,8,73,18,ok,0,0,0.002,7,-1.09,-0.42,8.69,35,0.178,8.33
6.9059,0.00349,0.05411,0.84125,0.00000,0.00000,0.00000,52,5,46,-10,48,8,73,14,ok,0,0,0.002,7,-1.09,-0.42,8.69,35,0.191,8.33
6.9108,-0.07505,0.05236,0.86219,0.00000,0.00000,0.00000,53,6,44,-10,49,8,72,11,ok,0,0,0.002,7,0.25,-0.84,9.43,36,0.000,8.33
6.9234,-0.07505,0.05236,0.86219,0.00000,0.00000,0.00000,53,7,41,-10,49,7,72,10,ok,0,0,0.002,7,0.25,-0.84,9.43,36,0.013,8.33
6.9459,-0.07505,0.05236,0.86219,0.00000,0.00000,0.00000,56,7,39,-10,50,8,71,6,ok,0,0,0.002,7,0.25,-0.84,9.43,36,0.025,8.33
6.9490,-0.07505,0.05236,0.86219,0.00000,0.00000,0.00000,56,7,36,-9,51,7,71,5,ok,0,0,0.002,7,0.25,-0.84,9.43,36,0.038,8.33
6.9615,-0.07505,0.05236,0.86219,0.00000,0.00000,0.00000,57,7,33,-8,51,7,70,3,ok,0,0,0.002,7,0.25,-0.84,9.43,36,0.051,8.33
6.9819,-0.07505,0.05236,0.86219,0.00000,0.00000,0.00000,57,7,30,-7,52,8,68,1,ok,0,0,0.002,7,0.25,-0.84,9.43,36,0.063,8.33
6.9867,-0.07505,0.05236,0.86219,0.00000,0.00000,0.00000,58,7,27,-6,53,8,66,1,ok,0,0,0.002,7,0.25,-0.84,9.43,36,0.076,8.33
6.9992,-0.07505,0.05236,0.86219,0.00000,0.00000,0.00000,59,8,24,-4,54,8,65,-1,ok,2,0,0.002,7,0.25,-0.84,9.43,36,0.088,8.33
7.0219,-0.07505,0.05236,0.86219,0.00000,0.00000,0.00000,60,9,20,-2,55,9,64,-2,ok,2,0,0.002,7,0.25,-0.84,9.43,36,0.101,8.33
7.0250,-0.07505,0.05236,0.86219,0.00000,0.00000,0.00000,60,9,19,-1,58,7,62,-3,ok,2,0,0.002,7,0.25,-0.84,9.43,36,0.114,8.33
7.0375,-0.07505,0.05236,0.86219,0.00000,0.00000,0.00000,60,9,18,1,58,8,60,-5,ok,2,0,0.002,7,0.25,-0.84,9.43,36,0.127,8.33
7.0579,-0.07505,0.05236,0.86219,0.00000,0.00000,0.00000,61,10,16,3,59,8,58,-5,ok,2,0,0.002,7,0.25,-0.84,9.43,36,0.140,8.33
7.0627,-0.07505,0.05236,0.86219,0.00000,0.00000,0.00000,61,11,15,6,59,9,56,-6,ok,2,0,0.002,7,0.25,-0.84,9.43,36,0.152,8.33
7.0754,-0.07505,0.05236,0.86219,0.00000,0.00000,0.00000,61,12,13,9,59,9,54,-7,ok,2,0,0.002,7,0.25,-0.84,9.43,36,0.164,8.33
7.0979,-0.07505,0.05236,0.86219,0.00000,0.00000,0.00000,61,12,12,11,60,10,51,-6,ok,2,0,0.002,7,0.25,-0.84,9.43,36,0.177,8.33
7.1012,-0.07505,0.05236,0.86219,0.00000,0.00000,0.00000,62,13,14,12,60,10,48,-5,ok,2,0,0.002,7,0.25,-0.84,9.43,36,0.190,8.33
7.1139,0.04887,0.02967,0.88139,0.00000,0.00000,0.00000,61,13,15,11,61,11,46,-5,ok,2,0,0.002,7,-0.75,0.96,10.59,37,0.000,8.33
7.1339,0.04887,0.02967,0.88139,0.00000,0.00000,0.00000,62,14,16,10,61,12,42,-5,ok,2,0,0.002,7,-0.75,0.96,10.59,37,0.013,8.33
7.1386,0.04887,0.02967,0.88139,0.00000,0.00000,0.00000,61,15,18,9,61,13,40,-5,ok,2,0,0.002,7,-0.75,0.96,10.59,37,0.025,8.33
7.1512,0.04887,0.02967,0.88139,0.00000,0.00000,0.00000,62,16,19,8,62,13,37,-4,ok,2,0,0.002,7,-0.75,0.96,10.59,37,0.038,8.33
7.1739,0.04887,0.02967,0.88139,0.00000,0.00000,0.00000,63,17,21,7,62,14,35,-4,ok,2,0,0.002,7,-0.75,0.96,10.59,37,0.050,8.33
7.1771,0.04887,0.02967,0.88139,0.00000,0.00000,0.00000,63,18,21,7,62,15,31,-2,ok,2,0,0.002,7,-0.75,0.96,10.59,37,0.063,8.33
7.1895,0.04887,0.02967,0.88139,0.00000,0.00000,0.00000,64,20,23,5,63,15,30,-1,ok,2,0,0.002,7,-0.75,0.96,10.59,37,0.076,8.33
7.2099,0.04887,0.02967,0.88139,0.00000,0.00000,0.00000,64,21,24,4,63,16,27,1,ok,2,0,0.002,7,-0.75,0.96,10.59,37,0.088,8.33
7.2146,0.04887,0.02967,0.88139,0.00000,0.00000,0.00000,65,22,24,4,62,17,25,4,ok,2,0,0.002,7,-0.75,0.96,10.59,37,0.101,8.33
7.2272,0.04887,0.02967,0.88139,0.00000,0.00000,0.00000,65,23,25,3,63,17,24,6,ok,2,0,0.002,7,-0.75,0.96,10.59,37,0.113,8.33
7.2499,0.04887,0.02967,0.88139,0.00000,0.00000,0.00000,65,24,26,3,64,18,23,10,ok,2,0,0.002,7,-0.75,0.96,10.59,37,0.126,8.33
7.2531,0.04887,0.02967,0.88139,0.00000,0.00000,0.00000,64,26,27,2,64,19,22,12,ok,2,0,0.002,7,-0.75,0.96,10.59,37,0.139,8.33
7.2655,0.04887,0.02967,0.88139,0.00000,0.00000,0.00000,64,26,28,2,64,20,25,11,ok,2,0,0.002,7,-0.75,0.96,10.59,37,0.152,8.33
7.2859,0.04887,0.02967,0.88139,0.00000,0.00000,0.00000,65,25,29,2,64,22,25,11,ok,2,0,0.002,7,-0.75,0.96,10.59,37,0.164,8.33
7.2906,0.04887,0.02967,0.88139,0.00000,0.00000,0.00000,67,21,30,2,64,23,25,9,ok,2,0,0.002,7,-0.75,0.96,10.59,37,0.177,8.33
7.3032,0.04887,0.02967,0.88139,0.00000,0.00000,0.00000,69,18,31,1,64,24,27,9,ok,2,0,0.002,7,-0.75,0.96,10.59,37,0.189,8.33
7.3259,0.09076,0.03316,0.92328,0.00000,0.00000,0.00000,70,13,33,2,64,25,28,9,ok,2,0,0.002,7,1.85,-1.06,10.14,38,0.000,8.33
7.3291,0.09076,0.03316,0.92328,0.00000,0.00000,0.00000,70,11,34,2,65,26,29,9,ok,2,0,0.002,7,1.85,-1.06,10.14,38,0.013,8.33
7.3415,0.09076,0.03316,0.92328,0.00000,0.00000,0.00000,70,11,36,2,64,28,30,8,ok,2,0,0.002,7,1.85,-1.06,10.14,38,0.026,8.33
7.3619,0.09076,0.03316,0.92328,0.00000,0.00000,0.00000,70,8,37,2,64,29,32,8,ok,2,0,0.002,7,1.85,-1.06,10.14,38,0.038,8.33
7.3666,0.09076,0.03316,0.92328,0.00000,0.00000,0.00000,69,5,39,3,64,31,33,8,ok,2,0,0.002,7,1.85,-1.06,10.14,38,0.051,8.33
7.3792,0.09076,0.03316,0.92328,0.00000,0.00000,0.00000,69,2,40,3,64,33,34,8,ok,2,0,0.002,7,1.85,-1.06,10.14,38,0.064,8.33
7.4019,0.09076,0.03316,0.92328,0.00000,0.00000,0.00000,68,0,42,2,63,34,36,8,ok,2,0,0.002,7,1.85,-1.06,10.14,38,0.076,8.33
7.4050,0.09076,0.03316,0.92328,0.00000,0.00000,0.00000,67,-2,43,2,63,35,37,8,ok,2,0,0.002,7,1.85,-1.06,10.14,38,0.089,8.33
7.4178,0.09076,0.03316,0.92328,0.00000,0.00000,0.00000,65,-3,44,2,64,36,38,7,ok,2,0,0.002,7,1.85,-1.06,10.14,38,0.102,8.33
7.4379,0.09076,0.03316,0.92328,0.00000,0.00000,0.00000,63,-5,45,2,65,36,39,7,ok,2,0,0.002,7,1.85,-1.06,10.14,38,0.115,8.33
7.4426,0.09076,0.03316,0.92328,0.00000,0.00000,0.00000,62,-6,46,3,67,34,41,6,ok,2,0,0.002,7,1.85,-1.06,10.14,38,0.127,8.33
7.4552,0.09076,0.03316,0.92328,0.00000,0.00000,0.00000,61,-8,47,3,69,29,42,6,ok,2,0,0.002,7,1.85,-1.06,10.14,38,0.140,8.33
7.4779,0.09076,0.03316,0.92328,0.00000,0.00000,0.00000,59,-9,48,4,71,25,43,6,ok,2,0,0.002,7,1.85,-1.06,10.14,38,0.152,8.33
7.4811,0.09076,0.03316,0.92328,0.00000,0.00000,0.00000,56,-10,49,4,72,22,44,6,ok,2,0,0.002,7,1.85,-1.06,10.14,38,0.165,8.33
7.4938,0.09076,0.03316,0.92328,0.00000,0.00000,0.00000,54,-10,50,4,73,21,45,6,ok,2,0,0.002,7,1.85,-1.06,10.14,38,0.178,8.33
7.5139,0.09076,0.03316,0.92328,0.00000,0.00000,0.00000,52,-11,50,6,73,19,46,6,ok,2,0,0.002,7,1.85,-1.06,10.14,38,0.191,8.33
7.5189,0.09774,0.05585,0.93724,0.00000,0.00000,0.00000,49,-11,51,6,73,15,47,7,ok,2,0,0.002,7,0.22,0.81,10.68,39,0.000,8.33
7.5312,0.09774,0.05585,0.93724,0.00000,0.00000,0.00000,46,-11,52,6,73,12,48,7,ok,2,0,0.002,7,0.22,0.81,10.68,39,0.013,8.33
7.5539,0.09774,0.05585,0.93724,0.00000,0.00000,0.00000,44,-11,53,6,72,11,49,7,ok,2,0,0.002,7,0.22,0.81,10.68,39,0.025,8.33
7.5571,0.09774,0.05585,0.93724,0.00000,0.00000,0.00000,41,-11,53,7,72,7,49,8,ok,0,0,0.002,7,0.22,0.81,10.68,39,0.038,8.33
7.5698,0.09774,0.05585,0.93724,0.00000,0.00000,0.00000,38,-11,56,7,71,5,50,7,ok,0,0,0.002,7,0.22,0.81,10.68,39,0.051,8.33
7.5899,0.09774,0.05585,0.93724,0.00000,0.00000,0.00000,36,-10,56,7,70,4,51,8,ok,0,0,0.002,7,0.22,0.81,10.68,39,0.063,8.33
7.5946,0.09774,0.05585,0.93724,0.00000,0.00000,0.00000,32,-9,57,7,69,2,52,7,ok,0,0,0.002,7,0.22,0.81,10.68,39,0.076,8.33
7.6071,0.09774,0.05585,0.93724,0.00000,0.00000,0.00000,30,-8,57,8,66,2,52,7,ok,0,0,0.002,7,0.22,0.81,10.68,39,0.088,8.33
7.6299,0.09774,0.05585,0.93724,0.00000,0.00000,0.00000,26,-6,58,8,64,0,53,8,ok,0,0,0.002,7,0.22,0.81,10.68,39,0.101,8.33
7.6330,0.09774,0.05585,0.93724,0.00000,0.00000,0.00000,23,-4,58,8,63,-2,54,8,ok,0,0,0.002,7,0.22,0.81,10.68,39,0.114,8.33
7.6456,0.09774,0.05585,0.93724,0.00000,0.00000,0.00000,19,-2,59,9,61,-3,55,8,ok,0,0,0.002,8,0.22,0.81,10.68,39,0.127,8.33
7.6659,0.09774,0.05585,0.93724,0.00000,0.00000,0.00000,19,-2,60,11,60,-4,55,7,ok,0,0,0.002,8,0.22,0.81,10.68,39,0.139,8.33
7.6707,0.09774,0.05585,0.93724,0.00000,0.00000,0.00000,18,-1,61,10,58,-5,57,5,ok,0,0,0.002,8,0.22,0.81,10.68,39,0.152,8.33
7.6832,0.09774,0.05585,0.93724,0.00000,0.00000,0.00000,16,2,61,11,55,-6,57,6,ok,0,0,0.002,8,0.22,0.81,10.68,39,0.165,8.33
7.7059,0.09774,0.05585,0.93724,0.00000,0.00000,0.00000,14,5,61,11,54,-6,58,7,ok,0,0,0.002,8,0.22,0.81,10.68,39,0.177,8.33
7.7093,0.12741,0.00000,0.94771,0.00000,0.00000,0.00000,12,8,61,12,51,-6,59,8,ok,0,0,0.002,8,0.85,0.81,10.92,40,0.000,8.33
7.7215,0.12741,0.00000,0.94771,0.00000,0.00000,0.00000,11,10,61,12,48,-5,59,8,ok,0,0,0.002,8,0.85,0.81,10.92,40,0.013,8.33
7.7419,0.12741,0.00000,0.94771,0.00000,0.00000,0.00000,13,11,61,12,46,-5,60,9,ok,0,0,0.002,8,0.85,0.81,10.92,40,0.025,8.33
7.7466,0.12741,0.00000,0.94771,0.00000,0.00000,0.00000,14,11,61,13,43,-4,60,9,ok,0,0,0.002,8,0.85,0.81,10.92,40,0.038,8.33
7.7592,0.12741,0.00000,0.94771,0.00000,0.00000,0.00000,15,10,62,13,40,-4,61,10,ok,0,0,0.002,8,0.85,0.81,10.92,40,0.050,8.33
7.7819,0.12741,0.00000,0.94771,0.00000,0.00000,0.00000,17,9,62,14,37,-3,61,11,ok,0,0,0.002,8,0.85,0.81,10.92,40,0.063,8.33
7.7850,0.12741,0.00000,0.94771,0.00000,0.00000,0.00000,18,9,63,15,34,-2,61,12,ok,0,0,0.002,8,0.85,0.81,10.92,40,0.076,8.33
7.7975,0.12741,0.00000,0.94771,0.00000,0.00000,0.00000,20,8,63,15,31,-1,61,12,ok,0,0,0.002,8,0.85,0.81,10.92,40,0.089,8.33
7.8179,0.12741,0.00000,0.94771,0.00000,0.00000,0.00000,21,7,63,16,29,0,62,13,ok,0,0,0.002,8,0.85,0.81,10.92,40,0.101,8.33
7.8228,0.12741,0.00000,0.94771,0.00000,0.00000,0.00000,22,6,64,18,27,2,62,14,ok,0,0,0.002,8,0.85,0.81,10.92,40,0.114,8.33
7.8352,0.12741,0.00000,0.94771,0.00000,0.00000,0.00000,24,5,64,19,25,5,63,14,ok,0,0,0.002,8,0.85,0.81,10.92,40,0.126,8.33
7.8579,0.12741,0.00000,0.94771,0.00000,0.00000,0.00000,24,5,64,20,24,8,63,15,ok,0,0,0.002,8,0.85,0.81,10.92,40,0.139,8.33
7.8610,0.12741,0.00000,0.94771,0.00000,0.00000,0.00000,25,4,64,21,23,12,63,16,ok,0,0,0.002,8,0.85,0.81,10.92,40,0.152,8.33
7.8735,0.12741,0.00000,0.94771,0.00000,0.00000,0.00000,26,4,64,22,22,15,64,17,ok,0,0,0.002,8,0.85,0.81,10.92,40,0.165,8.33
7.8939,0.12741,0.00000,0.94771,0.00000,0.00000,0.00000,28,3,64,25,24,14,64,18,ok,0,0,0.002,8,0.85,0.81,10.92,40,0.177,8.33
7.8988,0.12741,0.00000,0.94771,0.00000,0.00000,0.00000,28,2,64,27,24,14,64,18,ok,0,0,0.002,8,0.85,0.81,10.92,40,0.190,8.33
7.9113,0.12741,0.00000,0.94771,0.00000,0.00000,0.00000,30,2,65,25,25,12,64,19,ok,0,0,0.002,8,0.85,0.81,10.92,40,0.202,8.33
7.9339,0.07854,0.15882,0.94597,0.00000,0.00000,0.00000,31,2,67,22,26,12,64,20,ok,0,0,0.002,8,0.13,1.06,7.37,41,0.000,8.33
7.9370,0.07854,0.15882,0.94597,0.00000,0.00000,0.00000,32,1,70,19,27,11,65,21,ok,0,0,0.002,8,0.13,1.06,7.37,41,0.013,8.33
7.9496,0.07854,0.15882,0.94597,0.00000,0.00000,0.00000,34,1,71,15,28,11,64,23,ok,0,0,0.002,8,0.13,1.06,7.37,41,0.026,8.33
7.9699,0.07854,0.15882,0.94597,0.00000,0.00000,0.00000,35,1,71,13,29,9,64,25,ok,0,0,0.002,8,0.13,1.06,7.37,41,0.039,8.33
7.9746,0.07854,0.15882,0.94597,0.00000,0.00000,0.00000,37,1,70,12,32,9,65,25,ok,0,0,0.002,8,0.13,1.06,7.37,41,0.051,8.33
7.9871,0.07854,0.15882,0.94597,0.00000,0.00000,0.00000,37,1,70,9,32,9,64,28,ok,0,0,0.002,8,0.13,1.06,7.37,41,0.064,8.33
8.0099,0.07854,0.15882,0.94597,0.00000,0.00000,0.00000,39,1,69,6,35,9,64,29,ok,0,0,0.002,8,0.13,1.06,7.37,41,0.076,8.33
8.0130,0.07854,0.15882,0.94597,0.00000,0.00000,0.00000,40,1,68,3,36,9,64,30,ok,0,0,0.002,8,0.13,1.06,7.37,41,0.089,8.33
8.0255,0.07854,0.15882,0.94597,0.00000,0.00000,0.00000,41,1,67,1,37,10,64,32,ok,0,0,0.002,8,0.13,1.06,7.37,41,0.102,8.33
8.0459,0.07854,0.15882,0.94597,0.00000,0.00000,0.00000,42,1,66,-1,38,9,64,34,ok,0,0,0.002,8,0.13,1.06,7.37,41,0.115,8.33
8.0506,0.07854,0.15882,0.94597,0.00000,0.00000,0.00000,43,1,64,-3,39,9,64,35,ok,0,0,0.002,8,0.13,1.06,7.37,41,0.127,8.33
8.0631,0.07854,0.15882,0.94597,0.00000,0.00000,0.00000,44,1,62,-4,41,8,65,35,ok,0,0,0.002,8,0.13,1.06,7.37,41,0.140,8.33
8.0860,0.07854,0.15882,0.94597,0.00000,0.00000,0.00000,45,2,60,-6,42,8,66,34,ok,0,0,0.002,8,0.13,1.06,7.37,41,0.152,8.33
8.0891,0.07854,0.15882,0.94597,0.00000,0.00000,0.00000,46,2,60,-8,43,8,68,31,ok,0,0,0.002,8,0.13,1.06,7.37,41,0.166,8.33
8.1017,0.07854,0.15882,0.94597,0.00000,0.00000,0.00000,48,3,57,-8,44,8,70,26,ok,0,0,0.002,8,0.13,1.06,7.37,41,0.178,8.33
8.1219,0.07854,0.15882,0.94597,0.00000,0.00000,0.00000,49,2,55,-9,45,8,71,22,ok,0,0,0.002,8,0.13,1.06,7.37,41,0.191,8.33
8.1269,-0.10472,0.05585,0.98437,0.00000,0.00000,0.00000,49,2,53,-9,46,8,73,20,ok,0,0,0.002,8,-0.82,-0.76,10.10,42,0.000,8.33
8.1394,-0.10472,0.05585,0.98437,0.00000,0.00000,0.00000,50,4,50,-10,47,7,74,19,ok,0,0,0.002,8,-0.82,-0.76,10.10,42,0.013,8.33
8.1619,-0.10472,0.05585,0.98437,0.00000,0.00000,0.00000,51,4,48,-10,47,7,74,17,ok,0,0,0.002,8,-0.82,-0.76,10.10,42,0.025,8.33
8.1650,-0.10472,0.05585,0.98437,0.00000,0.00000,0.00000,52,4,46,-10,48,7,74,14,ok,0,0,0.002,8,-0.82,-0.76,10.10,42,0.038,8.33
8.1778,-0.10472,0.05585,0.98437,0.00000,0.00000,0.00000,52,4,44,-9,48,8,74,11,ok,0,0,0.002,8,-0.82,-0.76,10.10,42,0.051,8.33
8.1979,-0.10472,0.05585,0.98437,0.00000,0.00000,0.00000,53,5,41,-9,49,8,73,10,ok,0,0,0.002,8,-0.82,-0.76,10.10,42,0.063,8.33
8.2026,-0.10472,0.05585,0.98437,0.00000,0.00000,0.00000,55,5,39,-10,50,8,72,6,ok,0,0,0.002,8,-0.82,-0.76,10.10,42,0.076,8.33
8.2152,-0.10472,0.05585,0.98437,0.00000,0.00000,0.00000,56,5,36,-8,51,7,72,5,ok,0,0,0.002,8,-0.82,-0.76,10.10,42,0.088,8.33
8.2379,-0.10472,0.05585,0.98437,0.00000,0.00000,0.00000,57,6,33,-8,52,8,70,3,ok,0,0,0.002,8,-0.82,-0.76,10.10,42,0.101,8.33
8.2410,-0.10472,0.05585,0.98437,0.00000,0.00000,0.00000,57,6,30,-7,53,8,69,1,ok,0,0,0.002,8,-0.82,-0.76,10.10,42,0.114,8.33
8.2535,-0.10472,0.05585,0.98437,0.00000,0.00000,0.00000,58,7,27,-6,54,8,67,1,ok,0,0,0.002,8,-0.82,-0.76,10.10,42,0.127,8.33
8.2739,-0.10472,0.05585,0.98437,0.00000,0.00000,0.00000,58,8,24,-4,54,8,65,-1,ok,0,0,0.002,8,-0.82,-0.76,10.10,42,0.139,8.33
8.2786,-0.10472,0.05585,0.98437,0.00000,0.00000,0.00000,60,10,20,-2,55,8,64,-2,ok,2,0,0.002,8,-0.82,-0.76,10.10,42,0.152,8.33
8.2911,-0.10472,0.05585,0.98437,0.00000,0.00000,0.00000,60,10,19,-1,57,6,62,-4,ok,2,0,0.002,8,-0.82,-0.76,10.10,42,0.164,8.33
8.3139,-0.10472,0.05585,0.98437,0.00000,0.00000,0.00000,61,10,18,0,58,8,60,-5,ok,2,0,0.002,8,-0.82,-0.76,10.10,42,0.177,8.33
8.3173,-0.10472,0.05585,0.98437,0.00000,0.00000,0.00000,61,11,16,3,58,8,58,-5,ok,2,0,0.002,8,-0.82,-0.76,10.10,42,0.190,8.33
8.3300,-0.01920,-0.00873,0.99309,0.00000,0.00000,0.00000,61,11,15,6,59,9,56,-6,ok,2,0,0.002,8,-0.22,0.13,9.68,43,0.000,8.33
8.3499,-0.01920,-0.00873,0.99309,0.00000,0.00000,0.00000,61,12,13,9,60,9,54,-7,ok,2,0,0.002,8,-0.22,0.13,9.68,43,0.013,8.33
8.3546,-0.01920,-0.00873,0.99309,0.00000,0.00000,0.00000,61,12,12,11,60,10,50,-6,ok,2,0,0.002,8,-0.22,0.13,9.68,43,0.025,8.33
8.3671,-0.01920,-0.00873,0.99309,0.00000,0.00000,0.00000,61,13,14,11,61,10,48,-5,ok,2,0,0.002,8,-0.22,0.13,9.68,43,0.038,8.33
8.3899,-0.01920,-0.00873,0.99309,0.00000,0.00000,0.00000,61,14,15,11,61,11,46,-6,ok,2,0,0.002,8,-0.22,0.13,9.68,43,0.050,8.33
8.3930,-0.01920,-0.00873,0.99309,0.00000,0.00000,0.00000,62,14,17,10,61,11,43,-5,ok,2,0,0.002,8,-0.22,0.13,9.68,43,0.063,8.33
8.4058,-0.01920,-0.00873,0.99309,0.00000,0.00000,0.00000,62,16,19,9,61,12,41,-5,ok,2,0,0.002,8,-0.22,0.13,9.68,43,0.076,8.33
8.4259,-0.01920,-0.00873,0.99309,0.00000,0.00000,0.00000,63,16,19,8,61,13,37,-4,ok,2,0,0.002,8,-0.22,0.13,9.68,43,0.089,8.33
8.4306,-0.01920,-0.00873,0.99309,0.00000,0.00000,0.00000,63,17,21,7,61,13,35,-4,ok,2,0,0.002,8,-0.22,0.13,9.68,43,0.101,8.33
8.4431,-0.01920,-0.00873,0.99309,0.00000,0.00000,0.00000,63,18,22,7,62,14,31,-2,ok,2,0,0.002,8,-0.22,0.13,9.68,43,0.114,8.33
8.4659,-0.01920,-0.00873,0.99309,0.00000,0.00000,0.00000,65,20,23,6,62,14,30,-1,ok,2,0,0.002,8,-0.22,0.13,9.68,43,0.126,8.33
8.4690,-0.01920,-0.00873,0.99309,0.00000,0.00000,0.00000,65,20,24,5,62,16,27,1,ok,2,0,0.002,8,-0.22,0.13,9.68,43,0.139,8.33
8.4818,-0.01920,-0.00873,0.99309,0.00000,0.00000,0.00000,65,21,25,5,62,17,25,4,ok,2,0,0.002,8,-0.22,0.13,9.68,43,0.152,8.33
8.5019,-0.01920,-0.00873,0.99309,0.00000,0.00000,0.00000,65,22,26,4,63,17,24,7,ok,2,0,0.002,8,-0.22,0.13,9.68,43,0.165,8.33
8.5066,-0.01920,-0.00873,0.99309,0.00000,0.00000,0.00000,65,23,26,3,63,18,23,10,ok,2,0,0.002,8,-0.22,0.13,9.68,43,0.177,8.33
8.5194,-0.01920,-0.00873,0.99309,0.00000,0.00000,0.00000,64,26,27,3,63,19,22,12,ok,2,0,0.002,8,-0.22,0.13,9.68,43,0.190,8.33
8.5419,0.08901,0.00000,1.03323,0.00000,0.00000,0.00000,64,27,28,2,64,20,24,12,ok,2,0,0.002,8,0.44,1.02,9.94,44,0.000,8.33
8.5450,0.08901,0.00000,1.03323,0.00000,0.00000,0.00000,65,25,29,2,64,22,24,11,ok,2,0,0.002,8,0.44,1.02,9.94,44,0.013,8.33
8.5577,0.08901,0.00000,1.03323,0.00000,0.00000,0.00000,67,22,30,2,65,23,25,9,ok,2,0,0.002,8,0.44,1.02,9.94,44,0.026,8.33
8.5779,0.08901,0.00000,1.03323,0.00000,0.00000,0.00000,70,19,31,1,64,24,26,9,ok,2,0,0.002,8,0.44,1.02,9.94,44,0.039,8.33
8.5826,0.08901,0.00000,1.03323,0.00000,0.00000,0.00000,70,14,33,1,64,26,27,9,ok,2,0,0.002,8,0.44,1.02,9.94,44,0.051,8.33
8.5952,0.08901,0.00000,1.03323,0.00000,0.00000,0.00000,71,12,34,1,65,26,28,9,ok,2,0,0.002,8,0.44,1.02,9.94,44,0.064,8.33
8.6179,0.08901,0.00000,1.03323,0.00000,0.00000,0.00000,71,12,36,1,64,28,30,8,ok,2,0,0.002,8,0.44,1.02,9.94,44,0.076,8.33
8.6211,0.08901,0.00000,1.03323,0.00000,0.00000,0.00000,70,9,37,1,63,29,32,8,ok,2,0,0.002,8,0.44,1.02,9.94,44,0.089,8.33
8.6338,0.08901,0.00000,1.03323,0.00000,0.00000,0.00000,70,6,39,2,63,31,33,8,ok,2,0,0.002,8,0.44,1.02,9.94,44,0.102,8.33
8.6539,0.08901,0.00000,1.03323,0.00000,0.00000,0.00000,69,3,40,2,64,33,34,8,ok,2,0,0.002,8,0.44,1.02,9.94,44,0.115,8.33
8.6586,0.08901,0.00000,1.03323,0.00000,0.00000,0.00000,68,0,42,2,63,34,36,8,ok,2,0,0.002,9,0.44,1.02,9.94,44,0.127,8.33
8.6712,0.08901,0.00000,1.03323,0.00000,0.00000,0.00000,67,-2,43,2,63,36,36,8,ok,2,0,0.002,9,0.44,1.02,9.94,44,0.140,8.33
8.6939,0.08901,0.00000,1.03323,0.00000,0.00000,0.00000,65,-4,44,3,64,36,38,7,ok,2,0,0.002,9,0.44,1.02,9.94,44,0.152,8.33
8.6970,0.08901,0.00000,1.03323,0.00000,0.00000,0.00000,63,-5,45,3,65,36,39,7,ok,2,0,0.002,9,0.44,1.02,9.94,44,0.165,8.33
8.7096,0.08901,0.00000,1.03323,0.00000,0.00000,0.00000,62,-6,46,3,67,34,40,6,ok,2,0,0.002,9,0.44,1.02,9.94,44,0.178,8.33
8.7299,0.08901,0.00000,1.03323,0.00000,0.00000,0.00000,61,-8,47,3,69,29,42,6,ok,2,0,0.002,9,0.44,1.02,9.94,44,0.191,8.33
8.7349,0.08552,0.07679,1.05941,0.00000,0.00000,0.00000,59,-9,49,4,71,25,43,6,ok,2,0,0.002,9,1.38,1.24,10.67,45,0.000,8.33
8.7472,0.08552,0.07679,1.05941,0.00000,0.00000,0.00000,56,-10,50,4,72,22,43,6,ok,2,0,0.002,9,1.38,1.24,10.67,45,0.013,8.33
8.7699,0.08552,0.07679,1.05941,0.00000,0.00000,0.00000,54,-10,50,4,73,21,44,7,ok,2,0,0.002,9,1.38,1.24,10.67,45,0.025,8.33
8.7730,0.08552,0.07679,1.05941,0.00000,0.00000,0.00000,52,-11,50,6,73,19,46,7,ok,2,0,0.002,9,1.38,1.24,10.67,45,0.038,8.33
8.7855,0.08552,0.07679,1.05941,0.00000,0.00000,0.00000,49,-11,51,7,73,15,47,7,ok,0,0,0.002,9,1.38,1.24,10.67,45,0.051,8.33
8.8059,0.08552,0.07679,1.05941,0.00000,0.00000,0.00000,47,-11,52,6,73,12,48,7,ok,0,0,0.002,9,1.38,1.24,10.67,45,0.064,8.33
8.8107,0.08552,0.07679,1.05941,0.00000,0.00000,0.00000,44,-11,53,6,72,10,49,7,ok,0,0,0.002,9,1.38,1.24,10.67,45,0.076,8.33
8.8232,0.08552,0.07679,1.05941,0.00000,0.00000,0.00000,41,-11,53,7,71,7,49,8,ok,0,0,0.002,9,1.38,1.24,10.67,45,0.089,8.33
8.8459,0.08552,0.07679,1.05941,0.00000,0.00000,0.00000,38,-11,55,7,71,5,50,7,ok,0,0,0.002,9,1.38,1.24,10.67,45,0.101,8.33
8.8490,0.08552,0.07679,1.05941,0.00000,0.00000,0.00000,36,-10,56,7,70,4,51,8,ok,0,0,0.002,9,1.38,1.24,10.67,45,0.114,8.33
8.8615,0.08552,0.07679,1.05941,0.00000,0.00000,0.00000,32,-9,57,7,68,2,52,7,ok,0,0,0.002,9,1.38,1.24,10.67,45,0.127,8.33
8.8819,0.08552,0.07679,1.05941,0.00000,0.00000,0.00000,30,-8,57,8,66,2,52,8,ok,0,0,0.002,9,1.38,1.24,10.67,45,0.140,8.33
8.8867,0.08552,0.07679,1.05941,0.00000,0.00000,0.00000,26,-6,57,8,65,0,53,8,ok,0,0,0.002,9,1.38,1.24,10.67,45,0.152,8.33
8.8993,0.08552,0.07679,1.05941,0.00000,0.00000,0.00000,23,-4,58,8,63,-2,54,8,ok,0,0,0.002,9,1.38,1.24,10.67,45,0.165,8.33
8.9219,0.08552,0.07679,1.05941,0.00000,0.00000,0.00000,19,-2,59,9,61,-3,55,8,ok,0,0,0.002,9,1.38,1.24,10.67,45,0.177,8.33
8.9250,0.08552,0.07679,1.05941,0.00000,0.00000,0.00000,19,-2,60,11,60,-5,55,7,ok,0,0,0.002,9,1.38,1.24,10.67,45,0.190,8.33
8.9379,0.13788,0.00349,1.06116,0.00000,0.00000,0.00000,17,-1,60,10,58,-5,57,5,ok,0,0,0.002,9,0.31,1.06,9.67,46,0.000,8.33
8.9579,0.13788,0.00349,1.06116,0.00000,0.00000,0.00000,15,1,61,11,56,-5,57,6,ok,0,0,0.002,9,0.31,1.06,9.67,46,0.013,8.33
8.9626,0.13788,0.00349,1.06116,0.00000,0.00000,0.00000,14,5,61,10,54,-6,58,7,ok,0,0,0.002,9,0.31,1.06,9.67,46,0.025,8.33
8.9753,0.13788,0.00349,1.06116,0.00000,0.00000,0.00000,12,8,61,12,51,-5,59,8,ok,0,0,0.002,9,0.31,1.06,9.67,46,0.038,8.33
8.9979,0.13788,0.00349,1.06116,0.00000,0.00000,0.00000,11,11,62,11,48,-5,59,8,ok,0,0,0.002,9,0.31,1.06,9.67,46,0.050,8.33
9.0010,0.13788,0.00349,1.06116,0.00000,0.00000,0.00000,13,11,62,12,46,-5,60,9,ok,0,0,0.002,9,0.31,1.06,9.67,46,0.063,8.33
9.0135,0.13788,0.00349,1.06116,0.00000,0.00000,0.00000,14,11,62,13,43,-4,60,9,ok,0,0,0.002,9,0.31,1.06,9.67,46,0.076,8.33
9.0339,0.13788,0.00349,1.06116,0.00000,0.00000,0.00000,16,10,63,13,40,-4,60,10,ok,0,0,0.002,9,0.31,1.06,9.67,46,0.089,8.33
9.0386,0.13788,0.00349,1.06116,0.00000,0.00000,0.00000,17,9,62,14,37,-3,61,10,ok,0,0,0.002,9,0.31,1.06,9.67,46,0.101,8.33
9.0512,0.13788,0.00349,1.06116,0.00000,0.00000,0.00000,18,9,63,14,34,-3,61,12,ok,0,0,0.002,9,0.31,1.06,9.67,46,0.114,8.33
9.0739,0.13788,0.00349,1.06116,0.00000,0.00000,0.00000,20,8,63,15,31,-1,61,12,ok,0,0,0.002,9,0.31,1.06,9.67,46,0.126,8.33
9.0770,0.13788,0.00349,1.06116,0.00000,0.00000,0.00000,21,7,63,16,29,1,62,13,ok,0,0,0.002,9,0.31,1.06,9.67,46,0.139,8.33
9.0895,0.13788,0.00349,1.06116,0.00000,0.00000,0.00000,22,6,64,18,27,2,62,14,ok,0,0,0.002,9,0.31,1.06,9.67,46,0.152,8.33
9.1099,0.13788,0.00349,1.06116,0.00000,0.00000,0.00000,24,5,64,19,25,5,63,14,ok,0,0,0.002,9,0.31,1.06,9.67,46,0.165,8.33
9.1146,0.13788,0.00349,1.06116,0.00000,0.00000,0.00000,24,5,64,20,24,8,63,15,ok,0,0,0.002,9,0.31,1.06,9.67,46,0.177,8.33
9.1275,0.13788,0.00349,1.06116,0.00000,0.00000,0.00000,26,4,64,21,23,12,63,16,ok,0,0,0.002,9,0.31,1.06,9.67,46,0.190,8.33
9.1499,0.07679,0.13788,1.07338,0.00000,0.00000,0.00000,27,4,64,22,22,15,64,17,ok,0,0,0.002,9,2.34,0.21,10.15,47,0.000,8.33
9.1530,0.07679,0.13788,1.07338,0.00000,0.00000,0.00000,28,3,64,26,23,14,64,18,ok,0,0,0.002,9,2.34,0.21,10.15,47,0.013,8.33
9.1656,0.07679,0.13788,1.07338,0.00000,0.00000,0.00000,28,2,64,27,23,14,64,18,ok,0,0,0.002,9,2.34,0.21,10.15,47,0.026,8.33
9.1859,0.07679,0.13788,1.07338,0.00000,0.00000,0.00000,30,2,65,26,24,12,64,20,ok,0,0,0.002,9,2.34,0.21,10.15,47,0.039,8.33
9.1906,0.07679,0.13788,1.07338,0.00000,0.00000,0.00000,31,1,67,23,26,11,65,20,ok,0,0,0.002,9,2.34,0.21,10.15,47,0.051,8.33
9.2032,0.07679,0.13788,1.07338,0.00000,0.00000,0.00000,31,0,69,19,27,11,65,21,ok,0,0,0.002,9,2.34,0.21,10.15,47,0.064,8.33
9.2259,0.07679,0.13788,1.07338,0.00000,0.00000,0.00000,33,0,70,15,29,11,64,23,ok,0,0,0.003,9,2.34,0.21,10.15,47,0.076,8.33
9.2292,0.07679,0.13788,1.07338,0.00000,0.00000,0.00000,34,0,70,13,30,10,64,25,ok,0,0,0.003,9,2.34,0.21,10.15,47,0.089,8.33
9.2416,0.07679,0.13788,1.07338,0.00000,0.00000,0.00000,36,0,70,13,32,10,65,26,ok,0,0,0.003,9,2.34,0.21,10.15,47,0.102,8.33
9.2619,0.07679,0.13788,1.07338,0.00000,0.00000,0.00000,37,0,70,9,33,10,65,28,ok,0,0,0.003,9,2.34,0.21,10.15,47,0.115,8.33
9.2666,0.07679,0.13788,1.07338,0.00000,0.00000,0.00000,39,1,69,6,35,10,64,29,ok,0,0,0.003,9,2.34,0.21,10.15,47,0.127,8.33
9.2791,0.07679,0.13788,1.07338,0.00000,0.00000,0.00000,40,1,68,3,36,9,65,30,ok,0,0,0.003,9,2.34,0.21,10.15,47,0.140,8.33
9.3019,0.07679,0.13788,1.07338,0.00000,0.00000,0.00000,41,1,67,0,37,9,65,32,ok,0,0,0.003,9,2.34,0.21,10.15,47,0.152,8.33
9.3052,0.07679,0.13788,1.07338,0.00000,0.00000,0.00000,42,1,66,-2,39,9,64,33,ok,0,0,0.003,9,2.34,0.21,10.15,47,0.165,8.33
9.3175,0.07679,0.13788,1.07338,0.00000,0.00000,0.00000,44,2,64,-3,40,9,64,34,ok,0,0,0.003,9,2.34,0.21,10.15,47,0.178,8.33
9.3379,0.07679,0.13788,1.07338,0.00000,0.00000,0.00000,44,2,62,-4,41,8,65,35,ok,0,0,0.003,9,2.34,0.21,10.15,47,0.191,8.33
9.3428,-0.09076,0.04363,1.10828,0.00000,0.00000,0.00000,45,2,60,-6,42,8,66,34,ok,0,0,0.003,9,0.32,-1.76,9.50,48,0.000,8.33
9.3552,-0.09076,0.04363,1.10828,0.00000,0.00000,0.00000,47,2,60,-8,43,7,69,32,ok,0,0,0.003,9,0.32,-1.76,9.50,48,0.013,8.33
9.3779,-0.09076,0.04363,1.10828,0.00000,0.00000,0.00000,48,2,57,-8,44,7,71,26,ok,0,0,0.003,9,0.32,-1.76,9.50,48,0.025,8.33
9.3812,-0.09076,0.04363,1.10828,0.00000,0.00000,0.00000,49,2,55,-9,45,7,72,23,ok,0,0,0.003,9,0.32,-1.76,9.50,48,0.038,8.33
9.3935,-0.09076,0.04363,1.10828,0.00000,0.00000,0.00000,50,1,53,-9,45,7,74,20,ok,0,0,0.003,9,0.32,-1.76,9.50,48,0.051,8.33
9.4139,-0.09076,0.04363,1.10828,0.00000,0.00000,0.00000,50,3,51,-10,46,7,74,20,ok,0,0,0.003,9,0.32,-1.76,9.50,48,0.064,8.33
9.4186,-0.09076,0.04363,1.10828,0.00000,0.00000,0.00000,51,4,49,-9,47,8,74,18,ok,0,0,0.003,9,0.32,-1.76,9.50,48,0.076,8.33
9.4311,-0.09076,0.04363,1.10828,0.00000,0.00000,0.00000,52,4,46,-9,48,8,73,14,ok,0,0,0.003,9,0.32,-1.76,9.50,48,0.089,8.33
9.4539,-0.09076,0.04363,1.10828,0.00000,0.00000,0.00000,53,5,44,-9,49,8,72,12,ok,0,0,0.003,9,0.32,-1.76,9.50,48,0.101,8.33
9.4572,-0.09076,0.04363,1.10828,0.00000,0.00000,0.00000,53,5,41,-9,50,8,72,10,ok,0,0,0.003,9,0.32,-1.76,9.50,48,0.114,8.33
9.4695,-0.09076,0.04363,1.10828,0.00000,0.00000,0.00000,55,6,39,-10,51,8,71,6,ok,0,0,0.003,9,0.32,-1.76,9.50,48,0.127,8.33
9.4899,-0.09076,0.04363,1.10828,0.00000,0.00000,0.00000,56,6,37,-9,52,7,71,5,ok,0,0,0.003,9,0.32,-1.76,9.50,48,0.140,8.33
9.4946,-0.09076,0.04363,1.10828,0.00000,0.00000,0.00000,57,7,33,-9,51,7,70,3,ok,0,0,0.003,9,0.32,-1.76,9.50,48,0.152,8.33
9.5072,-0.09076,0.04363,1.10828,0.00000,0.00000,0.00000,57,8,30,-7,52,8,68,1,ok,0,0,0.003,9,0.32,-1.76,9.50,48,0.165,8.33
9.5299,-0.09076,0.04363,1.10828,0.00000,0.00000,0.00000,58,8,27,-6,53,8,66,1,ok,0,0,0.003,9,0.32,-1.76,9.50,48,0.177,8.33
9.5333,-0.05236,-0.00873,1.12574,0.00000,0.00000,0.00000,59,9,24,-4,54,8,65,-1,ok,0,0,0.003,9,0.98,-0.52,11.01,49,0.000,8.33
9.5455,-0.05236,-0.00873,1.12574,0.00000,0.00000,0.00000,60,10,21,-2,55,8,64,-3,ok,0,0,0.003,9,0.98,-0.52,11.01,49,0.013,8.33
9.5659,-0.05236,-0.00873,1.12574,0.00000,0.00000,0.00000,60,10,19,-1,58,7,62,-4,ok,0,0,0.003,9,0.98,-0.52,11.01,49,0.025,8.33
9.5706,-0.05236,-0.00873,1.12574,0.00000,0.00000,0.00000,61,10,18,0,58,8,60,-5,ok,0,0,0.003,9,0.98,-0.52,11.01,49,0.038,8.33
9.5834,-0.05236,-0.00873,1.12574,0.00000,0.00000,0.00000,61,11,16,2,59,9,58,-5,ok,0,0,0.003,9,0.98,-0.52,11.01,49,0.050,8.33
9.6059,-0.05236,-0.00873,1.12574,0.00000,0.00000,0.00000,61,11,15,5,59,9,56,-6,ok,0,0,0.003,9,0.98,-0.52,11.01,49,0.063,8.33
9.6090,-0.05236,-0.00873,1.12574,0.00000,0.00000,0.00000,61,12,13,9,59,9,54,-7,ok,0,0,0.003,9,0.98,-0.52,11.01,49,0.076,8.33
9.6215,-0.05236,-0.00873,1.12574,0.00000,0.00000,0.00000,62,12,13,11,60,10,50,-6,ok,0,0,0.003,9,0.98,-0.52,11.01,49,0.089,8.33
9.6419,-0.05236,-0.00873,1.12574,0.00000,0.00000,0.00000,62,13,15,12,60,10,48,-5,ok,0,0,0.003,9,0.98,-0.52,11.01,49,0.101,8.33
9.6466,-0.05236,-0.00873,1.12574,0.00000,0.00000,0.00000,62,14,15,11,61,11,46,-6,ok,0,0,0.003,9,0.98,-0.52,11.01,49,0.114,8.33
9.6592,-0.05236,-0.00873,1.12574,0.00000,0.00000,0.00000,62,14,17,10,61,11,43,-5,ok,0,0,0.003,9,0.98,-0.52,11.01,49,0.126,8.33
9.6819,-0.05236,-0.00873,1.12574,0.00000,0.00000,0.00000,62,15,19,9,61,12,41,-5,ok,0,0,0.003,9,0.98,-0.52,11.01,49,0.139,8.33
9.6851,-0.05236,-0.00873,1.12574,0.00000,0.00000,0.00000,63,16,20,9,61,13,37,-4,ok,0,0,0.003,10,0.98,-0.52,11.01,49,0.152,8.33
9.6979,-0.05236,-0.00873,1.12574,0.00000,0.00000,0.00000,63,16,21,8,61,13,35,-3,ok,0,0,0.003,10,0.98,-0.52,11.01,49,0.165,8.33
9.7179,-0.05236,-0.00873,1.12574,0.00000,0.00000,0.00000,63,18,22,7,61,14,31,-2,ok,0,0,0.003,10,0.98,-0.52,11.01,49,0.177,8.33
9.7226,-0.05236,-0.00873,1.12574,0.00000,0.00000,0.00000,65,19,23,6,62,14,30,-1,ok,0,0,0.003,10,0.98,-0.52,11.01,49,0.190,8.33
9.7355,-0.05236,-0.00873,1.12574,0.00000,0.00000,0.00000,65,20,24,5,62,16,28,1,ok,0,0,0.003,10,0.98,-0.52,11.01,49,0.202,8.33
9.7579,0.01745,0.06632,1.18159,0.00000,0.00000,0.00000,65,21,25,5,62,17,26,4,ok,0,0,0.003,10,1.91,-0.51,10.44,50,0.000,8.33
9.7610,0.01745,0.06632,1.18159,0.00000,0.00000,0.00000,65,22,26,4,63,17,24,7,ok,0,0,0.003,10,1.91,-0.51,10.44,50,0.013,8.33
9.7736,0.01745,0.06632,1.18159,0.00000,0.00000,0.00000,65,23,26,3,63,18,23,10,ok,0,0,0.003,10,1.91,-0.51,10.44,50,0.026,8.33
9.7939,0.01745,0.06632,1.18159,0.00000,0.00000,0.00000,64,26,27,3,63,19,22,12,ok,0,0,0.003,10,1.91,-0.51,10.44,50,0.038,8.33
9.7986,0.01745,0.06632,1.18159,0.00000,0.00000,0.00000,64,27,28,2,64,20,24,12,ok,0,0,0.003,10,1.91,-0.51,10.44,50,0.051,8.33
9.8112,0.01745,0.06632,1.18159,0.00000,0.00000,0.00000,65,26,29,2,64,21,24,11,ok,0,0,0.003,10,1.91,-0.51,10.44,50,0.063,8.33
9.8339,0.01745,0.06632,1.18159,0.00000,0.00000,0.00000,67,22,30,2,64,22,25,10,ok,0,0,0.003,10,1.91,-0.51,10.44,50,0.076,8.33
9.8370,0.01745,0.06632,1.18159,0.00000,0.00000,0.00000,69,18,31,1,64,24,27,9,ok,0,0,0.003,10,1.91,-0.51,10.44,50,0.089,8.33
9.8495,0.01745,0.06632,1.18159,0.00000,0.00000,0.00000,70,14,32,2,64,25,28,10,ok,0,0,0.003,10,1.91,-0.51,10.44,50,0.102,8.33
9.8699,0.01745,0.06632,1.18159,0.00000,0.00000,0.00000,70,12,33,2,64,26,29,9,ok,0,0,0.003,10,1.91,-0.51,10.44,50,0.114,8.33
9.8746,0.01745,0.06632,1.18159,0.00000,0.00000,0.00000,70,11,35,2,64,28,30,8,ok,0,0,0.003,10,1.91,-0.51,10.44,50,0.127,8.33
9.8871,0.01745,0.06632,1.18159,0.00000,0.00000,0.00000,70,8,36,2,64,29,32,8,ok,0,0,0.003,10,1.91,-0.51,10.44,50,0.139,8.33
9.9099,0.01745,0.06632,1.18159,0.00000,0.00000,0.00000,69,5,39,3,64,31,33,8,ok,2,0,0.003,10,1.91,-0.51,10.44,50,0.152,8.33
9.9130,0.01745,0.06632,1.18159,0.00000,0.00000,0.00000,68,2,40,3,64,32,35,8,ok,2,0,0.003,10,1.91,-0.51,10.44,50,0.165,8.33
9.9255,0.01745,0.06632,1.18159,0.00000,0.00000,0.00000,67,-1,41,3,64,34,36,8,ok,2,0,0.003,10,1.91,-0.51,10.44,50,0.178,8.33
9.9459,0.01745,0.06632,1.18159,0.00000,0.00000,0.00000,66,-3,43,2,64,35,37,8,ok,2,0,0.003,10,1.91,-0.51,10.44,50,0.190,8.33
9.9508,0.03142,0.06109,1.20253,0.00000,0.00000,0.00000,65,-4,44,3,64,36,38,7,ok,2,0,0.003,10,0.36,1.68,9.66,51,0.000,8.33
9.9634,0.03142,0.06109,1.20253,0.00000,0.00000,0.00000,63,-5,44,3,65,36,39,7,ok,2,0,0.003,10,0.36,1.68,9.66,51,0.013,8.33
9.9859,0.03142,0.06109,1.20253,0.00000,0.00000,0.00000,61,-6,45,3,67,33,41,6,ok,0,0,0.003,10,0.36,1.68,9.66,51,0.025,8.33
9.9890,0.03142,0.06109,1.20253,0.00000,0.00000,0.00000,61,-8,47,3,69,29,42,6,ok,2,0,0.003,10,0.36,1.68,9.66,51,0.038,8.33
10.0018,0.03142,0.06109,1.20253,0.00000,0.00000,0.00000,58,-9,48,4,71,25,43,6,ok,0,0,0.003,10,0.36,1.68,9.66,51,0.051,8.33
10.0219,0.03142,0.06109,1.20253,0.00000,0.00000,0.00000,56,-10,49,4,72,22,44,6,ok,0,0,0.003,10,0.36,1.68,9.66,51,0.064,8.33
10.0335,0.03142,0.06109,1.20253,0.00000,0.00000,0.00000,54,-10,49,3,73,21,45,6,ok,0,0,0.003,10,0.36,1.68,9.66,51,0.076,8.33
10.0392,0.03142,0.06109,1.20253,0.00000,0.00000,0.00000,52,-11,50,5,73,19,46,6,ok,0,0,0.003,10,0.36,1.68,9.66,51,0.089,8.33
10.0659,0.03142,0.06109,1.20253,0.00000,0.00000,0.00000,49,-11,51,6,73,15,47,7,ok,0,0,0.003,10,0.36,1.68,9.66,51,0.101,8.33
10.0691,0.03142,0.06109,1.20253,0.00000,0.00000,0.00000,46,-11,52,6,73,12,48,7,ok,0,0,0.003,10,0.36,1.68,9.66,51,0.118,8.33
10.0815,0.03142,0.06109,1.20253,0.00000,0.00000,0.00000,44,-10,53,6,72,10,49,7,ok,0,0,0.003,10,0.36,1.68,9.66,51,0.131,8.33
10.1019,0.03142,0.06109,1.20253,0.00000,0.00000,0.00000,41,-11,53,7,72,7,50,8,ok,0,0,0.003,10,0.36,1.68,9.66,51,0.144,8.33
10.1066,0.03142,0.06109,1.20253,0.00000,0.00000,0.00000,38,-11,55,7,71,5,50,7,ok,0,0,0.003,10,0.36,1.68,9.66,51,0.156,8.33
10.1192,0.03142,0.06109,1.20253,0.00000,0.00000,0.00000,36,-10,56,7,70,4,51,8,ok,0,0,0.003,10,0.36,1.68,9.66,51,0.169,8.33
10.1419,0.03142,0.06109,1.20253,0.00000,0.00000,0.00000,32,-9,57,7,69,1,52,7,ok,0,0,0.003,10,0.36,1.68,9.66,51,0.181,8.33
10.1450,0.03142,0.06109,1.20253,0.00000,0.00000,0.00000,30,-8,57,8,66,2,52,8,ok,0,0,0.003,10,0.36,1.68,9.66,51,0.194,8.33
10.1579,0.17802,0.00175,1.10305,0.00000,0.00000,0.00000,26,-6,58,8,65,0,53,8,ok,0,0,0.003,10,-0.34,1.41,10.44,52,0.000,8.33
10.1779,0.17802,0.00175,1.10305,0.00000,0.00000,0.00000,23,-4,58,8,64,-1,54,8,ok,0,0,0.003,10,-0.34,1.41,10.44,52,0.013,8.33
10.1826,0.17802,0.00175,1.10305,0.00000,0.00000,0.00000,19,-2,59,9,62,-3,55,8,ok,0,0,0.003,10,-0.34,1.41,10.44,52,0.025,8.33
10.1952,0.17802,0.00175,1.10305,0.00000,0.00000,0.00000,18,-1,60,10,61,-4,54,7,ok,0,0,0.003,10,-0.34,1.41,10.44,52,0.038,8.33
10.2179,0.17802,0.00175,1.10305,0.00000,0.00000,0.00000,17,0,61,9,59,-4,56,5,ok,0,0,0.003,10,-0.34,1.41,10.44,52,0.050,8.33
10.2210,0.17802,0.00175,1.10305,0.00000,0.00000,0.00000,16,3,61,10,56,-5,57,6,ok,0,0,0.003,10,-0.34,1.41,10.44,52,0.063,8.33
10.2335,0.17802,0.00175,1.10305,0.00000,0.00000,0.00000,15,6,61,10,54,-6,58,7,ok,0,0,0.003,10,-0.34,1.41,10.44,52,0.076,8.33
10.2539,0.17802,0.00175,1.10305,0.00000,0.00000,0.00000,13,10,61,11,51,-6,58,7,ok,0,0,0.003,10,-0.34,1.41,10.44,52,0.089,8.33
10.2586,0.17802,0.00175,1.10305,0.00000,0.00000,0.00000,12,12,62,10,48,-5,59,7,ok,0,0,0.003,10,-0.34,1.41,10.44,52,0.101,8.33
10.2714,0.17802,0.00175,1.10305,0.00000,0.00000,0.00000,14,12,62,12,45,-5,60,8,ok,0,0,0.003,10,-0.34,1.41,10.44,52,0.114,8.33
10.2939,0.17802,0.00175,1.10305,0.00000,0.00000,0.00000,14,12,61,13,42,-4,59,9,ok,0,0,0.003,10,-0.34,1.41,10.44,52,0.126,8.33
10.2970,0.17802,0.00175,1.10305,0.00000,0.00000,0.00000,16,10,62,13,40,-4,60,10,ok,0,0,0.003,10,-0.34,1.41,10.44,52,0.139,8.33
10.3095,0.17802,0.00175,1.10305,0.00000,0.00000,0.00000,17,9,62,14,37,-3,61,10,ok,0,0,0.003,10,-0.34,1.41,10.44,52,0.152,8.33
10.3299,0.17802,0.00175,1.10305,0.00000,0.00000,0.00000,18,8,63,15,34,-2,61,12,ok,0,0,0.003,10,-0.34,1.41,10.44,52,0.165,8.33
10.3346,0.17802,0.00175,1.10305,0.00000,0.00000,0.00000,20,7,63,16,31,-1,61,12,ok,0,0,0.003,10,-0.34,1.41,10.44,52,0.177,8.33
10.3473,0.17802,0.00175,1.10305,0.00000,0.00000,0.00000,20,7,63,17,29,1,62,13,ok,0,0,0.003,10,-0.34,1.41,10.44,52,0.190,8.33
10.3699,0.06981,0.11345,1.12574,0.00000,0.00000,0.00000,22,6,64,18,27,2,62,14,ok,0,0,0.003,10,1.80,0.79,8.35,53,0.000,8.33
10.3730,0.06981,0.11345,1.12574,0.00000,0.00000,0.00000,24,5,64,20,24,5,63,14,ok,0,0,0.003,10,1.80,0.79,8.35,53,0.013,8.33
10.3856,0.06981,0.11345,1.12574,0.00000,0.00000,0.00000,24,4,65,21,23,8,63,15,ok,0,0,0.003,10,1.80,0.79,8.35,53,0.026,8.33
10.4059,0.06981,0.11345,1.12574,0.00000,0.00000,0.00000,26,3,64,22,22,11,63,16,ok,0,0,0.003,10,1.80,0.79,8.35,53,0.039,8.33
10.4106,0.06981,0.11345,1.12574,0.00000,0.00000,0.00000,26,3,64,23,21,14,64,17,ok,0,0,0.003,10,1.80,0.79,8.35,53,0.051,8.33
10.4232,0.06981,0.11345,1.12574,0.00000,0.00000,0.00000,27,2,63,26,23,14,64,18,ok,0,0,0.003,10,1.80,0.79,8.35,53,0.064,8.33
10.4459,0.06981,0.11345,1.12574,0.00000,0.00000,0.00000,28,1,63,28,24,14,64,18,ok,0,0,0.003,10,1.80,0.79,8.35,53,0.076,8.33
10.4490,0.06981,0.11345,1.12574,0.00000,0.00000,0.00000,29,1,64,27,25,12,64,20,ok,0,0,0.003,10,1.80,0.79,8.35,53,0.089,8.33
10.4615,0.06981,0.11345,1.12574,0.00000,0.00000,0.00000,30,0,67,24,26,11,65,21,ok,0,0,0.003,10,1.80,0.79,8.35,53,0.102,8.33
10.4819,0.06981,0.11345,1.12574,0.00000,0.00000,0.00000,31,-1,69,20,27,11,65,22,ok,0,0,0.003,10,1.80,0.79,8.35,53,0.115,8.33
10.4866,0.06981,0.11345,1.12574,0.00000,0.00000,0.00000,33,0,70,15,29,11,65,23,ok,0,0,0.003,10,1.80,0.79,8.35,53,0.127,8.33
10.4992,0.06981,0.11345,1.12574,0.00000,0.00000,0.00000,34,0,70,13,30,10,65,25,ok,0,0,0.003,10,1.80,0.79,8.35,53,0.139,8.33
10.5219,0.06981,0.11345,1.12574,0.00000,0.00000,0.00000,36,1,70,12,32,10,66,25,ok,0,0,0.003,10,1.80,0.79,8.35,53,0.152,8.33
10.5250,0.06981,0.11345,1.12574,0.00000,0.00000,0.00000,37,1,70,8,33,10,65,28,ok,0,0,0.003,10,1.80,0.79,8.35,53,0.165,8.33
10.5375,0.06981,0.11345,1.12574,0.00000,0.00000,0.00000,39,2,69,6,35,10,64,29,ok,0,0,0.003,10,1.80,0.79,8.35,53,0.178,8.33
10.5579,0.06981,0.11345,1.12574,0.00000,0.00000,0.00000,40,2,68,3,36,9,65,30,ok,0,0,0.003,10,1.80,0.79,8.35,53,0.190,8.33
10.5629,-0.04712,0.02967,1.16763,0.00000,0.00000,0.00000,41,2,67,0,37,9,64,32,ok,0,0,0.003,10,0.29,-1.11,10.80,54,0.000,8.33
10.5753,-0.04712,0.02967,1.16763,0.00000,0.00000,0.00000,43,1,66,-2,39,8,65,33,ok,0,0,0.003,10,0.29,-1.11,10.80,54,0.013,8.33
10.5979,-0.04712,0.02967,1.16763,0.00000,0.00000,0.00000,44,2,64,-3,40,8,64,35,ok,0,0,0.003,10,0.29,-1.11,10.80,54,0.025,8.33
10.6010,-0.04712,0.02967,1.16763,0.00000,0.00000,0.00000,44,1,62,-4,41,7,65,35,ok,0,0,0.003,10,0.29,-1.11,10.80,54,0.038,8.33
10.6135,-0.04712,0.02967,1.16763,0.00000,0.00000,0.00000,46,2,61,-6,42,7,67,34,ok,0,0,0.003,10,0.29,-1.11,10.80,54,0.051,8.33
10.6339,-0.04712,0.02967,1.16763,0.00000,0.00000,0.00000,47,2,60,-8,43,7,69,32,ok,0,0,0.003,10,0.29,-1.11,10.80,54,0.064,8.33
10.6386,-0.04712,0.02967,1.16763,0.00000,0.00000,0.00000,48,2,58,-8,44,8,70,26,ok,0,0,0.003,10,0.29,-1.11,10.80,54,0.076,8.33
10.6511,-0.04712,0.02967,1.16763,0.00000,0.00000,0.00000,50,2,56,-9,44,8,71,23,ok,0,0,0.003,10,0.29,-1.11,10.80,54,0.088,8.33
10.6739,-0.04712,0.02967,1.16763,0.00000,0.00000,0.00000,50,2,54,-9,46,8,73,20,ok,0,0,0.003,10,0.29,-1.11,10.80,54,0.101,8.33
10.6770,-0.04712,0.02967,1.16763,0.00000,0.00000,0.00000,50,4,51,-10,47,8,73,20,ok,0,0,0.003,10,0.29,-1.11,10.80,54,0.114,8.33
10.6896,-0.04712,0.02967,1.16763,0.00000,0.00000,0.00000,51,5,49,-10,47,8,73,18,ok,0,0,0.003,10,0.29,-1.11,10.80,54,0.127,8.33
10.7099,-0.04712,0.02967,1.16763,0.00000,0.00000,0.00000,52,5,46,-10,48,8,73,14,ok,0,0,0.003,11,0.29,-1.11,10.80,54,0.140,8.33
10.7146,-0.04712,0.02967,1.16763,0.00000,0.00000,0.00000,53,6,44,-10,49,8,72,11,ok,0,0,0.003,11,0.29,-1.11,10.80,54,0.152,8.33
10.7272,-0.04712,0.02967,1.16763,0.00000,0.00000,0.00000,53,7,42,-10,49,8,72,10,ok,0,0,0.003,11,0.29,-1.11,10.80,54,0.165,8.33
10.7499,-0.04712,0.02967,1.16763,0.00000,0.00000,0.00000,56,7,39,-10,50,8,71,6,ok,0,0,0.003,11,0.29,-1.11,10.80,54,0.177,8.33
10.7533,-0.06981,0.00349,1.23220,0.00000,0.00000,0.00000,56,7,37,-9,51,7,71,5,ok,0,0,0.003,11,-1.09,0.33,10.50,55,0.000,8.33
10.7656,-0.06981,0.00349,1.23220,0.00000,0.00000,0.00000,57,7,33,-9,51,8,70,3,ok,0,0,0.003,11,-1.09,0.33,10.50,55,0.013,8.33
10.7859,-0.06981,0.00349,1.23220,0.00000,0.00000,0.00000,58,8,31,-7,52,8,68,1,ok,0,0,0.003,11,-1.09,0.33,10.50,55,0.025,8.33
10.7907,-0.06981,0.00349,1.23220,0.00000,0.00000,0.00000,58,8,27,-6,53,9,66,1,ok,0,0,0.003,11,-1.09,0.33,10.50,55,0.038,8.33
10.8032,-0.06981,0.00349,1.23220,0.00000,0.00000,0.00000,59,9,24,-5,54,9,65,-1,ok,0,0,0.003,11,-1.09,0.33,10.50,55,0.050,8.33
10.8259,-0.06981,0.00349,1.23220,0.00000,0.00000,0.00000,60,10,21,-2,55,8,64,-3,ok,0,0,0.003,11,-1.09,0.33,10.50,55,0.063,8.33
10.8289,-0.06981,0.00349,1.23220,0.00000,0.00000,0.00000,60,10,19,-1,57,6,62,-4,ok,0,0,0.003,11,-1.09,0.33,10.50,55,0.076,8.33
10.8415,-0.06981,0.00349,1.23220,0.00000,0.00000,0.00000,61,9,18,1,58,8,60,-5,ok,0,0,0.003,11,-1.09,0.33,10.50,55,0.089,8.33
10.8619,-0.06981,0.00349,1.23220,0.00000,0.00000,0.00000,61,10,16,3,58,9,58,-5,ok,0,0,0.003,11,-1.09,0.33,10.50,55,0.101,8.33
10.8666,-0.06981,0.00349,1.23220,0.00000,0.00000,0.00000,61,11,15,6,59,9,56,-6,ok,0,0,0.003,11,-1.09,0.33,10.50,55,0.114,8.33
10.8791,-0.06981,0.00349,1.23220,0.00000,0.00000,0.00000,61,12,13,9,59,9,54,-7,ok,0,0,0.003,11,-1.09,0.33,10.50,55,0.126,8.33
10.9019,-0.06981,0.00349,1.23220,0.00000,0.00000,0.00000,62,12,13,11,60,10,50,-6,ok,0,0,0.003,11,-1.09,0.33,10.50,55,0.139,8.33
10.9052,-0.06981,0.00349,1.23220,0.00000,0.00000,0.00000,62,13,15,12,60,10,48,-5,ok,0,0,0.003,11,-1.09,0.33,10.50,55,0.152,8.33
10.9176,-0.06981,0.00349,1.23220,0.00000,0.00000,0.00000,61,14,15,12,60,11,46,-6,ok,0,0,0.003,11,-1.09,0.33,10.50,55,0.165,8.33
10.9379,-0.06981,0.00349,1.23220,0.00000,0.00000,0.00000,62,14,17,10,61,11,43,-5,ok,0,0,0.003,11,-1.09,0.33,10.50,55,0.177,8.33
10.9426,-0.06981,0.00349,1.23220,0.00000,0.00000,0.00000,62,15,19,9,61,12,41,-5,ok,0,0,0.003,11,-1.09,0.33,10.50,55,0.190,8.33
10.9555,0.05061,0.03142,1.26362,0.00000,0.00000,0.00000,63,16,19,9,61,13,37,-4,ok,0,0,0.003,11,0.63,0.55,8.81,56,0.000,8.33
10.9779,0.05061,0.03142,1.26362,0.00000,0.00000,0.00000,63,17,21,7,61,14,35,-4,ok,0,0,0.003,11,0.63,0.55,8.81,56,0.012,8.33
10.9810,0.05061,0.03142,1.26362,0.00000,0.00000,0.00000,63,18,21,7,62,15,31,-2,ok,0,0,0.003,11,0.63,0.55,8.81,56,0.026,8.33
10.9938,0.05061,0.03142,1.26362,0.00000,0.00000,0.00000,64,19,23,6,63,15,29,-1,ok,0,0,0.003,11,0.63,0.55,8.81,56,0.039,8.33
11.0139,0.05061,0.03142,1.26362,0.00000,0.00000,0.00000,64,21,24,5,63,16,27,1,ok,0,0,0.003,11,0.63,0.55,8.81,56,0.051,8.33
11.0186,0.05061,0.03142,1.26362,0.00000,0.00000,0.00000,65,22,24,4,63,17,25,4,ok,0,0,0.003,11,0.63,0.55,8.81,56,0.063,8.33
11.0311,0.05061,0.03142,1.26362,0.00000,0.00000,0.00000,65,23,25,4,63,17,24,6,ok,0,0,0.003,11,0.63,0.55,8.81,56,0.076,8.33
11.0539,0.05061,0.03142,1.26362,0.00000,0.00000,0.00000,65,24,26,2,64,18,23,10,ok,0,0,0.003,11,0.63,0.55,8.81,56,0.089,8.33
11.0572,0.05061,0.03142,1.26362,0.00000,0.00000,0.00000,64,27,27,2,63,19,22,12,ok,0,0,0.003,11,0.63,0.55,8.81,56,0.102,8.33
11.0695,0.05061,0.03142,1.26362,0.00000,0.00000,0.00000,64,28,28,1,64,20,24,11,ok,0,0,0.003,11,0.63,0.55,8.81,56,0.114,8.33
11.0899,0.05061,0.03142,1.26362,0.00000,0.00000,0.00000,65,26,29,1,64,21,25,11,ok,0,0,0.003,11,0.63,0.55,8.81,56,0.127,8.33
11.0946,0.05061,0.03142,1.26362,0.00000,0.00000,0.00000,67,22,30,2,64,23,25,9,ok,0,0,0.003,11,0.63,0.55,8.81,56,0.139,8.33
11.1072,0.05061,0.03142,1.26362,0.00000,0.00000,0.00000,69,18,31,1,64,24,27,9,ok,0,0,0.003,11,0.63,0.55,8.81,56,0.152,8.33
11.1299,0.05061,0.03142,1.26362,0.00000,0.00000,0.00000,70,13,33,2,64,26,28,9,ok,0,0,0.003,11,0.63,0.55,8.81,56,0.164,8.33
11.1330,0.05061,0.03142,1.26362,0.00000,0.00000,0.00000,70,11,34,2,65,26,29,9,ok,0,0,0.003,11,0.63,0.55,8.81,56,0.178,8.33
11.1455,0.05061,0.03142,1.26362,0.00000,0.00000,0.00000,70,11,36,2,64,28,30,8,ok,0,0,0.003,11,0.63,0.55,8.81,56,0.191,8.33
11.1659,0.05236,0.08203,1.33518,0.00000,0.00000,0.00000,70,7,37,2,64,29,32,8,ok,0,0,0.003,11,-0.14,0.72,9.88,57,0.000,8.33
11.1708,0.05236,0.08203,1.33518,0.00000,0.00000,0.00000,69,5,39,3,63,31,33,8,ok,0,0,0.003,11,-0.14,0.72,9.88,57,0.012,8.33
11.1832,0.05236,0.08203,1.33518,0.00000,0.00000,0.00000,69,2,40,3,64,32,34,8,ok,0,0,0.003,11,-0.14,0.72,9.88,57,0.025,8.33
11.2059,0.05236,0.08203,1.33518,0.00000,0.00000,0.00000,68,-1,42,3,63,34,36,8,ok,0,0,0.003,11,-0.14,0.72,9.88,57,0.038,8.33
11.2090,0.05236,0.08203,1.33518,0.00000,0.00000,0.00000,66,-3,43,2,63,35,37,8,ok,0,0,0.003,11,-0.14,0.72,9.88,57,0.051,8.33
11.2216,0.05236,0.08203,1.33518,0.00000,0.00000,0.00000,65,-4,44,3,64,36,38,7,ok,0,0,0.003,11,-0.14,0.72,9.88,57,0.063,8.33
11.2419,0.05236,0.08203,1.33518,0.00000,0.00000,0.00000,63,-5,44,3,65,36,39,7,ok,0,0,0.003,11,-0.14,0.72,9.88,57,0.076,8.33
11.2466,0.05236,0.08203,1.33518,0.00000,0.00000,0.00000,62,-6,45,3,67,33,41,6,ok,0,0,0.003,11,-0.14,0.72,9.88,57,0.088,8.33
11.2592,0.05236,0.08203,1.33518,0.00000,0.00000,0.00000,61,-8,46,3,69,29,42,6,ok,0,0,0.003,11,-0.14,0.72,9.88,57,0.101,8.33
11.2819,0.05236,0.08203,1.33518,0.00000,0.00000,0.00000,58,-9,48,4,71,25,43,6,ok,0,0,0.003,11,-0.14,0.72,9.88,57,0.114,8.33
11.2850,0.05236,0.08203,1.33518,0.00000,0.00000,0.00000,56,-10,49,4,72,22,44,6,ok,0,0,0.003,11,-0.14,0.72,9.88,57,0.127,8.33
11.2975,0.05236,0.08203,1.33518,0.00000,0.00000,0.00000,54,-10,49,4,73,21,45,6,ok,0,0,0.003,11,-0.14,0.72,9.88,57,0.140,8.33
11.3179,0.05236,0.08203,1.33518,0.00000,0.00000,0.00000,51,-11,49,6,73,19,46,6,ok,0,0,0.003,11,-0.14,0.72,9.88,57,0.152,8.33
11.3226,0.05236,0.08203,1.33518,0.00000,0.00000,0.00000,49,-11,51,6,73,15,47,7,ok,0,0,0.003,11,-0.14,0.72,9.88,57,0.165,8.33
11.3352,0.05236,0.08203,1.33518,0.00000,0.00000,0.00000,46,-11,51,6,73,12,48,7,ok,0,0,0.003,11,-0.14,0.72,9.88,57,0.177,8.33
11.3579,0.05236,0.08203,1.33518,0.00000,0.00000,0.00000,44,-11,53,6,72,10,49,7,ok,0,0,0.003,11,-0.14,0.72,9.88,57,0.190,8.33
11.3613,0.08203,0.03840,1.32994,0.00000,0.00000,0.00000,41,-11,53,7,72,7,50,8,ok,0,0,0.003,11,-0.14,0.81,10.27,58,0.000,8.33
11.3736,0.08203,0.03840,1.32994,0.00000,0.00000,0.00000,38,-11,55,7,72,6,50,7,ok,0,0,0.003,11,-0.14,0.81,10.27,58,0.013,8.33
11.3939,0.08203,0.03840,1.32994,0.00000,0.00000,0.00000,36,-10,56,7,71,4,51,8,ok,0,0,0.003,11,-0.14,0.81,10.27,58,0.025,8.33
11.3988,0.08203,0.03840,1.32994,0.00000,0.00000,0.00000,32,-9,57,7,69,2,52,7,ok,0,0,0.003,11,-0.14,0.81,10.27,58,0.038,8.33
11.4112,0.08203,0.03840,1.32994,0.00000,0.00000,0.00000,29,-8,57,8,66,2,52,7,ok,0,0,0.003,11,-0.14,0.81,10.27,58,0.050,8.33
11.4339,0.08203,0.03840,1.32994,0.00000,0.00000,0.00000,26,-6,58,7,65,0,53,8,ok,0,0,0.003,11,-0.14,0.81,10.27,58,0.063,8.33
11.4370,0.08203,0.03840,1.32994,0.00000,0.00000,0.00000,23,-4,58,8,63,-2,54,8,ok,0,0,0.003,11,-0.14,0.81,10.27,58,0.076,8.33
11.4496,0.08203,0.03840,1.32994,0.00000,0.00000,0.00000,20,-2,59,9,61,-3,55,8,ok,0,0,0.003,11,-0.14,0.81,10.27,58,0.089,8.33
11.4699,0.08203,0.03840,1.32994,0.00000,0.00000,0.00000,19,-1,60,10,60,-5,55,7,ok,0,0,0.003,11,-0.14,0.81,10.27,58,0.101,8.33
11.4747,0.08203,0.03840,1.32994,0.00000,0.00000,0.00000,18,0,61,10,58,-5,57,5,ok,0,0,0.003,11,-0.14,0.81,10.27,58,0.114,8.33
11.4872,0.08203,0.03840,1.32994,0.00000,0.00000,0.00000,16,2,61,11,55,-6,57,6,ok,0,0,0.003,11,-0.14,0.81,10.27,58,0.126,8.33
11.5139,0.08203,0.03840,1.32994,0.00000,0.00000,0.00000,14,5,61,11,54,-6,58,7,ok,0,0,0.003,11,-0.14,0.81,10.27,58,0.139,8.33
11.5173,0.08203,0.03840,1.32994,0.00000,0.00000,0.00000,13,8,61,12,51,-6,59,8,ok,0,0,0.003,11,-0.14,0.81,10.27,58,0.156,8.33
11.5297,0.08203,0.03840,1.32994,0.00000,0.00000,0.00000,12,10,61,12,48,-5,59,8,ok,0,0,0.003,11,-0.14,0.81,10.27,58,0.169,8.33
11.5499,0.08203,0.03840,1.32994,0.00000,0.00000,0.00000,13,11,62,13,45,-5,60,9,ok,0,0,0.003,11,-0.14,0.81,10.27,58,0.181,8.33
11.5546,0.08203,0.03840,1.32994,0.00000,0.00000,0.00000,14,11,61,14,42,-4,60,9,ok,0,0,0.003,11,-0.14,0.81,10.27,58,0.194,8.33
11.5675,0.02967,-0.01222,1.36834,0.00000,0.00000,0.00000,15,9,62,14,40,-4,61,10,ok,0,0,0.003,11,0.19,-0.67,9.95,59,0.000,8.33
11.5899,0.02967,-0.01222,1.36834,0.00000,0.00000,0.00000,17,9,62,14,37,-3,61,11,ok,0,0,0.003,11,0.19,-0.67,9.95,59,0.013,8.33
11.5930,0.02967,-0.01222,1.36834,0.00000,0.00000,0.00000,18,8,62,15,34,-3,62,12,ok,0,0,0.003,11,0.19,-0.67,9.95,59,0.026,8.33
11.6056,0.02967,-0.01222,1.36834,0.00000,0.00000,0.00000,20,7,63,16,31,-1,62,12,ok,0,0,0.003,11,0.19,-0.67,9.95,59,0.038,8.33
11.6259,0.02967,-0.01222,1.36834,0.00000,0.00000,0.00000,20,7,63,17,29,0,63,13,ok,0,0,0.003,11,0.19,-0.67,9.95,59,0.051,8.33
11.6306,0.02967,-0.01222,1.36834,0.00000,0.00000,0.00000,22,5,64,18,27,2,63,14,ok,0,0,0.003,11,0.19,-0.67,9.95,59,0.063,8.33
11.6432,0.02967,-0.01222,1.36834,0.00000,0.00000,0.00000,24,5,64,19,25,5,64,14,ok,0,0,0.003,11,0.19,-0.67,9.95,59,0.076,8.33
11.6659,0.02967,-0.01222,1.36834,0.00000,0.00000,0.00000,24,4,65,20,24,8,63,16,ok,0,0,0.003,11,0.19,-0.67,9.95,59,0.088,8.33
11.6690,0.02967,-0.01222,1.36834,0.00000,0.00000,0.00000,26,4,65,22,23,12,63,17,ok,0,0,0.003,11,0.19,-0.67,9.95,59,0.102,8.33
11.6818,0.02967,-0.01222,1.36834,0.00000,0.00000,0.00000,26,3,65,23,22,14,64,17,ok,0,0,0.003,11,0.19,-0.67,9.95,59,0.114,8.33
11.7019,0.02967,-0.01222,1.36834,0.00000,0.00000,0.00000,28,3,64,25,24,14,64,18,ok,0,0,0.003,11,0.19,-0.67,9.95,59,0.127,8.33
11.7066,0.02967,-0.01222,1.36834,0.00000,0.00000,0.00000,28,2,64,27,24,14,64,19,ok,0,0,0.003,11,0.19,-0.67,9.95,59,0.139,8.33
11.7196,0.02967,-0.01222,1.36834,0.00000,0.00000,0.00000,30,2,65,25,25,12,64,20,ok,0,0,0.003,12,0.19,-0.67,9.95,59,0.152,8.33
11.7419,0.02967,-0.01222,1.36834,0.00000,0.00000,0.00000,31,2,67,22,26,11,65,21,ok,0,0,0.003,12,0.19,-0.67,9.95,59,0.164,8.33
11.7450,0.02967,-0.01222,1.36834,0.00000,0.00000,0.00000,32,1,70,19,27,11,65,22,ok,0,0,0.003,12,0.19,-0.67,9.95,59,0.178,8.33
11.7577,0.02967,-0.01222,1.36834,0.00000,0.00000,0.00000,34,1,71,15,28,11,64,23,ok,0,0,0.003,12,0.19,-0.67,9.95,59,0.190,8.33
11.7779,-0.04538,0.09774,1.38405,0.00000,0.00000,0.00000,35,2,71,12,30,9,64,25,ok,0,0,0.003,12,1.11,-0.58,9.22,60,0.000,8.33
11.7826,-0.04538,0.09774,1.38405,0.00000,0.00000,0.00000,37,2,71,12,32,9,65,26,ok,0,0,0.003,12,1.11,-0.58,9.22,60,0.013,8.33
11.7952,-0.04538,0.09774,1.38405,0.00000,0.00000,0.00000,38,2,71,9,32,9,64,28,ok,0,0,0.003,12,1.11,-0.58,9.22,60,0.025,8.33
11.8179,-0.04538,0.09774,1.38405,0.00000,0.00000,0.00000,40,2,70,6,34,9,64,29,ok,0,0,0.003,12,1.11,-0.58,9.22,60,0.038,8.33
11.8212,-0.04538,0.09774,1.38405,0.00000,0.00000,0.00000,41,2,69,3,36,8,64,30,ok,0,0,0.003,12,1.11,-0.58,9.22,60,0.051,8.33
11.8335,-0.04538,0.09774,1.38405,0.00000,0.00000,0.00000,42,2,67,1,37,9,64,32,ok,0,0,0.003,12,1.11,-0.58,9.22,60,0.063,8.33
11.8539,-0.04538,0.09774,1.38405,0.00000,0.00000,0.00000,43,1,66,-1,38,8,64,34,ok,0,0,0.003,12,1.11,-0.58,9.22,60,0.076,8.33
11.8586,-0.04538,0.09774,1.38405,0.00000,0.00000,0.00000,44,1,64,-2,39,8,63,35,ok,0,0,0.003,12,1.11,-0.58,9.22,60,0.088,8.33
11.8712,-0.04538,0.09774,1.38405,0.00000,0.00000,0.00000,44,1,62,-3,40,7,65,35,ok,0,0,0.003,12,1.11,-0.58,9.22,60,0.101,8.33
11.8939,-0.04538,0.09774,1.38405,0.00000,0.00000,0.00000,46,2,61,-5,42,7,66,35,ok,0,0,0.003,12,1.11,-0.58,9.22,60,0.113,8.33
11.8970,-0.04538,0.09774,1.38405,0.00000,0.00000,0.00000,47,2,60,-7,43,7,68,32,ok,0,0,0.003,12,1.11,-0.58,9.22,60,0.127,8.33
11.9095,-0.04538,0.09774,1.38405,0.00000,0.00000,0.00000,48,3,57,-8,44,7,70,27,ok,0,0,0.003,12,1.11,-0.58,9.22,60,0.140,8.33
11.9299,-0.04538,0.09774,1.38405,0.00000,0.00000,0.00000,49,3,55,-9,45,7,71,23,ok,0,0,0.003,12,1.11,-0.58,9.22,60,0.152,8.33
11.9346,-0.04538,0.09774,1.38405,0.00000,0.00000,0.00000,50,3,53,-9,46,7,73,20,ok,0,0,0.003,12,1.11,-0.58,9.22,60,0.165,8.33
11.9472,-0.04538,0.09774,1.38405,0.00000,0.00000,0.00000,50,5,51,-10,47,7,73,20,ok,0,0,0.003,12,1.11,-0.58,9.22,60,0.177,8.33
11.9699,-0.04538,0.09774,1.38405,0.00000,0.00000,0.00000,51,5,48,-10,47,7,73,18,ok,0,0,0.003,12,1.11,-0.58,9.22,60,0.190,8.33
11.9733,-0.02967,0.00698,1.47131,0.00000,0.00000,0.00000,52,5,46,-10,48,7,73,14,ok,0,0,0.003,12,-0.84,0.01,10.13,61,0.000,8.33
11.9855,-0.02967,0.00698,1.47131,0.00000,0.00000,0.00000,53,6,44,-10,49,8,72,12,ok,0,0,0.003,12,-0.84,0.01,10.13,61,0.013,8.33
12.0059,-0.02967,0.00698,1.47131,0.00000,0.00000,0.00000,53,6,41,-10,50,8,72,10,ok,0,0,0.003,12,-0.84,0.01,10.13,61,0.025,8.33
12.0108,-0.02967,0.00698,1.47131,0.00000,0.00000,0.00000,55,7,39,-11,51,8,71,6,ok,0,0,0.003,12,-0.84,0.01,10.13,61,0.038,8.33
12.0233,-0.02967,0.00698,1.47131,0.00000,0.00000,0.00000,56,7,36,-10,52,7,71,5,ok,0,0,0.003,12,-0.84,0.01,10.13,61,0.050,8.33
12.0459,-0.02967,0.00698,1.47131,0.00000,0.00000,0.00000,57,7,33,-9,52,8,70,3,ok,0,0,0.003,12,-0.84,0.01,10.13,61,0.063,8.33
12.0489,-0.02967,0.00698,1.47131,0.00000,0.00000,0.00000,58,8,31,-8,53,8,68,1,ok,0,0,0.003,12,-0.84,0.01,10.13,61,0.076,8.33
12.0615,-0.02967,0.00698,1.47131,0.00000,0.00000,0.00000,58,8,27,-7,54,9,66,1,ok,0,0,0.003,12,-0.84,0.01,10.13,61,0.089,8.33
12.0819,-0.02967,0.00698,1.47131,0.00000,0.00000,0.00000,59,9,25,-5,54,8,65,-1,ok,0,0,0.003,12,-0.84,0.01,10.13,61,0.101,8.33
12.0867,-0.02967,0.00698,1.47131,0.00000,0.00000,0.00000,60,10,21,-2,55,8,64,-3,ok,0,0,0.003,12,-0.84,0.01,10.13,61,0.114,8.33
12.0992,-0.02967,0.00698,1.47131,0.00000,0.00000,0.00000,60,10,19,-1,57,6,62,-4,ok,0,0,0.003,12,-0.84,0.01,10.13,61,0.126,8.33
12.1219,-0.02967,0.00698,1.47131,0.00000,0.00000,0.00000,61,10,18,0,58,8,60,-5,ok,0,0,0.003,12,-0.84,0.01,10.13,61,0.139,8.33
12.1252,-0.02967,0.00698,1.47131,0.00000,0.00000,0.00000,61,10,16,3,58,8,58,-5,ok,0,0,0.003,12,-0.84,0.01,10.13,61,0.152,8.33
12.1375,-0.02967,0.00698,1.47131,0.00000,0.00000,0.00000,61,11,15,6,59,9,55,-6,ok,0,0,0.003,12,-0.84,0.01,10.13,61,0.165,8.33
12.1579,-0.02967,0.00698,1.47131,0.00000,0.00000,0.00000,61,12,13,9,59,9,54,-7,ok,0,0,0.003,12,-0.84,0.01,10.13,61,0.177,8.33
12.1626,-0.02967,0.00698,1.47131,0.00000,0.00000,0.00000,62,12,13,12,60,10,50,-6,ok,0,0,0.003,12,-0.84,0.01,10.13,61,0.190,8.33
12.1755,-0.02967,0.00698,1.47131,0.00000,0.00000,0.00000,62,13,14,12,60,10,48,-5,ok,0,0,0.003,12,-0.84,0.01,10.13,61,0.202,8.33
12.1979,0.01222,0.03665,1.46957,0.00000,0.00000,0.00000,61,13,15,11,60,11,46,-5,ok,0,0,0.003,12,0.36,0.50,8.64,62,0.000,8.33
12.2010,0.01222,0.03665,1.46957,0.00000,0.00000,0.00000,62,14,17,10,61,11,42,-5,ok,0,0,0.003,12,0.36,0.50,8.64,62,0.013,8.33
12.2135,0.01222,0.03665,1.46957,0.00000,0.00000,0.00000,62,15,19,9,61,12,40,-5,ok,0,0,0.003,12,0.36,0.50,8.64,62,0.026,8.33
12.2339,0.01222,0.03665,1.46957,0.00000,0.00000,0.00000,63,16,19,9,61,13,37,-4,ok,0,0,0.003,12,0.36,0.50,8.64,62,0.039,8.33
12.2386,0.01222,0.03665,1.46957,0.00000,0.00000,0.00000,63,16,21,8,61,13,35,-3,ok,0,0,0.003,12,0.36,0.50,8.64,62,0.051,8.33
12.2512,0.01222,0.03665,1.46957,0.00000,0.00000,0.00000,63,18,21,7,62,15,31,-2,ok,0,0,0.003,12,0.36,0.50,8.64,62,0.064,8.33
12.2739,0.01222,0.03665,1.46957,0.00000,0.00000,0.00000,64,19,23,6,63,14,30,-1,ok,0,0,0.003,12,0.36,0.50,8.64,62,0.076,8.33
12.2772,0.01222,0.03665,1.46957,0.00000,0.00000,0.00000,64,20,24,5,62,16,28,1,ok,0,0,0.003,12,0.36,0.50,8.64,62,0.089,8.33
12.2895,0.01222,0.03665,1.46957,0.00000,0.00000,0.00000,65,21,24,4,62,16,26,4,ok,0,0,0.003,12,0.36,0.50,8.64,62,0.102,8.33
12.3099,0.01222,0.03665,1.46957,0.00000,0.00000,0.00000,65,22,25,4,63,17,24,6,ok,0,0,0.003,12,0.36,0.50,8.64,62,0.115,8.33
12.3146,0.01222,0.03665,1.46957,0.00000,0.00000,0.00000,65,23,26,3,64,18,23,10,ok,0,0,0.003,12,0.36,0.50,8.64,62,0.127,8.33
12.3274,0.01222,0.03665,1.46957,0.00000,0.00000,0.00000,64,26,27,3,64,19,23,12,ok,0,0,0.003,12,0.36,0.50,8.64,62,0.140,8.33
12.3499,0.01222,0.03665,1.46957,0.00000,0.00000,0.00000,64,26,28,2,64,20,25,12,ok,0,0,0.003,12,0.36,0.50,8.64,62,0.152,8.33
12.3530,0.01222,0.03665,1.46957,0.00000,0.00000,0.00000,65,25,29,2,64,21,25,11,ok,0,0,0.003,12,0.36,0.50,8.64,62,0.165,8.33
