# run_gait log  cmd_fwd=0.100 hz=80.0 fw_balance=off policy_yaw_sign=-1
t,roll,pitch,yaw,gx,gy,gz,j0,j1,j2,j3,j4,j5,j6,j7,guard_state,hottest_j,hottest_tier,hottest_frac,duty_s,ax,ay,az,imu_n,imu_age_s,volt
0.0615,-0.01396,0.01745,0.00000,0.00000,0.00000,0.00000,22,0,57,10,60,-3,54,8,ok,3,0,0.000,0,0.17,-0.14,9.99,11,0.033,nan
0.0649,-0.01396,0.01745,0.00000,0.00000,0.00000,0.00000,19,1,59,10,59,-4,56,6,ok,0,0,0.000,0,0.17,-0.14,9.99,11,0.079,nan
0.0778,-0.01396,0.01745,0.00000,0.00000,0.00000,0.00000,17,4,59,11,56,-5,56,8,ok,0,0,0.000,0,0.17,-0.14,9.99,11,0.091,8.39
0.0975,-0.01396,0.01745,0.00000,0.00000,0.00000,0.00000,16,6,60,12,55,-6,57,8,ok,0,0,0.000,0,0.17,-0.14,9.99,11,0.104,8.39
0.1026,-0.01571,0.01745,0.00000,0.00000,0.00000,0.00000,14,10,59,13,52,-5,57,9,ok,4,0,0.000,0,0.17,-0.16,10.00,12,0.000,8.39
0.1149,-0.01571,0.01745,0.00000,0.00000,0.00000,0.00000,12,12,60,13,50,-5,58,10,ok,4,0,0.000,0,0.17,-0.16,10.00,12,0.013,8.39
0.1375,-0.01571,0.01745,0.00000,0.00000,0.00000,0.00000,14,13,60,14,47,-5,59,11,ok,4,0,0.000,0,0.17,-0.16,10.00,12,0.025,8.39
0.1407,-0.01571,0.01745,0.00000,0.00000,0.00000,0.00000,14,13,60,15,44,-4,59,11,ok,4,0,0.000,0,0.17,-0.16,10.00,12,0.038,8.39
0.1533,-0.01571,0.01745,0.00000,0.00000,0.00000,0.00000,16,12,61,15,42,-4,60,12,ok,4,0,0.000,0,0.17,-0.16,10.00,12,0.051,8.39
0.1735,-0.01571,0.01745,0.00000,0.00000,0.00000,0.00000,17,11,60,16,39,-3,60,12,ok,4,0,0.000,0,0.17,-0.16,10.00,12,0.063,8.39
0.1782,-0.01571,0.01745,0.00000,0.00000,0.00000,0.00000,17,11,61,17,36,-2,61,13,ok,4,0,0.000,0,0.17,-0.16,10.00,12,0.076,8.39
0.1909,-0.01571,0.01745,0.00000,0.00000,0.00000,0.00000,19,9,61,18,32,-1,61,14,ok,4,0,0.000,0,0.17,-0.16,10.00,12,0.088,8.39
0.2134,-0.01571,0.01745,0.00000,0.00000,0.00000,0.00000,19,9,61,19,30,0,62,15,ok,4,0,0.000,0,0.17,-0.16,10.00,12,0.101,8.39
0.2165,-0.01571,0.01745,0.00000,0.00000,0.00000,0.00000,22,8,62,20,27,2,62,16,ok,4,0,0.000,0,0.17,-0.16,10.00,12,0.114,8.39
0.2294,-0.01571,0.01745,0.00000,0.00000,0.00000,0.00000,23,7,62,21,25,5,63,16,ok,4,0,0.000,0,0.17,-0.16,10.00,12,0.127,8.39
0.2494,-0.01571,0.01745,0.00000,0.00000,0.00000,0.00000,24,7,62,21,23,8,64,17,ok,4,0,0.000,0,0.17,-0.16,10.00,12,0.139,8.39
0.2542,-0.01571,0.01745,0.00000,0.00000,0.00000,0.00000,25,6,62,23,22,11,64,18,ok,4,0,0.000,0,0.17,-0.16,10.00,12,0.152,8.39
0.2666,-0.01571,0.01745,0.00000,0.00000,0.00000,0.00000,26,6,62,23,21,14,64,18,ok,4,0,0.000,0,0.17,-0.16,10.00,12,0.164,8.39
0.2894,-0.01571,0.01745,0.00000,0.00000,0.00000,0.00000,27,5,61,26,23,13,65,19,ok,4,0,0.000,0,0.17,-0.16,10.00,12,0.177,8.39
0.2927,-0.01571,0.01745,0.00000,0.00000,0.00000,0.00000,28,4,61,28,23,14,65,20,ok,4,0,0.000,0,0.17,-0.16,10.00,12,0.190,8.39
0.3055,-0.04363,-0.08029,-0.00349,0.00000,0.00000,0.00000,29,4,63,26,24,12,65,21,ok,4,0,0.000,0,-0.79,-0.57,10.77,13,0.000,8.39
0.3255,-0.04363,-0.08029,-0.00349,0.00000,0.00000,0.00000,31,3,66,23,25,11,66,23,ok,4,0,0.000,0,-0.79,-0.57,10.77,13,0.013,8.39
0.3303,-0.04363,-0.08029,-0.00349,0.00000,0.00000,0.00000,32,3,68,19,26,11,66,24,ok,4,0,0.000,0,-0.79,-0.57,10.77,13,0.025,8.39
0.3428,-0.04363,-0.08029,-0.00349,0.00000,0.00000,0.00000,34,3,70,16,27,11,65,25,ok,4,0,0.000,0,-0.79,-0.57,10.77,13,0.037,8.39
0.3655,-0.04363,-0.08029,-0.00349,0.00000,0.00000,0.00000,35,3,70,14,28,10,65,27,ok,4,0,0.000,0,-0.79,-0.57,10.77,13,0.050,8.39
0.3686,-0.04363,-0.08029,-0.00349,0.00000,0.00000,0.00000,37,2,71,13,31,10,66,27,ok,4,0,0.000,0,-0.79,-0.57,10.77,13,0.064,8.39
0.3814,-0.04363,-0.08029,-0.00349,0.00000,0.00000,0.00000,38,3,71,10,31,10,65,30,ok,4,0,0.000,0,-0.79,-0.57,10.77,13,0.076,8.39
0.4014,-0.04363,-0.08029,-0.00349,0.00000,0.00000,0.00000,40,3,71,7,33,10,65,31,ok,4,0,0.000,0,-0.79,-0.57,10.77,13,0.089,8.39
0.4065,-0.04363,-0.08029,-0.00349,0.00000,0.00000,0.00000,41,3,70,4,34,9,65,32,ok,4,0,0.000,0,-0.79,-0.57,10.77,13,0.101,8.39
0.4188,-0.04363,-0.08029,-0.00349,0.00000,0.00000,0.00000,43,3,69,1,35,9,65,33,ok,4,0,0.000,0,-0.79,-0.57,10.77,13,0.114,8.39
0.4414,-0.04363,-0.08029,-0.00349,0.00000,0.00000,0.00000,44,3,68,-1,37,8,64,35,ok,4,0,0.000,0,-0.79,-0.57,10.77,13,0.126,8.39
0.4445,-0.04363,-0.08029,-0.00349,0.00000,0.00000,0.00000,45,3,67,-2,38,8,64,36,ok,4,0,0.000,0,-0.79,-0.57,10.77,13,0.139,8.39
0.4573,-0.04363,-0.08029,-0.00349,0.00000,0.00000,0.00000,45,3,65,-3,39,7,65,36,ok,4,0,0.000,0,-0.79,-0.57,10.77,13,0.152,8.39
0.4774,-0.04363,-0.08029,-0.00349,0.00000,0.00000,0.00000,47,4,63,-5,41,7,66,34,ok,4,0,0.000,0,-0.79,-0.57,10.77,13,0.165,8.39
0.4822,-0.04363,-0.08029,-0.00349,0.00000,0.00000,0.00000,49,4,62,-7,42,7,67,32,ok,4,0,0.000,0,-0.79,-0.57,10.77,13,0.177,8.39
0.4950,-0.04363,-0.08029,-0.00349,0.00000,0.00000,0.00000,51,5,59,-8,43,7,69,27,ok,4,0,0.000,0,-0.79,-0.57,10.77,13,0.190,8.39
0.5174,-0.07156,0.01920,0.03840,0.00000,0.00000,0.00000,52,4,57,-9,44,7,71,23,ok,4,0,0.000,0,0.26,0.36,11.04,14,0.000,8.39
0.5206,-0.07156,0.01920,0.03840,0.00000,0.00000,0.00000,53,4,55,-9,45,6,72,20,ok,4,0,0.000,0,0.26,0.36,11.04,14,0.013,8.39
0.5331,-0.07156,0.01920,0.03840,0.00000,0.00000,0.00000,53,6,52,-10,47,6,73,20,ok,4,0,0.000,0,0.26,0.36,11.04,14,0.026,8.39
0.5534,-0.07156,0.01920,0.03840,0.00000,0.00000,0.00000,54,6,50,-10,47,7,73,17,ok,4,0,0.000,1,0.26,0.36,11.04,14,0.038,8.39
0.5583,-0.07156,0.01920,0.03840,0.00000,0.00000,0.00000,54,6,47,-10,49,7,73,14,ok,4,0,0.000,1,0.26,0.36,11.04,14,0.051,8.39
0.5709,-0.07156,0.01920,0.03840,0.00000,0.00000,0.00000,55,6,45,-10,50,7,72,11,ok,4,0,0.000,1,0.26,0.36,11.04,14,0.063,8.39
0.5935,-0.07156,0.01920,0.03840,0.00000,0.00000,0.00000,55,7,42,-10,51,7,72,10,ok,4,0,0.000,1,0.26,0.36,11.04,14,0.076,8.39
0.5965,-0.07156,0.01920,0.03840,0.00000,0.00000,0.00000,57,7,40,-10,51,7,71,6,ok,4,0,0.000,1,0.26,0.36,11.04,14,0.089,8.39
0.6092,-0.07156,0.01920,0.03840,0.00000,0.00000,0.00000,57,7,37,-9,53,6,71,4,ok,4,0,0.000,1,0.26,0.36,11.04,14,0.102,8.39
0.6294,-0.07156,0.01920,0.03840,0.00000,0.00000,0.00000,58,7,33,-8,52,7,70,3,ok,4,0,0.000,1,0.26,0.36,11.04,14,0.114,8.39
0.6342,-0.07156,0.01920,0.03840,0.00000,0.00000,0.00000,58,8,31,-7,53,7,68,1,ok,4,0,0.000,1,0.26,0.36,11.04,14,0.127,8.39
0.6468,-0.07156,0.01920,0.03840,0.00000,0.00000,0.00000,59,8,27,-6,54,8,66,0,ok,4,0,0.000,1,0.26,0.36,11.04,14,0.139,8.39
0.6694,-0.07156,0.01920,0.03840,0.00000,0.00000,0.00000,59,9,24,-5,55,8,65,-2,ok,2,0,0.000,1,0.26,0.36,11.04,14,0.152,8.39
0.6725,-0.07156,0.01920,0.03840,0.00000,0.00000,0.00000,60,10,20,-2,56,8,64,-3,ok,2,0,0.000,1,0.26,0.36,11.04,14,0.165,8.39
0.6852,-0.07156,0.01920,0.03840,0.00000,0.00000,0.00000,61,10,19,-1,58,6,62,-5,ok,2,0,0.000,1,0.26,0.36,11.04,14,0.178,8.39
0.7054,-0.07156,0.01920,0.03840,0.00000,0.00000,0.00000,61,10,17,1,58,8,60,-5,ok,2,0,0.000,1,0.26,0.36,11.04,14,0.190,8.39
0.7104,-0.03142,0.04189,0.06807,0.00000,0.00000,0.00000,62,10,15,3,59,9,58,-6,ok,2,0,0.000,1,0.55,0.15,8.72,15,0.000,8.39
0.7228,-0.03142,0.04189,0.06807,0.00000,0.00000,0.00000,61,11,14,6,59,9,55,-6,ok,2,0,0.000,1,0.55,0.15,8.72,15,0.013,8.39
0.7454,-0.03142,0.04189,0.06807,0.00000,0.00000,0.00000,61,12,12,10,60,10,53,-7,ok,2,0,0.000,1,0.55,0.15,8.72,15,0.025,8.39
0.7486,-0.03142,0.04189,0.06807,0.00000,0.00000,0.00000,62,12,12,12,60,10,50,-6,ok,2,0,0.000,1,0.55,0.15,8.72,15,0.038,8.39
0.7612,-0.03142,0.04189,0.06807,0.00000,0.00000,0.00000,62,13,13,12,60,10,48,-6,ok,2,0,0.000,1,0.55,0.15,8.72,15,0.051,8.39
0.7814,-0.03142,0.04189,0.06807,0.00000,0.00000,0.00000,62,14,15,11,61,11,46,-6,ok,2,0,0.000,1,0.55,0.15,8.72,15,0.064,8.39
0.7862,-0.03142,0.04189,0.06807,0.00000,0.00000,0.00000,63,14,16,10,61,11,42,-5,ok,2,0,0.000,1,0.55,0.15,8.72,15,0.076,8.39
0.7987,-0.03142,0.04189,0.06807,0.00000,0.00000,0.00000,62,15,18,9,61,12,41,-5,ok,2,0,0.000,1,0.55,0.15,8.72,15,0.089,8.39
0.8215,-0.03142,0.04189,0.06807,0.00000,0.00000,0.00000,63,15,19,8,61,12,37,-4,ok,2,0,0.000,1,0.55,0.15,8.72,15,0.101,8.39
0.8245,-0.03142,0.04189,0.06807,0.00000,0.00000,0.00000,63,16,21,7,62,13,35,-3,ok,2,0,0.000,1,0.55,0.15,8.72,15,0.114,8.39
0.8373,-0.03142,0.04189,0.06807,0.00000,0.00000,0.00000,63,17,21,7,62,14,31,-1,ok,2,0,0.000,1,0.55,0.15,8.72,15,0.127,8.39
0.8574,-0.03142,0.04189,0.06807,0.00000,0.00000,0.00000,65,19,23,6,63,14,30,0,ok,2,0,0.000,1,0.55,0.15,8.72,15,0.140,8.39
0.8622,-0.03142,0.04189,0.06807,0.00000,0.00000,0.00000,65,20,24,5,63,15,28,1,ok,2,0,0.000,1,0.55,0.15,8.72,15,0.152,8.39
0.8747,-0.03142,0.04189,0.06807,0.00000,0.00000,0.00000,65,20,24,4,63,16,25,4,ok,2,0,0.000,1,0.55,0.15,8.72,15,0.165,8.39
0.9014,-0.03142,0.04189,0.06807,0.00000,0.00000,0.00000,65,22,25,4,63,17,24,7,ok,2,0,0.000,1,0.55,0.15,8.72,15,0.177,8.39
0.9047,-0.06283,0.13090,0.12217,0.00000,0.00000,0.00000,65,23,26,3,64,17,23,10,ok,2,0,0.000,1,1.36,-1.31,10.59,16,0.000,8.39
0.9173,-0.06283,0.13090,0.12217,0.00000,0.00000,0.00000,64,26,27,3,63,18,23,12,ok,2,0,0.000,1,1.36,-1.31,10.59,16,0.013,8.39
0.9374,-0.06283,0.13090,0.12217,0.00000,0.00000,0.00000,64,26,28,2,64,19,25,12,ok,2,0,0.000,1,1.36,-1.31,10.59,16,0.025,8.39
0.9422,-0.06283,0.13090,0.12217,0.00000,0.00000,0.00000,65,25,29,2,64,21,25,11,ok,2,0,0.000,1,1.36,-1.31,10.59,16,0.038,8.39
0.9546,-0.06283,0.13090,0.12217,0.00000,0.00000,0.00000,67,21,30,2,65,22,26,10,ok,2,0,0.000,1,1.36,-1.31,10.59,16,0.050,8.39
0.9774,-0.06283,0.13090,0.12217,0.00000,0.00000,0.00000,69,17,31,1,64,23,27,9,ok,2,0,0.000,1,1.36,-1.31,10.59,16,0.063,8.39
0.9805,-0.06283,0.13090,0.12217,0.00000,0.00000,0.00000,70,13,32,2,64,25,28,10,ok,2,0,0.000,1,1.36,-1.31,10.59,16,0.076,8.39
0.9931,-0.06283,0.13090,0.12217,0.00000,0.00000,0.00000,70,10,33,2,65,25,29,9,ok,2,0,0.000,1,1.36,-1.31,10.59,16,0.089,8.39
1.0134,-0.06283,0.13090,0.12217,0.00000,0.00000,0.00000,70,10,35,2,64,28,31,9,ok,2,0,0.000,1,1.36,-1.31,10.59,16,0.101,8.39
1.0182,-0.06283,0.13090,0.12217,0.00000,0.00000,0.00000,70,7,36,2,64,29,33,9,ok,2,0,0.000,1,1.36,-1.31,10.59,16,0.114,8.39
1.0306,-0.06283,0.13090,0.12217,0.00000,0.00000,0.00000,69,4,38,3,64,30,33,9,ok,2,0,0.000,1,1.36,-1.31,10.59,16,0.126,8.39
1.0534,-0.06283,0.13090,0.12217,0.00000,0.00000,0.00000,68,2,39,3,64,32,35,8,ok,2,0,0.000,1,1.36,-1.31,10.59,16,0.139,8.39
1.0565,-0.06283,0.13090,0.12217,0.00000,0.00000,0.00000,67,-1,41,2,64,34,36,8,ok,2,0,0.000,1,1.36,-1.31,10.59,16,0.152,8.39
1.0691,-0.06283,0.13090,0.12217,0.00000,0.00000,0.00000,66,-3,42,2,64,35,37,8,ok,2,0,0.000,1,1.36,-1.31,10.59,16,0.165,8.39
1.0896,-0.06283,0.13090,0.12217,0.00000,0.00000,0.00000,65,-4,43,2,65,35,39,7,ok,2,0,0.000,1,1.36,-1.31,10.59,16,0.177,8.39
1.0943,-0.06283,0.13090,0.12217,0.00000,0.00000,0.00000,63,-5,43,2,66,35,40,7,ok,2,0,0.000,1,1.36,-1.31,10.59,16,0.190,8.39
1.1068,-0.06283,0.13090,0.12217,0.00000,0.00000,0.00000,61,-6,45,3,68,33,41,7,ok,2,0,0.000,1,1.36,-1.31,10.59,16,0.202,8.39
1.1294,0.07679,0.03665,0.15359,0.00000,0.00000,0.00000,61,-9,46,3,70,28,42,7,ok,2,0,0.000,1,0.43,0.81,9.02,17,0.000,8.39
1.1325,0.07679,0.03665,0.15359,0.00000,0.00000,0.00000,58,-9,47,3,72,25,44,6,ok,2,0,0.000,1,0.43,0.81,9.02,17,0.013,8.39
1.1452,0.07679,0.03665,0.15359,0.00000,0.00000,0.00000,55,-10,48,3,74,22,44,6,ok,2,0,0.000,1,0.43,0.81,9.02,17,0.026,8.39
1.1655,0.07679,0.03665,0.15359,0.00000,0.00000,0.00000,53,-10,49,3,75,21,45,7,ok,2,0,0.000,1,0.43,0.81,9.02,17,0.039,8.39
1.1702,0.07679,0.03665,0.15359,0.00000,0.00000,0.00000,51,-11,49,5,75,19,46,7,ok,2,0,0.000,1,0.43,0.81,9.02,17,0.051,8.39
1.1827,0.07679,0.03665,0.15359,0.00000,0.00000,0.00000,49,-10,51,5,74,15,47,7,ok,2,0,0.000,1,0.43,0.81,9.02,17,0.064,8.39
1.2054,0.07679,0.03665,0.15359,0.00000,0.00000,0.00000,46,-10,52,5,74,12,48,7,ok,2,0,0.000,1,0.43,0.81,9.02,17,0.076,8.39
1.2085,0.07679,0.03665,0.15359,0.00000,0.00000,0.00000,44,-9,53,5,73,10,49,7,ok,2,0,0.000,1,0.43,0.81,9.02,17,0.089,8.39
1.2212,0.07679,0.03665,0.15359,0.00000,0.00000,0.00000,41,-10,54,6,72,7,49,8,ok,2,0,0.000,1,0.43,0.81,9.02,17,0.102,8.39
1.2414,0.07679,0.03665,0.15359,0.00000,0.00000,0.00000,38,-10,56,6,72,5,50,7,ok,2,0,0.000,1,0.43,0.81,9.02,17,0.115,8.39
1.2462,0.07679,0.03665,0.15359,0.00000,0.00000,0.00000,36,-9,56,6,71,4,51,8,ok,2,0,0.000,1,0.43,0.81,9.02,17,0.127,8.39
1.2587,0.07679,0.03665,0.15359,0.00000,0.00000,0.00000,33,-8,57,7,69,1,52,7,ok,2,0,0.000,1,0.43,0.81,9.02,17,0.140,8.39
1.2814,0.07679,0.03665,0.15359,0.00000,0.00000,0.00000,30,-8,57,8,66,2,52,8,ok,2,0,0.000,1,0.43,0.81,9.02,17,0.152,8.39
1.2845,0.07679,0.03665,0.15359,0.00000,0.00000,0.00000,26,-6,58,8,65,0,53,8,ok,2,0,0.000,1,0.43,0.81,9.02,17,0.165,8.39
1.2972,0.07679,0.03665,0.15359,0.00000,0.00000,0.00000,23,-4,58,8,63,-2,54,8,ok,2,0,0.000,1,0.43,0.81,9.02,17,0.178,8.39
1.3174,0.13614,-0.04712,0.15184,0.00000,0.00000,0.00000,20,-2,59,9,61,-3,55,8,ok,2,0,0.000,1,-0.41,0.83,10.18,18,0.000,8.39
1.3224,0.13614,-0.04712,0.15184,0.00000,0.00000,0.00000,19,-2,60,10,61,-4,55,7,ok,2,0,0.000,1,-0.41,0.83,10.18,18,0.012,8.39
1.3347,0.13614,-0.04712,0.15184,0.00000,0.00000,0.00000,18,-1,60,10,59,-5,56,5,ok,2,0,0.000,1,-0.41,0.83,10.18,18,0.025,8.39
1.3574,0.13614,-0.04712,0.15184,0.00000,0.00000,0.00000,16,2,61,11,56,-6,57,7,ok,0,0,0.000,1,-0.41,0.83,10.18,18,0.038,8.39
1.3605,0.13614,-0.04712,0.15184,0.00000,0.00000,0.00000,14,5,61,10,54,-6,58,7,ok,0,0,0.000,1,-0.41,0.83,10.18,18,0.051,8.39
1.3732,0.13614,-0.04712,0.15184,0.00000,0.00000,0.00000,13,9,61,11,51,-5,58,8,ok,0,0,0.000,1,-0.41,0.83,10.18,18,0.064,8.39
1.3934,0.13614,-0.04712,0.15184,0.00000,0.00000,0.00000,12,11,62,11,48,-5,59,8,ok,0,0,0.000,1,-0.41,0.83,10.18,18,0.076,8.39
1.3983,0.13614,-0.04712,0.15184,0.00000,0.00000,0.00000,14,12,62,12,45,-5,60,9,ok,0,0,0.000,1,-0.41,0.83,10.18,18,0.089,8.39
1.4108,0.13614,-0.04712,0.15184,0.00000,0.00000,0.00000,15,11,62,13,42,-5,59,9,ok,4,0,0.000,1,-0.41,0.83,10.18,18,0.101,8.39
1.4334,0.13614,-0.04712,0.15184,0.00000,0.00000,0.00000,16,10,63,13,40,-4,60,10,ok,4,0,0.000,1,-0.41,0.83,10.18,18,0.114,8.39
1.4365,0.13614,-0.04712,0.15184,0.00000,0.00000,0.00000,18,10,62,14,37,-3,60,11,ok,4,0,0.000,1,-0.41,0.83,10.18,18,0.127,8.39
1.4492,0.13614,-0.04712,0.15184,0.00000,0.00000,0.00000,18,9,63,15,34,-3,61,12,ok,4,0,0.000,1,-0.41,0.83,10.18,18,0.140,8.39
1.4694,0.13614,-0.04712,0.15184,0.00000,0.00000,0.00000,20,7,63,16,31,-1,61,12,ok,4,0,0.000,1,-0.41,0.83,10.18,18,0.152,8.39
1.4743,0.13614,-0.04712,0.15184,0.00000,0.00000,0.00000,21,7,63,17,29,0,62,13,ok,4,0,0.000,1,-0.41,0.83,10.18,18,0.164,8.39
1.4866,0.13614,-0.04712,0.15184,0.00000,0.00000,0.00000,23,6,65,18,27,2,62,14,ok,4,0,0.000,1,-0.41,0.83,10.18,18,0.177,8.39
1.5094,0.13614,-0.04712,0.15184,0.00000,0.00000,0.00000,24,5,65,19,25,5,63,15,ok,4,0,0.000,1,-0.41,0.83,10.18,18,0.190,8.39
1.5128,0.05061,0.11170,0.12392,0.00000,0.00000,0.00000,25,5,65,20,24,8,63,16,ok,4,0,0.000,1,0.74,0.39,9.66,19,0.000,8.39
1.5252,0.05061,0.11170,0.12392,0.00000,0.00000,0.00000,26,4,65,22,22,11,63,17,ok,4,0,0.000,1,0.74,0.39,9.66,19,0.013,8.39
1.5454,0.05061,0.11170,0.12392,0.00000,0.00000,0.00000,27,4,65,23,21,14,64,17,ok,4,0,0.000,1,0.74,0.39,9.66,19,0.025,8.39
1.5502,0.05061,0.11170,0.12392,0.00000,0.00000,0.00000,28,3,63,26,23,13,64,18,ok,4,0,0.000,1,0.74,0.39,9.66,19,0.038,8.39
1.5628,0.05061,0.11170,0.12392,0.00000,0.00000,0.00000,29,2,63,28,23,13,64,19,ok,4,0,0.000,1,0.74,0.39,9.66,19,0.050,8.39
1.5854,0.05061,0.11170,0.12392,0.00000,0.00000,0.00000,29,1,64,26,25,11,64,20,ok,4,0,0.000,2,0.74,0.39,9.66,19,0.063,8.39
1.5885,0.05061,0.11170,0.12392,0.00000,0.00000,0.00000,30,1,67,23,26,11,64,21,ok,4,0,0.000,2,0.74,0.39,9.66,19,0.076,8.39
1.6012,0.05061,0.11170,0.12392,0.00000,0.00000,0.00000,31,0,69,20,27,11,65,22,ok,4,0,0.000,2,0.74,0.39,9.66,19,0.089,8.39
1.6215,0.05061,0.11170,0.12392,0.00000,0.00000,0.00000,33,0,70,16,29,11,64,23,ok,4,0,0.000,2,0.74,0.39,9.66,19,0.101,8.39
1.6262,0.05061,0.11170,0.12392,0.00000,0.00000,0.00000,34,0,70,13,30,9,64,25,ok,4,0,0.000,2,0.74,0.39,9.66,19,0.114,8.39
1.6388,0.05061,0.11170,0.12392,0.00000,0.00000,0.00000,36,0,70,13,32,10,65,26,ok,4,0,0.000,2,0.74,0.39,9.66,19,0.126,8.39
1.6614,0.05061,0.11170,0.12392,0.00000,0.00000,0.00000,37,1,70,9,33,9,64,28,ok,4,0,0.001,2,0.74,0.39,9.66,19,0.139,8.39
1.6646,0.05061,0.11170,0.12392,0.00000,0.00000,0.00000,39,2,69,6,35,9,64,29,ok,4,0,0.001,2,0.74,0.39,9.66,19,0.152,8.39
1.6772,0.05061,0.11170,0.12392,0.00000,0.00000,0.00000,40,2,68,3,36,9,65,30,ok,4,0,0.001,2,0.74,0.39,9.66,19,0.165,8.39
1.6974,0.05061,0.11170,0.12392,0.00000,0.00000,0.00000,42,2,67,0,37,9,64,32,ok,4,0,0.001,2,0.74,0.39,9.66,19,0.177,8.39
1.7022,0.05061,0.11170,0.12392,0.00000,0.00000,0.00000,43,1,66,-2,39,8,64,34,ok,4,0,0.001,2,0.74,0.39,9.66,19,0.190,8.39
1.7148,0.05061,0.11170,0.12392,0.00000,0.00000,0.00000,44,2,64,-3,40,8,64,35,ok,4,0,0.001,2,0.74,0.39,9.66,19,0.202,8.39
1.7374,-0.09076,0.02618,0.14137,0.00000,0.00000,0.00000,44,2,62,-4,41,7,65,35,ok,4,0,0.001,2,-0.05,-1.88,9.45,20,0.000,8.39
1.7405,-0.09076,0.02618,0.14137,0.00000,0.00000,0.00000,46,2,61,-6,42,7,66,34,ok,4,0,0.001,2,-0.05,-1.88,9.45,20,0.013,8.39
1.7531,-0.09076,0.02618,0.14137,0.00000,0.00000,0.00000,47,2,60,-8,43,7,68,32,ok,4,0,0.001,2,-0.05,-1.88,9.45,20,0.026,8.39
1.7734,-0.09076,0.02618,0.14137,0.00000,0.00000,0.00000,49,2,57,-8,44,7,70,27,ok,4,0,0.001,2,-0.05,-1.88,9.45,20,0.039,8.39
1.7784,-0.09076,0.02618,0.14137,0.00000,0.00000,0.00000,50,2,55,-9,44,7,72,23,ok,4,0,0.001,2,-0.05,-1.88,9.45,20,0.051,8.39
1.7906,-0.09076,0.02618,0.14137,0.00000,0.00000,0.00000,50,2,53,-9,46,7,73,20,ok,4,0,0.001,2,-0.05,-1.88,9.45,20,0.064,8.39
1.8134,-0.09076,0.02618,0.14137,0.00000,0.00000,0.00000,50,4,51,-10,47,7,73,20,ok,4,0,0.001,2,-0.05,-1.88,9.45,20,0.076,8.39
1.8165,-0.09076,0.02618,0.14137,0.00000,0.00000,0.00000,52,5,49,-9,47,8,73,18,ok,4,0,0.001,2,-0.05,-1.88,9.45,20,0.089,8.39
1.8294,-0.09076,0.02618,0.14137,0.00000,0.00000,0.00000,52,4,46,-10,49,8,73,14,ok,4,0,0.001,2,-0.05,-1.88,9.45,20,0.102,8.39
1.8494,-0.09076,0.02618,0.14137,0.00000,0.00000,0.00000,53,5,44,-9,49,8,72,12,ok,4,0,0.001,2,-0.05,-1.88,9.45,20,0.115,8.39
1.8542,-0.09076,0.02618,0.14137,0.00000,0.00000,0.00000,53,6,41,-10,50,8,72,10,ok,4,0,0.001,2,-0.05,-1.88,9.45,20,0.127,8.39
1.8666,-0.09076,0.02618,0.14137,0.00000,0.00000,0.00000,56,7,39,-10,50,8,71,7,ok,4,0,0.001,2,-0.05,-1.88,9.45,20,0.140,8.39
1.8895,-0.09076,0.02618,0.14137,0.00000,0.00000,0.00000,56,7,37,-9,51,7,71,5,ok,4,0,0.001,2,-0.05,-1.88,9.45,20,0.152,8.39
1.8927,-0.09076,0.02618,0.14137,0.00000,0.00000,0.00000,57,7,33,-9,51,7,70,4,ok,2,0,0.001,2,-0.05,-1.88,9.45,20,0.165,8.39
1.9052,-0.09076,0.02618,0.14137,0.00000,0.00000,0.00000,58,8,30,-7,52,8,68,1,ok,2,0,0.001,2,-0.05,-1.88,9.45,20,0.178,8.39
1.9254,-0.04538,-0.06458,0.16057,0.00000,0.00000,0.00000,58,8,27,-6,53,8,66,1,ok,2,0,0.001,2,0.20,-1.06,9.75,21,0.000,8.39
1.9303,-0.04538,-0.06458,0.16057,0.00000,0.00000,0.00000,59,9,24,-5,55,9,65,-1,ok,2,0,0.001,2,0.20,-1.06,9.75,21,0.012,8.39
1.9427,-0.04538,-0.06458,0.16057,0.00000,0.00000,0.00000,60,10,20,-3,56,9,64,-2,ok,2,0,0.001,2,0.20,-1.06,9.75,21,0.025,8.39
1.9654,-0.04538,-0.06458,0.16057,0.00000,0.00000,0.00000,60,10,19,-1,58,7,62,-4,ok,2,0,0.001,2,0.20,-1.06,9.75,21,0.038,8.39
1.9686,-0.04538,-0.06458,0.16057,0.00000,0.00000,0.00000,61,10,19,0,58,8,60,-5,ok,2,0,0.001,2,0.20,-1.06,9.75,21,0.051,8.39
1.9812,-0.04538,-0.06458,0.16057,0.00000,0.00000,0.00000,61,11,17,2,59,9,58,-5,ok,2,0,0.001,2,0.20,-1.06,9.75,21,0.063,8.39
2.0014,-0.04538,-0.06458,0.16057,0.00000,0.00000,0.00000,62,11,15,5,59,9,55,-6,ok,2,0,0.001,2,0.20,-1.06,9.75,21,0.076,8.39
2.0062,-0.04538,-0.06458,0.16057,0.00000,0.00000,0.00000,62,13,14,9,59,9,54,-7,ok,2,0,0.001,2,0.20,-1.06,9.75,21,0.088,8.39
2.0188,-0.04538,-0.06458,0.16057,0.00000,0.00000,0.00000,62,13,13,11,60,10,50,-6,ok,2,0,0.001,2,0.20,-1.06,9.75,21,0.101,8.39
2.0415,-0.04538,-0.06458,0.16057,0.00000,0.00000,0.00000,62,14,15,12,60,10,48,-5,ok,2,0,0.001,2,0.20,-1.06,9.75,21,0.113,8.39
2.0445,-0.04538,-0.06458,0.16057,0.00000,0.00000,0.00000,62,14,16,11,60,11,45,-5,ok,2,0,0.001,2,0.20,-1.06,9.75,21,0.127,8.39
2.0573,-0.04538,-0.06458,0.16057,0.00000,0.00000,0.00000,63,14,17,10,61,11,42,-5,ok,2,0,0.001,2,0.20,-1.06,9.75,21,0.139,8.39
2.0774,-0.04538,-0.06458,0.16057,0.00000,0.00000,0.00000,63,15,19,9,61,12,40,-5,ok,2,0,0.001,2,0.20,-1.06,9.75,21,0.152,8.39
2.0822,-0.04538,-0.06458,0.16057,0.00000,0.00000,0.00000,63,16,20,9,61,13,37,-3,ok,2,0,0.001,2,0.20,-1.06,9.75,21,0.164,8.39
2.0946,-0.04538,-0.06458,0.16057,0.00000,0.00000,0.00000,64,17,22,8,61,13,35,-3,ok,2,0,0.001,2,0.20,-1.06,9.75,21,0.177,8.39
2.1174,-0.04538,-0.06458,0.16057,0.00000,0.00000,0.00000,64,18,22,7,61,14,31,-1,ok,2,0,0.001,2,0.20,-1.06,9.75,21,0.189,8.39
2.1208,0.10647,0.02443,0.17977,0.00000,0.00000,0.00000,65,19,24,6,62,14,29,0,ok,2,0,0.001,2,-0.24,1.01,7.98,22,0.000,8.39
2.1332,0.10647,0.02443,0.17977,0.00000,0.00000,0.00000,65,21,25,5,62,16,27,1,ok,2,0,0.001,2,-0.24,1.01,7.98,22,0.013,8.39
2.1534,0.10647,0.02443,0.17977,0.00000,0.00000,0.00000,65,22,25,5,62,17,25,4,ok,2,0,0.001,2,-0.24,1.01,7.98,22,0.025,8.39
2.1582,0.10647,0.02443,0.17977,0.00000,0.00000,0.00000,65,23,26,4,63,17,23,7,ok,2,0,0.001,2,-0.24,1.01,7.98,22,0.038,8.39
2.1708,0.10647,0.02443,0.17977,0.00000,0.00000,0.00000,65,24,26,3,64,18,22,11,ok,2,0,0.001,2,-0.24,1.01,7.98,22,0.050,8.39
2.1934,0.10647,0.02443,0.17977,0.00000,0.00000,0.00000,64,27,27,2,64,19,21,12,ok,2,0,0.001,2,-0.24,1.01,7.98,22,0.063,8.39
2.1965,0.10647,0.02443,0.17977,0.00000,0.00000,0.00000,64,28,28,1,64,20,23,11,ok,2,0,0.001,2,-0.24,1.01,7.98,22,0.076,8.39
2.2092,0.10647,0.02443,0.17977,0.00000,0.00000,0.00000,65,26,29,1,64,21,24,11,ok,2,0,0.001,2,-0.24,1.01,7.98,22,0.089,8.39
2.2294,0.10647,0.02443,0.17977,0.00000,0.00000,0.00000,67,23,30,1,64,22,25,9,ok,2,0,0.001,2,-0.24,1.01,7.98,22,0.101,8.39
2.2342,0.10647,0.02443,0.17977,0.00000,0.00000,0.00000,70,19,31,1,64,24,26,9,ok,2,0,0.001,2,-0.24,1.01,7.98,22,0.114,8.39
2.2466,0.10647,0.02443,0.17977,0.00000,0.00000,0.00000,71,14,33,1,64,25,27,9,ok,2,0,0.001,2,-0.24,1.01,7.98,22,0.126,8.39
2.2694,0.10647,0.02443,0.17977,0.00000,0.00000,0.00000,71,12,34,2,65,26,29,9,ok,2,0,0.001,2,-0.24,1.01,7.98,22,0.139,8.39
2.2725,0.10647,0.02443,0.17977,0.00000,0.00000,0.00000,70,11,36,2,64,28,30,8,ok,2,0,0.001,2,-0.24,1.01,7.98,22,0.152,8.39
2.2852,0.10647,0.02443,0.17977,0.00000,0.00000,0.00000,70,7,37,2,64,30,32,8,ok,2,0,0.001,2,-0.24,1.01,7.98,22,0.165,8.39
2.3054,0.10647,0.02443,0.17977,0.00000,0.00000,0.00000,69,5,39,3,64,31,33,8,ok,2,0,0.001,2,-0.24,1.01,7.98,22,0.177,8.39
2.3102,0.10647,0.02443,0.17977,0.00000,0.00000,0.00000,69,2,40,3,64,33,34,8,ok,2,0,0.001,2,-0.24,1.01,7.98,22,0.190,8.39
2.3229,0.10647,0.02443,0.17977,0.00000,0.00000,0.00000,68,-1,42,3,63,34,36,8,ok,2,0,0.001,2,-0.24,1.01,7.98,22,0.202,8.39
2.3454,0.04189,0.04712,0.19897,0.00000,0.00000,0.00000,67,-3,43,2,63,36,37,8,ok,2,0,0.001,2,0.10,0.95,9.22,23,0.000,8.39
2.3485,0.04189,0.04712,0.19897,0.00000,0.00000,0.00000,65,-4,44,3,64,36,38,7,ok,2,0,0.001,2,0.10,0.95,9.22,23,0.013,8.39
2.3612,0.04189,0.04712,0.19897,0.00000,0.00000,0.00000,63,-5,45,3,65,36,39,7,ok,2,0,0.001,2,0.10,0.95,9.22,23,0.026,8.39
2.3814,0.04189,0.04712,0.19897,0.00000,0.00000,0.00000,62,-7,46,3,67,33,41,6,ok,2,0,0.001,2,0.10,0.95,9.22,23,0.039,8.39
2.3862,0.04189,0.04712,0.19897,0.00000,0.00000,0.00000,61,-9,47,3,69,29,42,6,ok,2,0,0.001,2,0.10,0.95,9.22,23,0.051,8.39
2.3986,0.04189,0.04712,0.19897,0.00000,0.00000,0.00000,59,-10,48,4,70,24,43,6,ok,2,0,0.001,2,0.10,0.95,9.22,23,0.064,8.39
2.4214,0.04189,0.04712,0.19897,0.00000,0.00000,0.00000,56,-11,49,4,72,22,44,6,ok,2,0,0.001,2,0.10,0.95,9.22,23,0.076,8.39
2.4245,0.04189,0.04712,0.19897,0.00000,0.00000,0.00000,54,-11,50,4,73,21,45,7,ok,2,0,0.001,2,0.10,0.95,9.22,23,0.089,8.39
2.4371,0.04189,0.04712,0.19897,0.00000,0.00000,0.00000,52,-12,50,6,73,19,46,7,ok,2,0,0.001,2,0.10,0.95,9.22,23,0.102,8.39
2.4574,0.04189,0.04712,0.19897,0.00000,0.00000,0.00000,49,-12,51,7,73,15,47,7,ok,2,0,0.001,2,0.10,0.95,9.22,23,0.114,8.39
2.4622,0.04189,0.04712,0.19897,0.00000,0.00000,0.00000,46,-11,52,6,73,12,48,7,ok,2,0,0.001,2,0.10,0.95,9.22,23,0.127,8.39
2.4746,0.04189,0.04712,0.19897,0.00000,0.00000,0.00000,44,-11,53,6,72,10,49,7,ok,2,0,0.001,2,0.10,0.95,9.22,23,0.139,8.39
2.4974,0.04189,0.04712,0.19897,0.00000,0.00000,0.00000,41,-11,53,7,72,7,50,8,ok,2,0,0.001,2,0.10,0.95,9.22,23,0.152,8.39
2.5005,0.04189,0.04712,0.19897,0.00000,0.00000,0.00000,38,-11,56,7,71,5,50,7,ok,2,0,0.001,2,0.10,0.95,9.22,23,0.165,8.39
2.5132,0.04189,0.04712,0.19897,0.00000,0.00000,0.00000,36,-10,56,7,70,4,51,8,ok,2,0,0.001,2,0.10,0.95,9.22,23,0.178,8.39
2.5334,0.04189,0.04712,0.19897,0.00000,0.00000,0.00000,33,-9,57,7,69,1,52,7,ok,2,0,0.001,2,0.10,0.95,9.22,23,0.191,8.39
2.5384,0.08203,-0.06109,0.19199,0.00000,0.00000,0.00000,30,-7,57,8,66,2,52,8,ok,2,0,0.001,2,-0.02,1.18,9.96,24,0.000,8.39
2.5507,0.08203,-0.06109,0.19199,0.00000,0.00000,0.00000,26,-6,58,7,65,0,53,8,ok,2,0,0.001,2,-0.02,1.18,9.96,24,0.013,8.39
2.5734,0.08203,-0.06109,0.19199,0.00000,0.00000,0.00000,23,-4,58,8,64,-2,54,8,ok,2,0,0.001,2,-0.02,1.18,9.96,24,0.025,8.39
2.5766,0.08203,-0.06109,0.19199,0.00000,0.00000,0.00000,20,-2,59,9,62,-3,55,8,ok,0,0,0.001,3,-0.02,1.18,9.96,24,0.038,8.39
2.5893,0.08203,-0.06109,0.19199,0.00000,0.00000,0.00000,19,-1,60,10,60,-4,55,7,ok,0,0,0.001,3,-0.02,1.18,9.96,24,0.051,8.39
2.6094,0.08203,-0.06109,0.19199,0.00000,0.00000,0.00000,18,0,61,10,58,-5,57,5,ok,0,0,0.001,3,-0.02,1.18,9.96,24,0.063,8.39
2.6142,0.08203,-0.06109,0.19199,0.00000,0.00000,0.00000,16,3,62,11,55,-6,57,7,ok,0,0,0.001,3,-0.02,1.18,9.96,24,0.076,8.39
2.6266,0.08203,-0.06109,0.19199,0.00000,0.00000,0.00000,15,6,62,10,54,-6,58,7,ok,0,0,0.001,3,-0.02,1.18,9.96,24,0.088,8.39
2.6494,0.08203,-0.06109,0.19199,0.00000,0.00000,0.00000,13,9,62,11,51,-6,58,8,ok,0,0,0.001,3,-0.02,1.18,9.96,24,0.101,8.39
2.6525,0.08203,-0.06109,0.19199,0.00000,0.00000,0.00000,13,11,62,11,48,-5,59,8,ok,0,0,0.001,3,-0.02,1.18,9.96,24,0.114,8.39
2.6652,0.08203,-0.06109,0.19199,0.00000,0.00000,0.00000,14,12,62,12,45,-5,60,9,ok,0,0,0.001,3,-0.02,1.18,9.96,24,0.127,8.39
2.6854,0.08203,-0.06109,0.19199,0.00000,0.00000,0.00000,15,11,62,13,42,-4,59,9,ok,0,0,0.001,3,-0.02,1.18,9.96,24,0.139,8.39
2.6902,0.08203,-0.06109,0.19199,0.00000,0.00000,0.00000,16,10,63,14,40,-4,60,10,ok,0,0,0.001,3,-0.02,1.18,9.96,24,0.152,8.39
2.7027,0.08203,-0.06109,0.19199,0.00000,0.00000,0.00000,18,9,63,14,37,-3,60,11,ok,0,0,0.001,3,-0.02,1.18,9.96,24,0.164,8.39
2.7254,0.08203,-0.06109,0.19199,0.00000,0.00000,0.00000,19,9,63,15,34,-3,61,12,ok,0,0,0.001,3,-0.02,1.18,9.96,24,0.177,8.39
2.7289,0.08203,-0.06109,0.19199,0.00000,0.00000,0.00000,21,8,64,16,31,-1,61,12,ok,0,0,0.001,3,-0.02,1.18,9.96,24,0.190,8.39
2.7415,-0.01222,0.06458,0.26005,0.00000,0.00000,0.00000,21,8,64,17,29,0,62,13,ok,0,0,0.001,3,1.14,-0.52,10.42,25,0.000,8.39
2.7614,-0.01222,0.06458,0.26005,0.00000,0.00000,0.00000,23,6,65,18,27,1,62,14,ok,0,0,0.001,3,1.14,-0.52,10.42,25,0.013,8.39
2.7662,-0.01222,0.06458,0.26005,0.00000,0.00000,0.00000,24,5,65,20,24,5,63,15,ok,4,0,0.001,3,1.14,-0.52,10.42,25,0.025,8.39
2.7787,-0.01222,0.06458,0.26005,0.00000,0.00000,0.00000,25,5,65,21,23,7,63,16,ok,4,0,0.001,3,1.14,-0.52,10.42,25,0.038,8.39
2.8014,-0.01222,0.06458,0.26005,0.00000,0.00000,0.00000,26,4,64,22,22,11,63,17,ok,4,0,0.001,3,1.14,-0.52,10.42,25,0.050,8.39
2.8046,-0.01222,0.06458,0.26005,0.00000,0.00000,0.00000,27,3,64,23,21,14,64,17,ok,4,0,0.001,3,1.14,-0.52,10.42,25,0.063,8.39
2.8172,-0.01222,0.06458,0.26005,0.00000,0.00000,0.00000,27,2,63,26,23,14,64,18,ok,4,0,0.001,3,1.14,-0.52,10.42,25,0.076,8.39
2.8374,-0.01222,0.06458,0.26005,0.00000,0.00000,0.00000,28,1,63,28,24,13,64,19,ok,4,0,0.001,3,1.14,-0.52,10.42,25,0.089,8.39
2.8422,-0.01222,0.06458,0.26005,0.00000,0.00000,0.00000,29,1,64,27,25,12,64,20,ok,4,0,0.001,3,1.14,-0.52,10.42,25,0.101,8.39
2.8546,-0.01222,0.06458,0.26005,0.00000,0.00000,0.00000,30,1,67,23,26,11,65,21,ok,4,0,0.001,3,1.14,-0.52,10.42,25,0.114,8.39
2.8775,-0.01222,0.06458,0.26005,0.00000,0.00000,0.00000,31,0,69,19,27,11,65,22,ok,4,0,0.001,3,1.14,-0.52,10.42,25,0.126,8.39
2.8807,-0.01222,0.06458,0.26005,0.00000,0.00000,0.00000,33,1,70,15,29,10,65,23,ok,4,0,0.001,3,1.14,-0.52,10.42,25,0.139,8.39
2.8932,-0.01222,0.06458,0.26005,0.00000,0.00000,0.00000,35,1,71,13,30,9,65,25,ok,4,0,0.001,3,1.14,-0.52,10.42,25,0.152,8.39
2.9134,-0.01222,0.06458,0.26005,0.00000,0.00000,0.00000,37,1,70,12,32,9,66,26,ok,4,0,0.001,3,1.14,-0.52,10.42,25,0.165,8.39
2.9182,-0.01222,0.06458,0.26005,0.00000,0.00000,0.00000,38,1,70,8,33,9,65,28,ok,4,0,0.001,3,1.14,-0.52,10.42,25,0.177,8.39
2.9309,-0.01222,0.06458,0.26005,0.00000,0.00000,0.00000,39,2,69,6,35,9,64,29,ok,4,0,0.001,3,1.14,-0.52,10.42,25,0.190,8.39
2.9534,-0.01396,0.03840,0.26704,0.00000,0.00000,0.00000,41,2,69,3,36,8,64,30,ok,4,0,0.001,3,-0.12,-0.51,9.98,26,0.000,8.39
2.9567,-0.01396,0.03840,0.26704,0.00000,0.00000,0.00000,42,2,67,0,37,9,64,32,ok,4,0,0.001,3,-0.12,-0.51,9.98,26,0.013,8.39
2.9692,-0.01396,0.03840,0.26704,0.00000,0.00000,0.00000,43,2,66,-2,38,8,64,34,ok,4,0,0.001,3,-0.12,-0.51,9.98,26,0.026,8.39
2.9894,-0.01396,0.03840,0.26704,0.00000,0.00000,0.00000,44,2,64,-3,39,8,64,35,ok,4,0,0.001,3,-0.12,-0.51,9.98,26,0.038,8.39
2.9942,-0.01396,0.03840,0.26704,0.00000,0.00000,0.00000,45,2,62,-4,40,7,65,35,ok,4,0,0.001,3,-0.12,-0.51,9.98,26,0.051,8.39
3.0066,-0.01396,0.03840,0.26704,0.00000,0.00000,0.00000,46,3,61,-6,42,7,66,34,ok,4,0,0.001,3,-0.12,-0.51,9.98,26,0.063,8.39
3.0294,-0.01396,0.03840,0.26704,0.00000,0.00000,0.00000,47,3,60,-8,43,7,68,32,ok,4,0,0.001,3,-0.12,-0.51,9.98,26,0.076,8.39
3.0325,-0.01396,0.03840,0.26704,0.00000,0.00000,0.00000,49,3,58,-8,44,7,70,27,ok,4,0,0.001,3,-0.12,-0.51,9.98,26,0.089,8.39
3.0452,-0.01396,0.03840,0.26704,0.00000,0.00000,0.00000,50,3,55,-9,45,7,71,23,ok,4,0,0.001,3,-0.12,-0.51,9.98,26,0.102,8.39
3.0654,-0.01396,0.03840,0.26704,0.00000,0.00000,0.00000,50,3,53,-9,46,7,72,20,ok,4,0,0.001,3,-0.12,-0.51,9.98,26,0.115,8.39
3.0702,-0.01396,0.03840,0.26704,0.00000,0.00000,0.00000,50,5,51,-10,47,7,72,20,ok,4,0,0.001,3,-0.12,-0.51,9.98,26,0.127,8.39
3.0827,-0.01396,0.03840,0.26704,0.00000,0.00000,0.00000,51,6,49,-10,47,8,73,18,ok,4,0,0.001,3,-0.12,-0.51,9.98,26,0.139,8.39
3.1054,-0.01396,0.03840,0.26704,0.00000,0.00000,0.00000,52,5,46,-10,48,8,73,14,ok,2,0,0.001,3,-0.12,-0.51,9.98,26,0.152,8.39
3.1085,-0.01396,0.03840,0.26704,0.00000,0.00000,0.00000,53,6,44,-10,49,8,72,12,ok,2,0,0.001,3,-0.12,-0.51,9.98,26,0.165,8.39
3.1211,-0.01396,0.03840,0.26704,0.00000,0.00000,0.00000,53,7,41,-10,50,8,72,10,ok,2,0,0.001,3,-0.12,-0.51,9.98,26,0.178,8.39
3.1414,-0.01396,0.03840,0.26704,0.00000,0.00000,0.00000,56,7,39,-10,50,8,71,6,ok,2,0,0.001,3,-0.12,-0.51,9.98,26,0.190,8.39
3.1464,-0.10821,-0.04712,0.30892,0.00000,0.00000,0.00000,56,7,37,-9,51,7,71,5,ok,2,0,0.001,3,0.64,-1.42,10.35,27,0.000,8.39
3.1587,-0.10821,-0.04712,0.30892,0.00000,0.00000,0.00000,57,7,33,-9,52,7,70,3,ok,2,0,0.001,3,0.64,-1.42,10.35,27,0.013,8.39
3.1814,-0.10821,-0.04712,0.30892,0.00000,0.00000,0.00000,58,8,31,-7,52,8,68,1,ok,2,0,0.001,3,0.64,-1.42,10.35,27,0.025,8.39
3.1845,-0.10821,-0.04712,0.30892,0.00000,0.00000,0.00000,58,7,27,-6,53,8,67,1,ok,2,0,0.001,3,0.64,-1.42,10.35,27,0.038,8.39
3.1972,-0.10821,-0.04712,0.30892,0.00000,0.00000,0.00000,59,8,25,-4,54,8,65,-1,ok,2,0,0.001,3,0.64,-1.42,10.35,27,0.051,8.39
3.2174,-0.10821,-0.04712,0.30892,0.00000,0.00000,0.00000,60,9,21,-2,55,8,65,-2,ok,2,0,0.001,3,0.64,-1.42,10.35,27,0.064,8.39
3.2223,-0.10821,-0.04712,0.30892,0.00000,0.00000,0.00000,60,9,19,-1,57,6,62,-3,ok,2,0,0.001,3,0.64,-1.42,10.35,27,0.076,8.39
3.2347,-0.10821,-0.04712,0.30892,0.00000,0.00000,0.00000,61,9,19,1,57,8,60,-5,ok,2,0,0.001,3,0.64,-1.42,10.35,27,0.089,8.39
3.2574,-0.10821,-0.04712,0.30892,0.00000,0.00000,0.00000,62,10,17,3,58,8,58,-5,ok,2,0,0.001,3,0.64,-1.42,10.35,27,0.101,8.39
3.2605,-0.10821,-0.04712,0.30892,0.00000,0.00000,0.00000,62,10,15,6,59,9,56,-6,ok,2,0,0.001,3,0.64,-1.42,10.35,27,0.114,8.39
3.2734,-0.10821,-0.04712,0.30892,0.00000,0.00000,0.00000,62,12,14,9,59,9,54,-6,ok,2,0,0.001,3,0.64,-1.42,10.35,27,0.127,8.39
3.2934,-0.10821,-0.04712,0.30892,0.00000,0.00000,0.00000,62,12,13,11,60,9,50,-5,ok,2,0,0.001,3,0.64,-1.42,10.35,27,0.140,8.39
3.2982,-0.10821,-0.04712,0.30892,0.00000,0.00000,0.00000,63,13,15,12,60,10,48,-5,ok,2,0,0.001,3,0.64,-1.42,10.35,27,0.152,8.39
3.3107,-0.10821,-0.04712,0.30892,0.00000,0.00000,0.00000,62,14,16,11,60,10,46,-5,ok,2,0,0.001,3,0.64,-1.42,10.35,27,0.165,8.39
3.3334,-0.10821,-0.04712,0.30892,0.00000,0.00000,0.00000,63,14,17,10,61,11,42,-4,ok,2,0,0.001,3,0.64,-1.42,10.35,27,0.177,8.39
3.3365,-0.10821,-0.04712,0.30892,0.00000,0.00000,0.00000,63,15,19,9,61,12,41,-4,ok,2,0,0.001,3,0.64,-1.42,10.35,27,0.190,8.39
3.3495,0.01222,0.12043,0.32987,0.00000,0.00000,0.00000,63,16,20,9,61,12,37,-3,ok,2,0,0.001,3,2.73,0.16,10.18,28,0.000,8.39
3.3694,0.01222,0.12043,0.32987,0.00000,0.00000,0.00000,63,17,21,8,61,13,34,-3,ok,2,0,0.001,3,2.73,0.16,10.18,28,0.013,8.39
3.3744,0.01222,0.12043,0.32987,0.00000,0.00000,0.00000,63,18,22,7,61,14,30,-1,ok,2,0,0.001,3,2.73,0.16,10.18,28,0.025,8.39
3.3867,0.01222,0.12043,0.32987,0.00000,0.00000,0.00000,65,20,23,6,62,14,29,0,ok,2,0,0.001,3,2.73,0.16,10.18,28,0.038,8.39
3.4094,0.01222,0.12043,0.32987,0.00000,0.00000,0.00000,65,21,24,5,63,15,27,1,ok,2,0,0.001,3,2.73,0.16,10.18,28,0.050,8.39
3.4125,0.01222,0.12043,0.32987,0.00000,0.00000,0.00000,65,22,24,4,63,16,24,5,ok,2,0,0.001,3,2.73,0.16,10.18,28,0.063,8.39
3.4254,0.01222,0.12043,0.32987,0.00000,0.00000,0.00000,65,23,25,4,63,17,23,7,ok,2,0,0.001,3,2.73,0.16,10.18,28,0.076,8.39
3.4454,0.01222,0.12043,0.32987,0.00000,0.00000,0.00000,65,24,25,3,64,18,23,11,ok,2,0,0.001,3,2.73,0.16,10.18,28,0.089,8.39
3.4503,0.01222,0.12043,0.32987,0.00000,0.00000,0.00000,64,26,26,2,64,19,22,13,ok,2,0,0.001,3,2.73,0.16,10.18,28,0.101,8.39
3.4627,0.01222,0.12043,0.32987,0.00000,0.00000,0.00000,63,27,27,2,64,20,24,12,ok,2,0,0.001,3,2.73,0.16,10.18,28,0.114,8.39
3.4894,0.01222,0.12043,0.32987,0.00000,0.00000,0.00000,65,25,28,2,64,21,25,11,ok,2,0,0.001,3,2.73,0.16,10.18,28,0.126,8.39
3.4929,0.01222,0.12043,0.32987,0.00000,0.00000,0.00000,67,21,29,2,65,22,26,10,ok,2,0,0.001,3,2.73,0.16,10.18,28,0.143,8.39
3.5053,0.01222,0.12043,0.32987,0.00000,0.00000,0.00000,69,17,30,1,64,24,27,9,ok,2,0,0.001,3,2.73,0.16,10.18,28,0.156,8.39
3.5254,0.01222,0.12043,0.32987,0.00000,0.00000,0.00000,70,13,32,2,64,25,28,10,ok,2,0,0.001,3,2.73,0.16,10.18,28,0.169,8.39
3.5302,0.01222,0.12043,0.32987,0.00000,0.00000,0.00000,70,11,33,2,65,26,29,9,ok,2,0,0.001,3,2.73,0.16,10.18,28,0.181,8.39
3.5429,0.01222,0.12043,0.32987,0.00000,0.00000,0.00000,70,10,35,2,64,28,31,8,ok,2,0,0.001,3,2.73,0.16,10.18,28,0.193,8.39
3.5654,0.02967,0.06109,0.41539,0.00000,0.00000,0.00000,70,7,36,2,64,29,33,8,ok,2,0,0.001,3,0.58,0.95,10.02,29,0.000,8.39
3.5685,0.02967,0.06109,0.41539,0.00000,0.00000,0.00000,69,4,38,3,64,31,33,8,ok,2,0,0.001,3,0.58,0.95,10.02,29,0.013,8.39
3.5812,0.02967,0.06109,0.41539,0.00000,0.00000,0.00000,68,1,39,3,65,32,35,8,ok,2,0,0.001,3,0.58,0.95,10.02,29,0.026,8.39
3.6054,0.02967,0.06109,0.41539,0.00000,0.00000,0.00000,67,-1,41,2,64,34,36,8,ok,2,0,0.001,4,0.58,0.95,10.02,29,0.039,8.39
3.6086,0.02967,0.06109,0.41539,0.00000,0.00000,0.00000,66,-3,42,2,64,35,37,8,ok,2,0,0.001,4,0.58,0.95,10.02,29,0.053,8.39
3.6211,0.02967,0.06109,0.41539,0.00000,0.00000,0.00000,65,-4,44,2,65,36,38,7,ok,2,0,0.001,4,0.58,0.95,10.02,29,0.066,8.39
3.6414,0.02967,0.06109,0.41539,0.00000,0.00000,0.00000,63,-5,44,2,66,36,39,7,ok,2,0,0.001,4,0.58,0.95,10.02,29,0.079,8.39
3.6462,0.02967,0.06109,0.41539,0.00000,0.00000,0.00000,62,-6,45,3,67,33,41,6,ok,2,0,0.001,4,0.58,0.95,10.02,29,0.091,8.39
3.6587,0.02967,0.06109,0.41539,0.00000,0.00000,0.00000,61,-8,47,3,69,29,42,6,ok,2,0,0.001,4,0.58,0.95,10.02,29,0.104,8.39
3.6814,0.02967,0.06109,0.41539,0.00000,0.00000,0.00000,58,-9,48,4,71,24,43,6,ok,2,0,0.001,4,0.58,0.95,10.02,29,0.116,8.39
3.6847,0.02967,0.06109,0.41539,0.00000,0.00000,0.00000,56,-10,49,3,73,22,44,6,ok,2,0,0.001,4,0.58,0.95,10.02,29,0.129,8.39
3.6971,0.02967,0.06109,0.41539,0.00000,0.00000,0.00000,54,-10,49,3,74,21,45,7,ok,2,0,0.001,4,0.58,0.95,10.02,29,0.142,8.39
3.7174,0.02967,0.06109,0.41539,0.00000,0.00000,0.00000,52,-11,49,6,73,19,46,7,ok,2,0,0.001,4,0.58,0.95,10.02,29,0.155,8.39
3.7221,0.02967,0.06109,0.41539,0.00000,0.00000,0.00000,49,-11,51,6,73,15,47,7,ok,2,0,0.001,4,0.58,0.95,10.02,29,0.167,8.39
3.7349,0.02967,0.06109,0.41539,0.00000,0.00000,0.00000,46,-11,52,6,73,12,48,7,ok,2,0,0.001,4,0.58,0.95,10.02,29,0.180,8.39
3.7574,0.02967,0.06109,0.41539,0.00000,0.00000,0.00000,44,-11,53,6,73,10,49,8,ok,2,0,0.001,4,0.58,0.95,10.02,29,0.192,8.39
3.7608,0.08378,-0.02269,0.43633,0.00000,0.00000,0.00000,41,-11,53,7,72,7,50,8,ok,2,0,0.001,4,-0.77,0.52,10.03,30,0.000,8.39
3.7731,0.08378,-0.02269,0.43633,0.00000,0.00000,0.00000,38,-11,55,7,72,6,50,7,ok,2,0,0.001,4,-0.77,0.52,10.03,30,0.013,8.39
3.7934,0.08378,-0.02269,0.43633,0.00000,0.00000,0.00000,36,-10,56,7,71,4,51,8,ok,2,0,0.001,4,-0.77,0.52,10.03,30,0.025,8.39
3.7981,0.08378,-0.02269,0.43633,0.00000,0.00000,0.00000,32,-9,57,7,69,2,52,7,ok,2,0,0.001,4,-0.77,0.52,10.03,30,0.038,8.39
3.8109,0.08378,-0.02269,0.43633,0.00000,0.00000,0.00000,30,-7,57,7,66,2,52,8,ok,2,0,0.001,4,-0.77,0.52,10.03,30,0.050,8.39
3.8334,0.08378,-0.02269,0.43633,0.00000,0.00000,0.00000,26,-6,58,7,65,0,53,8,ok,2,0,0.001,4,-0.77,0.52,10.03,30,0.063,8.39
3.8365,0.08378,-0.02269,0.43633,0.00000,0.00000,0.00000,24,-4,59,8,63,-2,54,8,ok,2,0,0.001,4,-0.77,0.52,10.03,30,0.076,8.39
3.8491,0.08378,-0.02269,0.43633,0.00000,0.00000,0.00000,20,-1,60,9,61,-3,55,8,ok,0,0,0.001,4,-0.77,0.52,10.03,30,0.089,8.39
3.8694,0.08378,-0.02269,0.43633,0.00000,0.00000,0.00000,19,-1,61,10,60,-5,55,7,ok,0,0,0.001,4,-0.77,0.52,10.03,30,0.101,8.39
3.8741,0.08378,-0.02269,0.43633,0.00000,0.00000,0.00000,18,0,61,10,58,-5,57,5,ok,0,0,0.001,4,-0.77,0.52,10.03,30,0.114,8.39
3.8868,0.08378,-0.02269,0.43633,0.00000,0.00000,0.00000,16,2,61,11,55,-6,57,7,ok,0,0,0.001,4,-0.77,0.52,10.03,30,0.126,8.39
3.9094,0.08378,-0.02269,0.43633,0.00000,0.00000,0.00000,15,5,61,11,54,-7,58,7,ok,0,0,0.001,4,-0.77,0.52,10.03,30,0.139,8.39
3.9126,0.08378,-0.02269,0.43633,0.00000,0.00000,0.00000,13,8,61,12,51,-6,58,8,ok,0,0,0.001,4,-0.77,0.52,10.03,30,0.152,8.39
3.9251,0.08378,-0.02269,0.43633,0.00000,0.00000,0.00000,12,11,62,12,48,-5,59,8,ok,0,0,0.001,4,-0.77,0.52,10.03,30,0.165,8.39
3.9454,0.08378,-0.02269,0.43633,0.00000,0.00000,0.00000,14,11,62,13,45,-5,60,9,ok,0,0,0.001,4,-0.77,0.52,10.03,30,0.177,8.39
3.9505,0.08378,-0.02269,0.43633,0.00000,0.00000,0.00000,14,11,62,14,42,-5,59,10,ok,0,0,0.001,4,-0.77,0.52,10.03,30,0.190,8.39
3.9630,-0.01920,0.04014,0.44855,0.00000,0.00000,0.00000,16,10,63,14,40,-4,60,10,ok,0,0,0.001,4,0.63,-0.87,8.43,31,0.000,8.39
3.9854,-0.01920,0.04014,0.44855,0.00000,0.00000,0.00000,18,9,62,15,37,-4,61,11,ok,0,0,0.001,4,0.63,-0.87,8.43,31,0.013,8.39
3.9886,-0.01920,0.04014,0.44855,0.00000,0.00000,0.00000,18,8,63,16,34,-3,62,12,ok,0,0,0.001,4,0.63,-0.87,8.43,31,0.026,8.39
4.0014,-0.01920,0.04014,0.44855,0.00000,0.00000,0.00000,20,7,63,16,31,-2,61,13,ok,0,0,0.001,4,0.63,-0.87,8.43,31,0.039,8.39
4.0214,-0.01920,0.04014,0.44855,0.00000,0.00000,0.00000,21,6,63,18,29,0,62,14,ok,0,0,0.001,4,0.63,-0.87,8.43,31,0.051,8.39
4.0262,-0.01920,0.04014,0.44855,0.00000,0.00000,0.00000,22,5,64,19,27,1,63,15,ok,0,0,0.001,4,0.63,-0.87,8.43,31,0.064,8.39
4.0387,-0.01920,0.04014,0.44855,0.00000,0.00000,0.00000,23,4,64,20,25,5,63,15,ok,0,0,0.001,4,0.63,-0.87,8.43,31,0.076,8.39
4.0614,-0.01920,0.04014,0.44855,0.00000,0.00000,0.00000,24,3,64,21,24,8,63,16,ok,0,0,0.001,4,0.63,-0.87,8.43,31,0.089,8.39
4.0645,-0.01920,0.04014,0.44855,0.00000,0.00000,0.00000,25,3,64,23,23,11,63,17,ok,0,0,0.001,4,0.63,-0.87,8.43,31,0.102,8.39
4.0771,-0.01920,0.04014,0.44855,0.00000,0.00000,0.00000,26,2,64,23,22,14,64,18,ok,0,0,0.001,4,0.63,-0.87,8.43,31,0.115,8.39
4.0974,-0.01920,0.04014,0.44855,0.00000,0.00000,0.00000,27,2,63,26,24,14,64,19,ok,0,0,0.001,4,0.63,-0.87,8.43,31,0.127,8.39
4.1022,-0.01920,0.04014,0.44855,0.00000,0.00000,0.00000,28,2,63,27,24,14,64,19,ok,0,0,0.001,4,0.63,-0.87,8.43,31,0.139,8.39
4.1149,-0.01920,0.04014,0.44855,0.00000,0.00000,0.00000,29,2,64,26,25,11,64,20,ok,0,0,0.001,4,0.63,-0.87,8.43,31,0.152,8.39
4.1374,-0.01920,0.04014,0.44855,0.00000,0.00000,0.00000,31,2,67,22,26,11,65,21,ok,0,0,0.001,4,0.63,-0.87,8.43,31,0.165,8.39
4.1405,-0.01920,0.04014,0.44855,0.00000,0.00000,0.00000,32,1,69,19,27,11,65,22,ok,0,0,0.001,4,0.63,-0.87,8.43,31,0.178,8.39
4.1532,-0.01920,0.04014,0.44855,0.00000,0.00000,0.00000,34,1,70,15,29,10,65,23,ok,0,0,0.001,4,0.63,-0.87,8.43,31,0.191,8.39
4.1734,-0.00175,0.08552,0.43808,0.00000,0.00000,0.00000,35,1,71,12,30,9,65,25,ok,0,0,0.001,4,0.94,0.72,9.14,32,0.000,8.39
4.1781,-0.00175,0.08552,0.43808,0.00000,0.00000,0.00000,37,2,70,12,32,9,65,26,ok,0,0,0.001,4,0.94,0.72,9.14,32,0.013,8.39
4.1907,-0.00175,0.08552,0.43808,0.00000,0.00000,0.00000,38,2,70,8,32,9,64,28,ok,0,0,0.001,4,0.94,0.72,9.14,32,0.025,8.39
4.2134,-0.00175,0.08552,0.43808,0.00000,0.00000,0.00000,40,3,69,6,35,9,64,30,ok,0,0,0.001,4,0.94,0.72,9.14,32,0.038,8.39
4.2167,-0.00175,0.08552,0.43808,0.00000,0.00000,0.00000,41,2,68,3,36,8,64,31,ok,0,0,0.001,4,0.94,0.72,9.14,32,0.051,8.39
4.2293,-0.00175,0.08552,0.43808,0.00000,0.00000,0.00000,42,2,67,0,37,9,64,32,ok,0,0,0.001,4,0.94,0.72,9.14,32,0.064,8.39
4.2494,-0.00175,0.08552,0.43808,0.00000,0.00000,0.00000,43,2,66,-2,39,8,64,34,ok,0,0,0.001,4,0.94,0.72,9.14,32,0.076,8.39
4.2541,-0.00175,0.08552,0.43808,0.00000,0.00000,0.00000,44,2,64,-3,40,8,63,35,ok,0,0,0.001,4,0.94,0.72,9.14,32,0.088,8.39
4.2667,-0.00175,0.08552,0.43808,0.00000,0.00000,0.00000,45,2,62,-4,41,7,64,35,ok,0,0,0.001,4,0.94,0.72,9.14,32,0.101,8.39
4.2894,-0.00175,0.08552,0.43808,0.00000,0.00000,0.00000,46,3,61,-6,42,7,66,34,ok,0,0,0.001,4,0.94,0.72,9.14,32,0.113,8.39
4.2926,-0.00175,0.08552,0.43808,0.00000,0.00000,0.00000,47,3,60,-8,43,7,68,32,ok,0,0,0.001,4,0.94,0.72,9.14,32,0.127,8.39
4.3052,-0.00175,0.08552,0.43808,0.00000,0.00000,0.00000,48,3,57,-8,44,7,70,27,ok,0,0,0.001,4,0.94,0.72,9.14,32,0.140,8.39
4.3254,-0.00175,0.08552,0.43808,0.00000,0.00000,0.00000,50,3,55,-9,45,7,71,23,ok,0,0,0.001,4,0.94,0.72,9.14,32,0.152,8.39
4.3301,-0.00175,0.08552,0.43808,0.00000,0.00000,0.00000,50,3,53,-9,46,7,72,20,ok,0,0,0.001,4,0.94,0.72,9.14,32,0.164,8.39
4.3427,-0.00175,0.08552,0.43808,0.00000,0.00000,0.00000,50,5,51,-10,47,7,73,20,ok,0,0,0.001,4,0.94,0.72,9.14,32,0.177,8.39
4.3654,-0.00175,0.08552,0.43808,0.00000,0.00000,0.00000,51,5,49,-10,47,8,73,18,ok,0,0,0.001,4,0.94,0.72,9.14,32,0.190,8.39
4.3688,-0.10996,0.03665,0.49044,0.00000,0.00000,0.00000,52,5,46,-10,49,8,73,14,ok,2,0,0.001,4,-1.65,-1.15,10.81,33,0.000,8.39
4.3811,-0.10996,0.03665,0.49044,0.00000,0.00000,0.00000,53,5,44,-9,49,7,72,12,ok,2,0,0.001,4,-1.65,-1.15,10.81,33,0.013,8.39
4.4014,-0.10996,0.03665,0.49044,0.00000,0.00000,0.00000,53,6,41,-10,50,7,72,10,ok,2,0,0.001,4,-1.65,-1.15,10.81,33,0.025,8.39
4.4062,-0.10996,0.03665,0.49044,0.00000,0.00000,0.00000,56,6,39,-10,50,7,72,7,ok,2,0,0.001,4,-1.65,-1.15,10.81,33,0.038,8.39
4.4187,-0.10996,0.03665,0.49044,0.00000,0.00000,0.00000,56,6,36,-9,51,7,71,5,ok,2,0,0.001,4,-1.65,-1.15,10.81,33,0.050,8.39
4.4414,-0.10996,0.03665,0.49044,0.00000,0.00000,0.00000,57,6,33,-8,51,7,71,4,ok,2,0,0.001,4,-1.65,-1.15,10.81,33,0.063,8.39
4.4446,-0.10996,0.03665,0.49044,0.00000,0.00000,0.00000,57,7,30,-7,52,8,69,2,ok,2,0,0.001,4,-1.65,-1.15,10.81,33,0.076,8.39
4.4572,-0.10996,0.03665,0.49044,0.00000,0.00000,0.00000,58,7,27,-6,54,8,66,1,ok,2,0,0.001,4,-1.65,-1.15,10.81,33,0.089,8.39
4.4774,-0.10996,0.03665,0.49044,0.00000,0.00000,0.00000,59,8,24,-4,55,8,65,-1,ok,2,0,0.001,4,-1.65,-1.15,10.81,33,0.101,8.39
4.4822,-0.10996,0.03665,0.49044,0.00000,0.00000,0.00000,60,9,20,-2,56,8,64,-2,ok,2,0,0.001,4,-1.65,-1.15,10.81,33,0.114,8.39
4.4948,-0.10996,0.03665,0.49044,0.00000,0.00000,0.00000,60,9,19,-1,58,6,62,-3,ok,2,0,0.001,4,-1.65,-1.15,10.81,33,0.126,8.39
4.5174,-0.10996,0.03665,0.49044,0.00000,0.00000,0.00000,61,9,18,1,58,7,60,-5,ok,2,0,0.001,4,-1.65,-1.15,10.81,33,0.139,8.39
4.5207,-0.10996,0.03665,0.49044,0.00000,0.00000,0.00000,61,10,16,3,59,8,58,-5,ok,2,0,0.001,4,-1.65,-1.15,10.81,33,0.152,8.39
4.5331,-0.10996,0.03665,0.49044,0.00000,0.00000,0.00000,61,11,15,6,59,8,56,-6,ok,2,0,0.001,4,-1.65,-1.15,10.81,33,0.165,8.39
4.5534,-0.10996,0.03665,0.49044,0.00000,0.00000,0.00000,61,12,13,9,60,9,54,-6,ok,2,0,0.001,4,-1.65,-1.15,10.81,33,0.177,8.39
4.5582,-0.10996,0.03665,0.49044,0.00000,0.00000,0.00000,62,12,12,11,60,9,50,-5,ok,2,0,0.001,4,-1.65,-1.15,10.81,33,0.190,8.39
4.5709,-0.10996,0.03665,0.49044,0.00000,0.00000,0.00000,62,13,14,12,60,10,48,-5,ok,2,0,0.001,4,-1.65,-1.15,10.81,33,0.202,8.39
4.5934,0.00873,0.02269,0.49393,0.00000,0.00000,0.00000,61,13,15,11,61,10,46,-5,ok,2,0,0.001,4,1.58,0.79,9.44,34,0.000,8.39
4.5965,0.00873,0.02269,0.49393,0.00000,0.00000,0.00000,62,14,16,10,61,11,42,-4,ok,2,0,0.001,4,1.58,0.79,9.44,34,0.013,8.39
4.6093,0.00873,0.02269,0.49393,0.00000,0.00000,0.00000,62,15,18,9,62,12,40,-4,ok,2,0,0.001,5,1.58,0.79,9.44,34,0.026,8.39
4.6294,0.00873,0.02269,0.49393,0.00000,0.00000,0.00000,62,16,19,8,62,13,37,-3,ok,2,0,0.001,5,1.58,0.79,9.44,34,0.038,8.39
4.6342,0.00873,0.02269,0.49393,0.00000,0.00000,0.00000,63,17,21,7,62,13,35,-3,ok,2,0,0.001,5,1.58,0.79,9.44,34,0.051,8.39
4.6467,0.00873,0.02269,0.49393,0.00000,0.00000,0.00000,63,18,21,7,62,14,31,-1,ok,2,0,0.001,5,1.58,0.79,9.44,34,0.063,8.39
4.6694,0.00873,0.02269,0.49393,0.00000,0.00000,0.00000,65,20,23,5,63,14,29,0,ok,2,0,0.001,5,1.58,0.79,9.44,34,0.076,8.39
4.6727,0.00873,0.02269,0.49393,0.00000,0.00000,0.00000,64,21,24,4,63,16,27,1,ok,2,0,0.001,5,1.58,0.79,9.44,34,0.089,8.39
4.6854,0.00873,0.02269,0.49393,0.00000,0.00000,0.00000,65,22,24,4,63,16,25,4,ok,2,0,0.001,5,1.58,0.79,9.44,34,0.102,8.39
4.7054,0.00873,0.02269,0.49393,0.00000,0.00000,0.00000,65,23,25,3,63,17,24,6,ok,2,0,0.001,5,1.58,0.79,9.44,34,0.115,8.39
4.7102,0.00873,0.02269,0.49393,0.00000,0.00000,0.00000,65,24,26,3,64,18,23,10,ok,2,0,0.001,5,1.58,0.79,9.44,34,0.127,8.39
4.7228,0.00873,0.02269,0.49393,0.00000,0.00000,0.00000,64,26,27,2,64,19,22,12,ok,2,0,0.001,5,1.58,0.79,9.44,34,0.140,8.39
4.7454,0.00873,0.02269,0.49393,0.00000,0.00000,0.00000,64,26,28,2,64,20,24,12,ok,2,0,0.001,5,1.58,0.79,9.44,34,0.152,8.39
4.7486,0.00873,0.02269,0.49393,0.00000,0.00000,0.00000,65,25,29,2,64,21,25,11,ok,2,0,0.001,5,1.58,0.79,9.44,34,0.165,8.39
4.7613,0.00873,0.02269,0.49393,0.00000,0.00000,0.00000,67,21,30,2,65,22,25,10,ok,2,0,0.001,5,1.58,0.79,9.44,34,0.178,8.39
4.7814,-0.06283,0.08203,0.56200,0.00000,0.00000,0.00000,70,18,31,1,64,24,27,9,ok,2,0,0.001,5,-0.05,-0.35,9.57,35,0.000,8.39
4.7861,-0.06283,0.08203,0.56200,0.00000,0.00000,0.00000,70,13,33,2,64,25,28,10,ok,2,0,0.001,5,-0.05,-0.35,9.57,35,0.013,8.39
4.7987,-0.06283,0.08203,0.56200,0.00000,0.00000,0.00000,71,11,34,2,64,25,29,9,ok,2,0,0.001,5,-0.05,-0.35,9.57,35,0.025,8.39
4.8214,-0.06283,0.08203,0.56200,0.00000,0.00000,0.00000,70,10,36,2,63,27,30,9,ok,2,0,0.001,5,-0.05,-0.35,9.57,35,0.038,8.39
4.8245,-0.06283,0.08203,0.56200,0.00000,0.00000,0.00000,70,7,37,2,63,29,33,9,ok,2,0,0.001,5,-0.05,-0.35,9.57,35,0.051,8.39
4.8373,-0.06283,0.08203,0.56200,0.00000,0.00000,0.00000,69,4,39,4,64,30,33,9,ok,2,0,0.001,5,-0.05,-0.35,9.57,35,0.063,8.39
4.8574,-0.06283,0.08203,0.56200,0.00000,0.00000,0.00000,69,1,40,4,64,32,35,8,ok,2,0,0.001,5,-0.05,-0.35,9.57,35,0.076,8.39
4.8621,-0.06283,0.08203,0.56200,0.00000,0.00000,0.00000,68,-1,41,3,64,34,36,8,ok,2,0,0.001,5,-0.05,-0.35,9.57,35,0.088,8.39
4.8747,-0.06283,0.08203,0.56200,0.00000,0.00000,0.00000,66,-3,42,3,64,35,37,8,ok,2,0,0.001,5,-0.05,-0.35,9.57,35,0.101,8.39
4.8974,-0.06283,0.08203,0.56200,0.00000,0.00000,0.00000,65,-4,44,3,64,36,38,8,ok,2,0,0.001,5,-0.05,-0.35,9.57,35,0.113,8.39
4.9006,-0.06283,0.08203,0.56200,0.00000,0.00000,0.00000,63,-5,44,3,66,35,40,8,ok,2,0,0.001,5,-0.05,-0.35,9.57,35,0.127,8.39
4.9131,-0.06283,0.08203,0.56200,0.00000,0.00000,0.00000,62,-6,45,3,67,33,41,7,ok,2,0,0.001,5,-0.05,-0.35,9.57,35,0.140,8.39
4.9334,-0.06283,0.08203,0.56200,0.00000,0.00000,0.00000,61,-8,46,3,69,28,42,7,ok,2,0,0.001,5,-0.05,-0.35,9.57,35,0.152,8.39
4.9382,-0.06283,0.08203,0.56200,0.00000,0.00000,0.00000,58,-9,48,4,71,24,44,7,ok,2,0,0.001,5,-0.05,-0.35,9.57,35,0.165,8.39
4.9507,-0.06283,0.08203,0.56200,0.00000,0.00000,0.00000,56,-10,49,4,73,21,44,7,ok,2,0,0.001,5,-0.05,-0.35,9.57,35,0.177,8.39
4.9734,-0.06283,0.08203,0.56200,0.00000,0.00000,0.00000,54,-10,49,3,74,21,45,7,ok,2,0,0.001,5,-0.05,-0.35,9.57,35,0.190,8.39
4.9768,0.10996,0.06632,0.55676,0.00000,0.00000,0.00000,52,-11,49,5,74,18,46,7,ok,2,0,0.001,5,0.01,1.00,10.06,36,0.000,8.39
4.9891,0.10996,0.06632,0.55676,0.00000,0.00000,0.00000,49,-11,51,6,74,15,47,7,ok,2,0,0.001,5,0.01,1.00,10.06,36,0.013,8.39
5.0094,0.10996,0.06632,0.55676,0.00000,0.00000,0.00000,46,-11,51,5,74,12,48,7,ok,2,0,0.001,5,0.01,1.00,10.06,36,0.025,8.39
5.0143,0.10996,0.06632,0.55676,0.00000,0.00000,0.00000,43,-10,53,6,73,11,49,8,ok,2,0,0.001,5,0.01,1.00,10.06,36,0.038,8.39
5.0331,0.10996,0.06632,0.55676,0.00000,0.00000,0.00000,41,-10,53,6,73,7,49,8,ok,2,0,0.001,5,0.01,1.00,10.06,36,0.050,8.39
5.0494,0.10996,0.06632,0.55676,0.00000,0.00000,0.00000,38,-10,55,6,72,6,49,7,ok,2,0,0.001,5,0.01,1.00,10.06,36,0.063,8.39
5.0525,0.10996,0.06632,0.55676,0.00000,0.00000,0.00000,36,-9,56,6,71,4,51,8,ok,2,0,0.001,5,0.01,1.00,10.06,36,0.076,8.39
5.0651,0.10996,0.06632,0.55676,0.00000,0.00000,0.00000,33,-7,56,6,69,1,52,7,ok,2,0,0.001,5,0.01,1.00,10.06,36,0.089,8.39
5.0854,0.10996,0.06632,0.55676,0.00000,0.00000,0.00000,30,-6,57,7,66,2,52,7,ok,2,0,0.001,5,0.01,1.00,10.06,36,0.101,8.39
5.0903,0.10996,0.06632,0.55676,0.00000,0.00000,0.00000,26,-5,57,7,65,-1,53,7,ok,2,0,0.001,5,0.01,1.00,10.06,36,0.114,8.39
5.1027,0.10996,0.06632,0.55676,0.00000,0.00000,0.00000,24,-3,58,8,63,-2,54,8,ok,0,0,0.001,5,0.01,1.00,10.06,36,0.126,8.39
5.1254,0.10996,0.06632,0.55676,0.00000,0.00000,0.00000,20,-2,59,9,61,-4,55,8,ok,0,0,0.001,5,0.01,1.00,10.06,36,0.139,8.39
5.1290,0.10996,0.06632,0.55676,0.00000,0.00000,0.00000,19,-2,60,11,60,-5,55,7,ok,0,0,0.001,5,0.01,1.00,10.06,36,0.152,8.25
5.1411,0.10996,0.06632,0.55676,0.00000,0.00000,0.00000,18,-1,60,10,58,-5,57,5,ok,0,0,0.001,5,0.01,1.00,10.06,36,0.165,8.25
5.1614,0.10996,0.06632,0.55676,0.00000,0.00000,0.00000,16,1,61,11,56,-6,57,6,ok,0,0,0.001,5,0.01,1.00,10.06,36,0.177,8.25
5.1661,0.10996,0.06632,0.55676,0.00000,0.00000,0.00000,14,4,61,11,54,-7,58,7,ok,0,0,0.001,5,0.01,1.00,10.06,36,0.190,8.25
5.1790,0.13090,0.01396,0.58643,0.00000,0.00000,0.00000,12,8,61,12,51,-6,59,8,ok,0,0,0.001,5,0.96,1.10,10.48,37,0.000,8.25
5.2014,0.13090,0.01396,0.58643,0.00000,0.00000,0.00000,12,10,61,12,48,-5,59,8,ok,0,0,0.001,5,0.96,1.10,10.48,37,0.013,8.25
5.2046,0.13090,0.01396,0.58643,0.00000,0.00000,0.00000,13,11,61,13,46,-5,60,9,ok,0,0,0.001,5,0.96,1.10,10.48,37,0.026,8.25
5.2172,0.13090,0.01396,0.58643,0.00000,0.00000,0.00000,14,10,61,13,43,-4,60,9,ok,0,0,0.001,5,0.96,1.10,10.48,37,0.039,8.25
5.2374,0.13090,0.01396,0.58643,0.00000,0.00000,0.00000,15,9,62,14,40,-4,61,10,ok,0,0,0.001,5,0.96,1.10,10.48,37,0.051,8.25
5.2422,0.13090,0.01396,0.58643,0.00000,0.00000,0.00000,17,9,62,14,37,-3,61,11,ok,0,0,0.001,5,0.96,1.10,10.48,37,0.064,8.25
5.2547,0.13090,0.01396,0.58643,0.00000,0.00000,0.00000,18,8,62,15,34,-3,61,12,ok,0,0,0.001,5,0.96,1.10,10.48,37,0.076,8.25
5.2774,0.13090,0.01396,0.58643,0.00000,0.00000,0.00000,20,7,63,15,31,-1,61,12,ok,0,0,0.001,5,0.96,1.10,10.48,37,0.089,8.25
5.2808,0.13090,0.01396,0.58643,0.00000,0.00000,0.00000,20,7,63,16,29,0,62,13,ok,0,0,0.001,5,0.96,1.10,10.48,37,0.102,8.25
5.2931,0.13090,0.01396,0.58643,0.00000,0.00000,0.00000,22,6,64,18,28,2,62,14,ok,0,0,0.001,5,0.96,1.10,10.48,37,0.115,8.25
5.3134,0.13090,0.01396,0.58643,0.00000,0.00000,0.00000,23,5,64,19,25,5,63,14,ok,0,0,0.001,5,0.96,1.10,10.48,37,0.127,8.25
5.3184,0.13090,0.01396,0.58643,0.00000,0.00000,0.00000,24,4,64,20,24,8,63,16,ok,0,0,0.001,5,0.96,1.10,10.48,37,0.140,8.25
5.3308,0.13090,0.01396,0.58643,0.00000,0.00000,0.00000,25,4,64,21,23,12,63,17,ok,0,0,0.001,5,0.96,1.10,10.48,37,0.152,8.25
5.3534,0.13090,0.01396,0.58643,0.00000,0.00000,0.00000,26,3,64,22,22,15,64,17,ok,0,0,0.001,5,0.96,1.10,10.48,37,0.165,8.25
5.3566,0.13090,0.01396,0.58643,0.00000,0.00000,0.00000,28,3,63,25,24,14,64,18,ok,0,0,0.001,5,0.96,1.10,10.48,37,0.178,8.25
5.3692,0.13090,0.01396,0.58643,0.00000,0.00000,0.00000,28,2,63,27,24,14,64,19,ok,0,0,0.001,5,0.96,1.10,10.48,37,0.191,8.25
5.3894,0.00698,0.08552,0.56025,0.00000,0.00000,0.00000,30,2,65,25,25,12,64,20,ok,0,0,0.001,5,2.34,0.59,11.02,38,0.000,8.25
5.3942,0.00698,0.08552,0.56025,0.00000,0.00000,0.00000,31,1,67,23,26,11,65,20,ok,0,0,0.001,5,2.34,0.59,11.02,38,0.013,8.25
5.4067,0.00698,0.08552,0.56025,0.00000,0.00000,0.00000,32,1,70,19,27,11,65,22,ok,0,0,0.001,5,2.34,0.59,11.02,38,0.025,8.25
5.4295,0.00698,0.08552,0.56025,0.00000,0.00000,0.00000,34,1,70,15,28,10,65,23,ok,0,0,0.001,5,2.34,0.59,11.02,38,0.038,8.25
5.4326,0.00698,0.08552,0.56025,0.00000,0.00000,0.00000,35,0,71,13,29,9,65,25,ok,0,0,0.001,5,2.34,0.59,11.02,38,0.051,8.25
5.4452,0.00698,0.08552,0.56025,0.00000,0.00000,0.00000,37,0,70,13,32,9,65,26,ok,0,0,0.001,5,2.34,0.59,11.02,38,0.064,8.25
5.4654,0.00698,0.08552,0.56025,0.00000,0.00000,0.00000,38,0,70,9,32,9,64,28,ok,0,0,0.001,5,2.34,0.59,11.02,38,0.076,8.25
5.4704,0.00698,0.08552,0.56025,0.00000,0.00000,0.00000,39,1,69,7,35,9,64,29,ok,0,0,0.001,5,2.34,0.59,11.02,38,0.089,8.25
5.4828,0.00698,0.08552,0.56025,0.00000,0.00000,0.00000,40,1,68,4,36,9,64,31,ok,0,0,0.001,5,2.34,0.59,11.02,38,0.101,8.25
5.5054,0.00698,0.08552,0.56025,0.00000,0.00000,0.00000,42,1,67,1,37,9,64,33,ok,0,0,0.001,5,2.34,0.59,11.02,38,0.114,8.25
5.5086,0.00698,0.08552,0.56025,0.00000,0.00000,0.00000,43,0,66,-1,38,8,64,34,ok,0,0,0.001,5,2.34,0.59,11.02,38,0.127,8.25
5.5214,0.00698,0.08552,0.56025,0.00000,0.00000,0.00000,44,1,64,-3,39,8,64,35,ok,0,0,0.001,5,2.34,0.59,11.02,38,0.140,8.25
5.5414,0.00698,0.08552,0.56025,0.00000,0.00000,0.00000,44,2,62,-4,40,7,65,35,ok,0,0,0.001,5,2.34,0.59,11.02,38,0.152,8.25
5.5463,0.00698,0.08552,0.56025,0.00000,0.00000,0.00000,46,2,61,-6,42,7,66,34,ok,0,0,0.001,5,2.34,0.59,11.02,38,0.165,8.25
5.5588,0.00698,0.08552,0.56025,0.00000,0.00000,0.00000,47,2,60,-8,43,7,68,32,ok,0,0,0.001,5,2.34,0.59,11.02,38,0.177,8.25
5.5814,0.00698,0.08552,0.56025,0.00000,0.00000,0.00000,48,3,58,-8,44,7,70,27,ok,0,0,0.001,5,2.34,0.59,11.02,38,0.190,8.25
5.5849,-0.09425,0.07330,0.56374,0.00000,0.00000,0.00000,49,3,55,-9,45,7,71,23,ok,0,0,0.002,5,0.31,-1.04,9.47,39,0.000,8.25
5.5974,-0.09425,0.07330,0.56374,0.00000,0.00000,0.00000,50,3,53,-9,46,7,73,20,ok,0,0,0.002,5,0.31,-1.04,9.47,39,0.013,8.25
5.6174,-0.09425,0.07330,0.56374,0.00000,0.00000,0.00000,50,5,51,-10,47,7,73,20,ok,0,0,0.002,5,0.31,-1.04,9.47,39,0.025,8.25
5.6222,-0.09425,0.07330,0.56374,0.00000,0.00000,0.00000,51,5,48,-10,47,7,73,18,ok,0,0,0.002,6,0.31,-1.04,9.47,39,0.038,8.25
5.6348,-0.09425,0.07330,0.56374,0.00000,0.00000,0.00000,52,5,46,-10,48,7,73,14,ok,0,0,0.002,6,0.31,-1.04,9.47,39,0.050,8.25
5.6575,-0.09425,0.07330,0.56374,0.00000,0.00000,0.00000,53,5,44,-9,49,8,73,12,ok,0,0,0.002,6,0.31,-1.04,9.47,39,0.063,8.25
5.6608,-0.09425,0.07330,0.56374,0.00000,0.00000,0.00000,53,6,41,-10,50,7,72,10,ok,2,0,0.002,6,0.31,-1.04,9.47,39,0.076,8.25
5.6732,-0.09425,0.07330,0.56374,0.00000,0.00000,0.00000,56,6,39,-10,51,8,71,7,ok,0,0,0.002,6,0.31,-1.04,9.47,39,0.089,8.25
5.6934,-0.09425,0.07330,0.56374,0.00000,0.00000,0.00000,56,6,36,-9,52,7,71,5,ok,2,0,0.002,6,0.31,-1.04,9.47,39,0.101,8.25
5.6982,-0.09425,0.07330,0.56374,0.00000,0.00000,0.00000,57,6,33,-8,52,8,70,4,ok,2,0,0.002,6,0.31,-1.04,9.47,39,0.114,8.25
5.7108,-0.09425,0.07330,0.56374,0.00000,0.00000,0.00000,57,7,30,-7,53,8,68,2,ok,2,0,0.002,6,0.31,-1.04,9.47,39,0.126,8.25
5.7334,-0.09425,0.07330,0.56374,0.00000,0.00000,0.00000,58,7,27,-6,54,8,66,1,ok,2,0,0.002,6,0.31,-1.04,9.47,39,0.139,8.25
5.7366,-0.09425,0.07330,0.56374,0.00000,0.00000,0.00000,59,8,24,-5,55,8,65,-1,ok,2,0,0.002,6,0.31,-1.04,9.47,39,0.152,8.25
5.7494,-0.09425,0.07330,0.56374,0.00000,0.00000,0.00000,60,10,20,-2,55,8,64,-2,ok,2,0,0.002,6,0.31,-1.04,9.47,39,0.165,8.25
5.7694,-0.09425,0.07330,0.56374,0.00000,0.00000,0.00000,60,10,19,-1,57,6,62,-4,ok,2,0,0.002,6,0.31,-1.04,9.47,39,0.177,8.25
5.7743,-0.09425,0.07330,0.56374,0.00000,0.00000,0.00000,61,9,18,0,58,7,60,-5,ok,2,0,0.002,6,0.31,-1.04,9.47,39,0.190,8.25
5.7870,-0.03316,-0.00873,0.57421,0.00000,0.00000,0.00000,61,10,16,3,58,8,58,-5,ok,2,0,0.002,6,0.16,-0.72,9.85,40,0.000,8.25
5.8094,-0.03316,-0.00873,0.57421,0.00000,0.00000,0.00000,61,11,14,5,59,9,56,-6,ok,2,0,0.002,6,0.16,-0.72,9.85,40,0.013,8.25
5.8126,-0.03316,-0.00873,0.57421,0.00000,0.00000,0.00000,61,12,13,9,60,9,54,-7,ok,2,0,0.002,6,0.16,-0.72,9.85,40,0.026,8.25
5.8253,-0.03316,-0.00873,0.57421,0.00000,0.00000,0.00000,61,12,12,11,60,10,51,-6,ok,2,0,0.002,6,0.16,-0.72,9.85,40,0.039,8.25
5.8454,-0.03316,-0.00873,0.57421,0.00000,0.00000,0.00000,62,13,14,11,60,10,48,-5,ok,2,0,0.002,6,0.16,-0.72,9.85,40,0.051,8.25
5.8502,-0.03316,-0.00873,0.57421,0.00000,0.00000,0.00000,61,14,15,11,61,11,46,-5,ok,2,0,0.002,6,0.16,-0.72,9.85,40,0.063,8.25
5.8628,-0.03316,-0.00873,0.57421,0.00000,0.00000,0.00000,62,14,17,10,61,11,43,-5,ok,2,0,0.002,6,0.16,-0.72,9.85,40,0.076,8.25
5.8854,-0.03316,-0.00873,0.57421,0.00000,0.00000,0.00000,62,15,19,9,61,12,41,-5,ok,2,0,0.002,6,0.16,-0.72,9.85,40,0.089,8.25
5.8886,-0.03316,-0.00873,0.57421,0.00000,0.00000,0.00000,63,16,20,8,61,13,37,-4,ok,2,0,0.002,6,0.16,-0.72,9.85,40,0.102,8.25
5.9011,-0.03316,-0.00873,0.57421,0.00000,0.00000,0.00000,63,17,21,7,61,13,35,-4,ok,2,0,0.002,6,0.16,-0.72,9.85,40,0.114,8.25
5.9214,-0.03316,-0.00873,0.57421,0.00000,0.00000,0.00000,63,18,22,7,62,14,31,-2,ok,2,0,0.002,6,0.16,-0.72,9.85,40,0.127,8.25
5.9261,-0.03316,-0.00873,0.57421,0.00000,0.00000,0.00000,65,19,23,6,63,14,30,0,ok,2,0,0.002,6,0.16,-0.72,9.85,40,0.139,8.25
5.9387,-0.03316,-0.00873,0.57421,0.00000,0.00000,0.00000,65,20,24,5,63,15,27,1,ok,2,0,0.002,6,0.16,-0.72,9.85,40,0.152,8.25
5.9614,-0.03316,-0.00873,0.57421,0.00000,0.00000,0.00000,65,21,25,5,62,16,25,4,ok,2,0,0.002,6,0.16,-0.72,9.85,40,0.164,8.25
5.9645,-0.03316,-0.00873,0.57421,0.00000,0.00000,0.00000,65,22,26,4,63,17,24,7,ok,2,0,0.002,6,0.16,-0.72,9.85,40,0.178,8.25
5.9775,-0.02443,0.10996,0.63355,0.00000,0.00000,0.00000,65,23,26,3,64,18,23,11,ok,2,0,0.002,6,2.29,-0.96,11.18,41,0.000,8.25
5.9974,-0.02443,0.10996,0.63355,0.00000,0.00000,0.00000,64,26,27,3,63,19,22,13,ok,2,0,0.002,6,2.29,-0.96,11.18,41,0.013,8.25
6.0022,-0.02443,0.10996,0.63355,0.00000,0.00000,0.00000,64,27,28,2,63,20,24,12,ok,2,0,0.002,6,2.29,-0.96,11.18,41,0.025,8.25
6.0147,-0.02443,0.10996,0.63355,0.00000,0.00000,0.00000,65,25,29,2,64,21,24,12,ok,2,0,0.002,6,2.29,-0.96,11.18,41,0.038,8.25
6.0374,-0.02443,0.10996,0.63355,0.00000,0.00000,0.00000,67,22,30,2,64,22,25,10,ok,2,0,0.002,6,2.29,-0.96,11.18,41,0.050,8.25
6.0405,-0.02443,0.10996,0.63355,0.00000,0.00000,0.00000,69,18,31,2,64,23,26,9,ok,2,0,0.002,6,2.29,-0.96,11.18,41,0.063,8.25
6.0532,-0.02443,0.10996,0.63355,0.00000,0.00000,0.00000,70,13,32,2,64,25,28,10,ok,2,0,0.002,6,2.29,-0.96,11.18,41,0.076,8.25
6.0734,-0.02443,0.10996,0.63355,0.00000,0.00000,0.00000,70,11,33,2,65,26,29,9,ok,2,0,0.002,6,2.29,-0.96,11.18,41,0.089,8.25
6.0783,-0.02443,0.10996,0.63355,0.00000,0.00000,0.00000,70,10,35,2,64,28,30,9,ok,2,0,0.002,6,2.29,-0.96,11.18,41,0.101,8.25
6.0907,-0.02443,0.10996,0.63355,0.00000,0.00000,0.00000,70,7,36,2,64,29,32,9,ok,2,0,0.002,6,2.29,-0.96,11.18,41,0.113,8.25
6.1134,-0.02443,0.10996,0.63355,0.00000,0.00000,0.00000,69,4,38,3,64,30,33,9,ok,2,0,0.002,6,2.29,-0.96,11.18,41,0.126,8.25
6.1166,-0.02443,0.10996,0.63355,0.00000,0.00000,0.00000,68,2,39,3,64,32,35,8,ok,2,0,0.002,6,2.29,-0.96,11.18,41,0.139,8.25
6.1291,-0.02443,0.10996,0.63355,0.00000,0.00000,0.00000,67,-1,41,3,64,34,36,8,ok,2,0,0.002,6,2.29,-0.96,11.18,41,0.152,8.25
6.1494,-0.02443,0.10996,0.63355,0.00000,0.00000,0.00000,66,-3,42,2,64,35,37,8,ok,2,0,0.002,6,2.29,-0.96,11.18,41,0.164,8.25
6.1543,-0.02443,0.10996,0.63355,0.00000,0.00000,0.00000,65,-4,43,3,64,36,38,8,ok,2,0,0.002,6,2.29,-0.96,11.18,41,0.177,8.25
6.1668,-0.02443,0.10996,0.63355,0.00000,0.00000,0.00000,63,-5,44,3,66,35,40,7,ok,2,0,0.002,6,2.29,-0.96,11.18,41,0.190,8.25
6.1894,0.09076,0.06807,0.65973,0.00000,0.00000,0.00000,61,-6,45,3,68,33,41,7,ok,2,0,0.002,6,1.58,1.31,10.15,42,0.000,8.25
6.1925,0.09076,0.06807,0.65973,0.00000,0.00000,0.00000,60,-9,46,2,70,29,42,6,ok,2,0,0.002,6,1.58,1.31,10.15,42,0.013,8.25
6.2051,0.09076,0.06807,0.65973,0.00000,0.00000,0.00000,58,-9,47,4,72,25,43,6,ok,2,0,0.002,6,1.58,1.31,10.15,42,0.026,8.25
6.2254,0.09076,0.06807,0.65973,0.00000,0.00000,0.00000,55,-10,49,3,73,22,44,6,ok,2,0,0.002,6,1.58,1.31,10.15,42,0.039,8.25
6.2303,0.09076,0.06807,0.65973,0.00000,0.00000,0.00000,54,-10,49,3,74,21,45,7,ok,2,0,0.002,6,1.58,1.31,10.15,42,0.051,8.25
6.2428,0.09076,0.06807,0.65973,0.00000,0.00000,0.00000,51,-11,49,5,74,19,46,7,ok,2,0,0.002,6,1.58,1.31,10.15,42,0.063,8.25
6.2654,0.09076,0.06807,0.65973,0.00000,0.00000,0.00000,49,-10,51,6,74,15,47,7,ok,2,0,0.002,6,1.58,1.31,10.15,42,0.076,8.25
6.2686,0.09076,0.06807,0.65973,0.00000,0.00000,0.00000,46,-10,52,5,73,12,48,7,ok,2,0,0.002,6,1.58,1.31,10.15,42,0.089,8.25
6.2812,0.09076,0.06807,0.65973,0.00000,0.00000,0.00000,44,-10,53,5,73,10,49,7,ok,2,0,0.002,6,1.58,1.31,10.15,42,0.102,8.25
6.3014,0.09076,0.06807,0.65973,0.00000,0.00000,0.00000,41,-10,53,6,72,7,49,8,ok,2,0,0.002,6,1.58,1.31,10.15,42,0.114,8.25
6.3061,0.09076,0.06807,0.65973,0.00000,0.00000,0.00000,38,-10,55,6,71,5,50,7,ok,2,0,0.002,6,1.58,1.31,10.15,42,0.127,8.25
6.3190,0.09076,0.06807,0.65973,0.00000,0.00000,0.00000,36,-10,56,7,71,4,51,8,ok,2,0,0.002,6,1.58,1.31,10.15,42,0.140,8.25
6.3414,0.09076,0.06807,0.65973,0.00000,0.00000,0.00000,32,-9,57,7,69,2,52,7,ok,2,0,0.002,6,1.58,1.31,10.15,42,0.152,8.25
6.3446,0.09076,0.06807,0.65973,0.00000,0.00000,0.00000,30,-8,57,8,66,2,52,8,ok,2,0,0.002,6,1.58,1.31,10.15,42,0.165,8.25
6.3571,0.09076,0.06807,0.65973,0.00000,0.00000,0.00000,26,-6,57,8,65,0,53,8,ok,0,0,0.002,6,1.58,1.31,10.15,42,0.178,8.25
6.3774,0.09076,0.06807,0.65973,0.00000,0.00000,0.00000,23,-5,58,8,63,-2,54,8,ok,0,0,0.002,6,1.58,1.31,10.15,42,0.191,8.25
6.3824,0.06807,-0.06981,0.66323,0.00000,0.00000,0.00000,19,-2,59,9,61,-3,55,8,ok,0,0,0.002,6,-0.34,0.55,10.33,43,0.000,8.25
6.3948,0.06807,-0.06981,0.66323,0.00000,0.00000,0.00000,19,-2,60,10,61,-5,55,8,ok,0,0,0.002,6,-0.34,0.55,10.33,43,0.013,8.25
6.4174,0.06807,-0.06981,0.66323,0.00000,0.00000,0.00000,18,-1,60,10,59,-5,57,6,ok,0,0,0.002,6,-0.34,0.55,10.33,43,0.025,8.25
6.4206,0.06807,-0.06981,0.66323,0.00000,0.00000,0.00000,16,1,61,11,56,-6,57,7,ok,0,0,0.002,6,-0.34,0.55,10.33,43,0.038,8.25
6.4332,0.06807,-0.06981,0.66323,0.00000,0.00000,0.00000,14,5,61,11,54,-6,58,7,ok,0,0,0.002,6,-0.34,0.55,10.33,43,0.051,8.25
6.4534,0.06807,-0.06981,0.66323,0.00000,0.00000,0.00000,13,8,61,12,51,-6,59,8,ok,0,0,0.002,6,-0.34,0.55,10.33,43,0.063,8.25
6.4582,0.06807,-0.06981,0.66323,0.00000,0.00000,0.00000,12,11,62,12,48,-5,59,8,ok,0,0,0.002,6,-0.34,0.55,10.33,43,0.076,8.25
6.4707,0.06807,-0.06981,0.66323,0.00000,0.00000,0.00000,14,11,63,12,45,-5,60,9,ok,0,0,0.002,6,-0.34,0.55,10.33,43,0.089,8.25
6.4934,0.06807,-0.06981,0.66323,0.00000,0.00000,0.00000,15,11,62,13,42,-5,60,9,ok,0,0,0.002,6,-0.34,0.55,10.33,43,0.101,8.25
6.4968,0.06807,-0.06981,0.66323,0.00000,0.00000,0.00000,16,10,63,13,40,-4,60,10,ok,0,0,0.002,6,-0.34,0.55,10.33,43,0.114,8.25
6.5092,0.06807,-0.06981,0.66323,0.00000,0.00000,0.00000,18,9,62,14,37,-3,61,11,ok,0,0,0.002,6,-0.34,0.55,10.33,43,0.127,8.25
6.5294,0.06807,-0.06981,0.66323,0.00000,0.00000,0.00000,19,9,63,15,34,-3,61,12,ok,0,0,0.002,6,-0.34,0.55,10.33,43,0.140,8.25
6.5342,0.06807,-0.06981,0.66323,0.00000,0.00000,0.00000,21,8,63,16,31,-1,61,13,ok,0,0,0.002,6,-0.34,0.55,10.33,43,0.152,8.25
6.5467,0.06807,-0.06981,0.66323,0.00000,0.00000,0.00000,21,8,63,17,29,0,62,14,ok,0,0,0.002,6,-0.34,0.55,10.33,43,0.165,8.25
6.5694,0.06807,-0.06981,0.66323,0.00000,0.00000,0.00000,23,6,65,18,27,2,62,14,ok,0,0,0.002,6,-0.34,0.55,10.33,43,0.177,8.25
6.5729,0.06807,-0.06981,0.66323,0.00000,0.00000,0.00000,24,5,65,19,25,5,63,15,ok,0,0,0.002,6,-0.34,0.55,10.33,43,0.190,8.25
6.5855,-0.08552,0.06807,0.69290,0.00000,0.00000,0.00000,25,5,65,20,24,8,63,16,ok,0,0,0.002,6,-0.18,-1.27,8.98,44,0.000,8.25
6.6054,-0.08552,0.06807,0.69290,0.00000,0.00000,0.00000,26,4,65,22,22,11,63,17,ok,0,0,0.002,6,-0.18,-1.27,8.98,44,0.012,8.25
6.6102,-0.08552,0.06807,0.69290,0.00000,0.00000,0.00000,27,4,65,24,21,13,64,18,ok,0,0,0.002,6,-0.18,-1.27,8.98,44,0.025,8.25
6.6228,-0.08552,0.06807,0.69290,0.00000,0.00000,0.00000,29,3,64,27,23,13,64,19,ok,0,0,0.002,6,-0.18,-1.27,8.98,44,0.038,8.25
6.6454,-0.08552,0.06807,0.69290,0.00000,0.00000,0.00000,29,2,63,28,23,13,64,19,ok,0,0,0.002,7,-0.18,-1.27,8.98,44,0.050,8.25
6.6486,-0.08552,0.06807,0.69290,0.00000,0.00000,0.00000,30,1,64,27,24,11,64,21,ok,0,0,0.002,7,-0.18,-1.27,8.98,44,0.063,8.25
6.6611,-0.08552,0.06807,0.69290,0.00000,0.00000,0.00000,31,0,67,24,26,10,65,21,ok,0,0,0.002,7,-0.18,-1.27,8.98,44,0.076,8.25
6.6814,-0.08552,0.06807,0.69290,0.00000,0.00000,0.00000,32,0,69,20,27,10,65,23,ok,0,0,0.002,7,-0.18,-1.27,8.98,44,0.089,8.25
6.6863,-0.08552,0.06807,0.69290,0.00000,0.00000,0.00000,34,0,70,16,29,10,64,24,ok,0,0,0.002,7,-0.18,-1.27,8.98,44,0.101,8.25
6.6987,-0.08552,0.06807,0.69290,0.00000,0.00000,0.00000,35,0,70,14,30,9,65,26,ok,0,0,0.002,7,-0.18,-1.27,8.98,44,0.114,8.25
6.7214,-0.08552,0.06807,0.69290,0.00000,0.00000,0.00000,36,0,70,13,32,9,65,27,ok,0,0,0.002,7,-0.18,-1.27,8.98,44,0.126,8.25
6.7246,-0.08552,0.06807,0.69290,0.00000,0.00000,0.00000,38,1,70,9,33,9,65,29,ok,0,0,0.002,7,-0.18,-1.27,8.98,44,0.139,8.25
6.7372,-0.08552,0.06807,0.69290,0.00000,0.00000,0.00000,39,2,69,6,35,9,64,30,ok,0,0,0.002,7,-0.18,-1.27,8.98,44,0.152,8.25
6.7574,-0.08552,0.06807,0.69290,0.00000,0.00000,0.00000,41,2,69,3,36,8,64,31,ok,0,0,0.002,7,-0.18,-1.27,8.98,44,0.164,8.25
6.7623,-0.08552,0.06807,0.69290,0.00000,0.00000,0.00000,42,2,67,0,37,9,64,33,ok,0,0,0.002,7,-0.18,-1.27,8.98,44,0.177,8.25
6.7751,-0.08552,0.06807,0.69290,0.00000,0.00000,0.00000,43,2,66,-2,38,8,64,34,ok,0,0,0.002,7,-0.18,-1.27,8.98,44,0.189,8.25
6.7974,-0.00873,0.06458,0.69639,0.00000,0.00000,0.00000,45,3,64,-3,40,8,64,36,ok,0,0,0.002,7,0.57,-0.53,10.96,45,0.000,8.25
6.8006,-0.00873,0.06458,0.69639,0.00000,0.00000,0.00000,45,3,62,-5,41,7,65,35,ok,0,0,0.002,7,0.57,-0.53,10.96,45,0.013,8.25
6.8132,-0.00873,0.06458,0.69639,0.00000,0.00000,0.00000,46,3,61,-6,42,7,66,35,ok,0,0,0.002,7,0.57,-0.53,10.96,45,0.026,8.25
6.8334,-0.00873,0.06458,0.69639,0.00000,0.00000,0.00000,47,3,60,-8,43,7,67,32,ok,0,0,0.002,7,0.57,-0.53,10.96,45,0.039,8.25
6.8382,-0.00873,0.06458,0.69639,0.00000,0.00000,0.00000,49,4,58,-8,44,7,69,27,ok,0,0,0.002,7,0.57,-0.53,10.96,45,0.051,8.25
6.8507,-0.00873,0.06458,0.69639,0.00000,0.00000,0.00000,50,4,55,-10,45,7,70,23,ok,0,0,0.002,7,0.57,-0.53,10.96,45,0.063,8.25
6.8734,-0.00873,0.06458,0.69639,0.00000,0.00000,0.00000,50,3,53,-10,46,7,72,20,ok,0,0,0.002,7,0.57,-0.53,10.96,45,0.076,8.25
6.8765,-0.00873,0.06458,0.69639,0.00000,0.00000,0.00000,50,6,51,-11,47,7,72,20,ok,0,0,0.002,7,0.57,-0.53,10.96,45,0.089,8.25
6.8891,-0.00873,0.06458,0.69639,0.00000,0.00000,0.00000,51,6,49,-11,48,7,73,18,ok,0,0,0.002,7,0.57,-0.53,10.96,45,0.102,8.25
6.9094,-0.00873,0.06458,0.69639,0.00000,0.00000,0.00000,52,6,46,-10,49,7,73,14,ok,0,0,0.002,7,0.57,-0.53,10.96,45,0.114,8.25
6.9141,-0.00873,0.06458,0.69639,0.00000,0.00000,0.00000,53,6,44,-10,49,8,72,12,ok,0,0,0.002,7,0.57,-0.53,10.96,45,0.127,8.25
6.9267,-0.00873,0.06458,0.69639,0.00000,0.00000,0.00000,53,7,41,-10,50,7,71,10,ok,0,0,0.002,7,0.57,-0.53,10.96,45,0.140,8.25
6.9495,-0.00873,0.06458,0.69639,0.00000,0.00000,0.00000,56,7,39,-10,51,8,71,6,ok,0,0,0.002,7,0.57,-0.53,10.96,45,0.152,8.25
6.9526,-0.00873,0.06458,0.69639,0.00000,0.00000,0.00000,56,7,36,-9,52,7,70,5,ok,0,0,0.002,7,0.57,-0.53,10.96,45,0.165,8.25
6.9653,-0.00873,0.06458,0.69639,0.00000,0.00000,0.00000,57,7,33,-8,52,7,70,3,ok,2,0,0.002,7,0.57,-0.53,10.96,45,0.178,8.25
6.9854,-0.00873,0.06458,0.69639,0.00000,0.00000,0.00000,57,8,30,-7,53,8,68,1,ok,2,0,0.002,7,0.57,-0.53,10.96,45,0.191,8.25
6.9904,-0.09599,-0.01396,0.73478,0.00000,0.00000,0.00000,58,8,27,-6,53,8,66,1,ok,2,0,0.002,7,0.47,-0.63,10.78,46,0.000,8.25
7.0028,-0.09599,-0.01396,0.73478,0.00000,0.00000,0.00000,59,8,24,-4,55,8,65,-1,ok,2,0,0.002,7,0.47,-0.63,10.78,46,0.012,8.25
7.0254,-0.09599,-0.01396,0.73478,0.00000,0.00000,0.00000,60,9,20,-2,56,8,64,-2,ok,2,0,0.002,7,0.47,-0.63,10.78,46,0.025,8.25
7.0288,-0.09599,-0.01396,0.73478,0.00000,0.00000,0.00000,60,9,19,-1,57,6,62,-4,ok,2,0,0.002,7,0.47,-0.63,10.78,46,0.038,8.25
7.0412,-0.09599,-0.01396,0.73478,0.00000,0.00000,0.00000,61,9,18,1,57,7,60,-5,ok,2,0,0.002,7,0.47,-0.63,10.78,46,0.051,8.25
7.0614,-0.09599,-0.01396,0.73478,0.00000,0.00000,0.00000,61,10,16,3,58,8,59,-5,ok,2,0,0.002,7,0.47,-0.63,10.78,46,0.063,8.25
7.0663,-0.09599,-0.01396,0.73478,0.00000,0.00000,0.00000,61,10,15,6,59,9,56,-6,ok,2,0,0.002,7,0.47,-0.63,10.78,46,0.076,8.25
7.0789,-0.09599,-0.01396,0.73478,0.00000,0.00000,0.00000,61,11,13,10,59,9,54,-6,ok,2,0,0.002,7,0.47,-0.63,10.78,46,0.088,8.25
7.1015,-0.09599,-0.01396,0.73478,0.00000,0.00000,0.00000,62,11,13,12,60,10,51,-5,ok,2,0,0.002,7,0.47,-0.63,10.78,46,0.101,8.25
7.1048,-0.09599,-0.01396,0.73478,0.00000,0.00000,0.00000,62,12,15,12,60,10,48,-5,ok,2,0,0.002,7,0.47,-0.63,10.78,46,0.115,8.25
7.1173,-0.09599,-0.01396,0.73478,0.00000,0.00000,0.00000,62,13,15,11,61,10,46,-5,ok,2,0,0.002,7,0.47,-0.63,10.78,46,0.127,8.25
7.1374,-0.09599,-0.01396,0.73478,0.00000,0.00000,0.00000,62,14,17,10,61,11,43,-4,ok,2,0,0.002,7,0.47,-0.63,10.78,46,0.140,8.25
7.1423,-0.09599,-0.01396,0.73478,0.00000,0.00000,0.00000,62,15,19,9,61,12,41,-4,ok,2,0,0.002,7,0.47,-0.63,10.78,46,0.152,8.25
7.1549,-0.09599,-0.01396,0.73478,0.00000,0.00000,0.00000,63,16,19,9,61,12,37,-3,ok,2,0,0.002,7,0.47,-0.63,10.78,46,0.165,8.25
7.1774,-0.09599,-0.01396,0.73478,0.00000,0.00000,0.00000,63,16,21,8,61,13,35,-3,ok,2,0,0.002,7,0.47,-0.63,10.78,46,0.177,8.25
7.1807,-0.09599,-0.01396,0.73478,0.00000,0.00000,0.00000,63,18,22,7,62,14,31,-1,ok,2,0,0.002,7,0.47,-0.63,10.78,46,0.190,8.25
7.1935,-0.05760,0.14137,0.76096,0.00000,0.00000,0.00000,65,19,23,6,63,14,30,0,ok,2,0,0.002,7,1.16,-0.97,11.30,47,0.000,8.25
7.2134,-0.05760,0.14137,0.76096,0.00000,0.00000,0.00000,65,21,24,6,62,15,27,2,ok,2,0,0.002,7,1.16,-0.97,11.30,47,0.012,8.25
7.2182,-0.05760,0.14137,0.76096,0.00000,0.00000,0.00000,65,21,24,5,62,16,25,5,ok,2,0,0.002,7,1.16,-0.97,11.30,47,0.025,8.25
7.2308,-0.05760,0.14137,0.76096,0.00000,0.00000,0.00000,65,23,25,4,63,17,24,7,ok,2,0,0.002,7,1.16,-0.97,11.30,47,0.038,8.25
7.2534,-0.05760,0.14137,0.76096,0.00000,0.00000,0.00000,65,23,25,3,64,17,23,11,ok,2,0,0.002,7,1.16,-0.97,11.30,47,0.050,8.25
7.2565,-0.05760,0.14137,0.76096,0.00000,0.00000,0.00000,64,26,26,3,64,18,22,13,ok,2,0,0.002,7,1.16,-0.97,11.30,47,0.063,8.25
7.2691,-0.05760,0.14137,0.76096,0.00000,0.00000,0.00000,63,26,27,2,64,19,24,12,ok,2,0,0.002,7,1.16,-0.97,11.30,47,0.076,8.25
7.2894,-0.05760,0.14137,0.76096,0.00000,0.00000,0.00000,65,25,28,2,64,21,25,12,ok,2,0,0.002,7,1.16,-0.97,11.30,47,0.088,8.25
7.2943,-0.05760,0.14137,0.76096,0.00000,0.00000,0.00000,67,21,29,2,65,22,25,10,ok,2,0,0.002,7,1.16,-0.97,11.30,47,0.101,8.25
7.3068,-0.05760,0.14137,0.76096,0.00000,0.00000,0.00000,69,18,30,1,64,23,27,9,ok,2,0,0.002,7,1.16,-0.97,11.30,47,0.113,8.25
7.3294,-0.05760,0.14137,0.76096,0.00000,0.00000,0.00000,70,13,32,2,64,25,28,10,ok,2,0,0.002,7,1.16,-0.97,11.30,47,0.126,8.25
7.3325,-0.05760,0.14137,0.76096,0.00000,0.00000,0.00000,70,11,33,2,65,25,29,9,ok,2,0,0.002,7,1.16,-0.97,11.30,47,0.139,8.25
7.3453,-0.05760,0.14137,0.76096,0.00000,0.00000,0.00000,69,10,35,2,64,28,31,8,ok,2,0,0.002,7,1.16,-0.97,11.30,47,0.152,8.25
7.3654,-0.05760,0.14137,0.76096,0.00000,0.00000,0.00000,69,7,36,2,64,29,33,8,ok,2,0,0.002,7,1.16,-0.97,11.30,47,0.164,8.25
7.3702,-0.05760,0.14137,0.76096,0.00000,0.00000,0.00000,69,4,38,3,64,30,33,9,ok,2,0,0.002,7,1.16,-0.97,11.30,47,0.177,8.25
7.3829,-0.05760,0.14137,0.76096,0.00000,0.00000,0.00000,68,2,39,3,65,32,35,8,ok,2,0,0.002,7,1.16,-0.97,11.30,47,0.189,8.25
7.4054,0.06283,0.03840,0.79762,0.00000,0.00000,0.00000,67,-1,41,2,64,34,36,8,ok,2,0,0.002,7,0.37,1.05,10.57,48,0.000,8.25
7.4087,0.06283,0.03840,0.79762,0.00000,0.00000,0.00000,66,-3,42,1,65,35,37,8,ok,2,0,0.002,7,0.37,1.05,10.57,48,0.013,8.25
7.4212,0.06283,0.03840,0.79762,0.00000,0.00000,0.00000,64,-4,43,2,65,36,38,8,ok,2,0,0.002,7,0.37,1.05,10.57,48,0.026,8.25
7.4414,0.06283,0.03840,0.79762,0.00000,0.00000,0.00000,62,-5,44,2,67,36,39,7,ok,2,0,0.002,7,0.37,1.05,10.57,48,0.039,8.25
7.4462,0.06283,0.03840,0.79762,0.00000,0.00000,0.00000,61,-6,45,2,68,34,41,7,ok,2,0,0.002,7,0.37,1.05,10.57,48,0.051,8.25
7.4587,0.06283,0.03840,0.79762,0.00000,0.00000,0.00000,61,-8,46,2,70,29,42,7,ok,2,0,0.002,7,0.37,1.05,10.57,48,0.063,8.25
7.4814,0.06283,0.03840,0.79762,0.00000,0.00000,0.00000,59,-8,48,3,72,25,43,7,ok,2,0,0.002,7,0.37,1.05,10.57,48,0.076,8.25
7.4845,0.06283,0.03840,0.79762,0.00000,0.00000,0.00000,56,-9,49,3,73,22,44,6,ok,2,0,0.002,7,0.37,1.05,10.57,48,0.089,8.25
7.4974,0.06283,0.03840,0.79762,0.00000,0.00000,0.00000,54,-9,50,2,74,21,45,6,ok,2,0,0.002,7,0.37,1.05,10.57,48,0.102,8.25
7.5174,0.06283,0.03840,0.79762,0.00000,0.00000,0.00000,52,-10,50,5,74,18,46,6,ok,2,0,0.002,7,0.37,1.05,10.57,48,0.114,8.25
7.5222,0.06283,0.03840,0.79762,0.00000,0.00000,0.00000,49,-10,51,6,74,15,47,7,ok,2,0,0.002,7,0.37,1.05,10.57,48,0.127,8.25
7.5348,0.06283,0.03840,0.79762,0.00000,0.00000,0.00000,47,-11,52,5,73,12,48,7,ok,2,0,0.002,7,0.37,1.05,10.57,48,0.140,8.25
7.5574,0.06283,0.03840,0.79762,0.00000,0.00000,0.00000,44,-11,53,6,73,10,49,8,ok,2,0,0.002,7,0.37,1.05,10.57,48,0.152,8.25
7.5608,0.06283,0.03840,0.79762,0.00000,0.00000,0.00000,41,-11,53,7,72,7,49,8,ok,2,0,0.002,7,0.37,1.05,10.57,48,0.165,8.25
7.5731,0.06283,0.03840,0.79762,0.00000,0.00000,0.00000,38,-11,56,7,71,5,50,7,ok,2,0,0.002,7,0.37,1.05,10.57,48,0.178,8.25
7.5934,0.06283,0.03840,0.79762,0.00000,0.00000,0.00000,36,-10,56,7,70,4,51,8,ok,2,0,0.002,7,0.37,1.05,10.57,48,0.190,8.25
7.5984,0.08552,-0.05760,0.78714,0.00000,0.00000,0.00000,33,-9,57,7,69,1,52,7,ok,2,0,0.002,7,0.05,0.98,10.12,49,0.000,8.25
7.6107,0.08552,-0.05760,0.78714,0.00000,0.00000,0.00000,30,-8,57,8,66,2,52,8,ok,2,0,0.002,7,0.05,0.98,10.12,49,0.013,8.25
7.6334,0.08552,-0.05760,0.78714,0.00000,0.00000,0.00000,26,-6,58,7,65,0,53,8,ok,0,0,0.002,7,0.05,0.98,10.12,49,0.025,8.25
7.6367,0.08552,-0.05760,0.78714,0.00000,0.00000,0.00000,23,-4,59,8,64,-2,54,8,ok,0,0,0.002,7,0.05,0.98,10.12,49,0.038,8.25
7.6498,0.08552,-0.05760,0.78714,0.00000,0.00000,0.00000,20,-2,60,9,61,-3,55,8,ok,0,0,0.002,8,0.05,0.98,10.12,49,0.051,8.25
7.6694,0.08552,-0.05760,0.78714,0.00000,0.00000,0.00000,19,-1,61,10,60,-5,55,8,ok,0,0,0.002,8,0.05,0.98,10.12,49,0.064,8.25
7.6742,0.08552,-0.05760,0.78714,0.00000,0.00000,0.00000,18,0,61,10,58,-5,57,6,ok,0,0,0.002,8,0.05,0.98,10.12,49,0.076,8.25
7.6868,0.08552,-0.05760,0.78714,0.00000,0.00000,0.00000,16,2,62,11,55,-6,57,7,ok,0,0,0.002,8,0.05,0.98,10.12,49,0.089,8.25
7.7094,0.08552,-0.05760,0.78714,0.00000,0.00000,0.00000,15,5,62,10,54,-7,58,7,ok,0,0,0.002,8,0.05,0.98,10.12,49,0.101,8.25
7.7126,0.08552,-0.05760,0.78714,0.00000,0.00000,0.00000,13,9,62,12,51,-6,58,8,ok,0,0,0.002,8,0.05,0.98,10.12,49,0.114,8.25
7.7252,0.08552,-0.05760,0.78714,0.00000,0.00000,0.00000,12,11,62,11,48,-6,59,8,ok,0,0,0.002,8,0.05,0.98,10.12,49,0.127,8.25
7.7454,0.08552,-0.05760,0.78714,0.00000,0.00000,0.00000,14,11,62,12,45,-5,60,9,ok,0,0,0.002,8,0.05,0.98,10.12,49,0.140,8.25
7.7502,0.08552,-0.05760,0.78714,0.00000,0.00000,0.00000,15,11,62,13,42,-5,59,10,ok,0,0,0.002,8,0.05,0.98,10.12,49,0.152,8.25
7.7628,0.08552,-0.05760,0.78714,0.00000,0.00000,0.00000,16,10,63,14,40,-4,60,11,ok,0,0,0.002,8,0.05,0.98,10.12,49,0.165,8.25
7.7854,0.08552,-0.05760,0.78714,0.00000,0.00000,0.00000,18,9,62,14,37,-4,60,11,ok,0,0,0.002,8,0.05,0.98,10.12,49,0.177,8.25
7.7887,0.08552,-0.05760,0.78714,0.00000,0.00000,0.00000,19,9,63,15,34,-3,61,12,ok,0,0,0.002,8,0.05,0.98,10.12,49,0.190,8.25
7.8014,-0.04363,0.05411,0.80983,0.00000,0.00000,0.00000,21,8,63,16,31,-1,61,13,ok,0,0,0.002,8,-0.39,-0.86,8.53,50,0.000,8.25
7.8214,-0.04363,0.05411,0.80983,0.00000,0.00000,0.00000,21,7,63,18,29,0,62,14,ok,0,0,0.002,8,-0.39,-0.86,8.53,50,0.012,8.25
7.8262,-0.04363,0.05411,0.80983,0.00000,0.00000,0.00000,23,6,65,19,27,1,62,15,ok,0,0,0.002,8,-0.39,-0.86,8.53,50,0.025,8.25
7.8387,-0.04363,0.05411,0.80983,0.00000,0.00000,0.00000,24,5,64,20,24,4,63,15,ok,0,0,0.002,8,-0.39,-0.86,8.53,50,0.038,8.25
7.8614,-0.04363,0.05411,0.80983,0.00000,0.00000,0.00000,25,4,64,21,23,7,63,16,ok,0,0,0.002,8,-0.39,-0.86,8.53,50,0.050,8.25
7.8646,-0.04363,0.05411,0.80983,0.00000,0.00000,0.00000,26,3,64,23,22,11,63,17,ok,0,0,0.002,8,-0.39,-0.86,8.53,50,0.063,8.25
7.8771,-0.04363,0.05411,0.80983,0.00000,0.00000,0.00000,26,2,64,24,22,14,64,18,ok,0,0,0.002,8,-0.39,-0.86,8.53,50,0.076,8.25
7.8974,-0.04363,0.05411,0.80983,0.00000,0.00000,0.00000,27,2,63,27,24,13,64,19,ok,0,0,0.002,8,-0.39,-0.86,8.53,50,0.089,8.25
7.9022,-0.04363,0.05411,0.80983,0.00000,0.00000,0.00000,28,1,63,28,24,14,64,20,ok,0,0,0.002,8,-0.39,-0.86,8.53,50,0.101,8.25
7.9147,-0.04363,0.05411,0.80983,0.00000,0.00000,0.00000,29,1,64,26,25,11,64,21,ok,0,0,0.002,8,-0.39,-0.86,8.53,50,0.113,8.25
7.9374,-0.04363,0.05411,0.80983,0.00000,0.00000,0.00000,30,1,67,23,26,11,65,21,ok,0,0,0.002,8,-0.39,-0.86,8.53,50,0.126,8.25
7.9406,-0.04363,0.05411,0.80983,0.00000,0.00000,0.00000,32,1,69,19,28,11,65,22,ok,0,0,0.002,8,-0.39,-0.86,8.53,50,0.139,8.25
7.9531,-0.04363,0.05411,0.80983,0.00000,0.00000,0.00000,34,1,70,15,29,10,65,23,ok,0,0,0.002,8,-0.39,-0.86,8.53,50,0.152,8.25
7.9734,-0.04363,0.05411,0.80983,0.00000,0.00000,0.00000,35,1,71,12,30,9,65,25,ok,0,0,0.002,8,-0.39,-0.86,8.53,50,0.164,8.25
7.9783,-0.04363,0.05411,0.80983,0.00000,0.00000,0.00000,37,2,70,12,33,9,65,26,ok,0,0,0.002,8,-0.39,-0.86,8.53,50,0.177,8.25
7.9911,-0.04363,0.05411,0.80983,0.00000,0.00000,0.00000,38,2,70,8,33,9,64,28,ok,0,0,0.002,8,-0.39,-0.86,8.53,50,0.189,8.25
8.0134,0.02618,0.05934,0.80111,0.00000,0.00000,0.00000,40,3,69,5,35,9,64,30,ok,0,0,0.002,8,0.52,0.52,9.71,51,0.000,8.25
8.0168,0.02618,0.05934,0.80111,0.00000,0.00000,0.00000,41,3,68,2,36,9,64,31,ok,0,0,0.002,8,0.52,0.52,9.71,51,0.013,8.25
8.0292,0.02618,0.05934,0.80111,0.00000,0.00000,0.00000,42,3,67,0,37,9,64,32,ok,0,0,0.002,8,0.52,0.52,9.71,51,0.026,8.25
8.0494,0.02618,0.05934,0.80111,0.00000,0.00000,0.00000,43,2,66,-2,39,8,63,34,ok,0,0,0.002,8,0.52,0.52,9.71,51,0.038,8.25
8.0541,0.02618,0.05934,0.80111,0.00000,0.00000,0.00000,45,3,64,-3,40,8,63,35,ok,0,0,0.002,8,0.52,0.52,9.71,51,0.051,8.25
8.0668,0.02618,0.05934,0.80111,0.00000,0.00000,0.00000,45,3,62,-5,41,7,64,35,ok,0,0,0.002,8,0.52,0.52,9.71,51,0.063,8.25
8.0935,0.02618,0.05934,0.80111,0.00000,0.00000,0.00000,46,3,61,-6,42,7,65,34,ok,0,0,0.002,8,0.52,0.52,9.71,51,0.076,8.25
8.0966,0.02618,0.05934,0.80111,0.00000,0.00000,0.00000,47,3,60,-8,43,7,67,32,ok,0,0,0.002,8,0.52,0.52,9.71,51,0.093,8.25
8.1092,0.02618,0.05934,0.80111,0.00000,0.00000,0.00000,49,4,58,-8,44,7,69,27,ok,0,0,0.002,8,0.52,0.52,9.71,51,0.106,8.25
8.1294,0.02618,0.05934,0.80111,0.00000,0.00000,0.00000,50,3,55,-9,45,7,70,23,ok,0,0,0.002,8,0.52,0.52,9.71,51,0.119,8.25
8.1342,0.02618,0.05934,0.80111,0.00000,0.00000,0.00000,50,3,53,-9,46,7,72,20,ok,0,0,0.002,8,0.52,0.52,9.71,51,0.131,8.25
8.1469,0.02618,0.05934,0.80111,0.00000,0.00000,0.00000,50,5,51,-10,47,7,72,20,ok,0,0,0.002,8,0.52,0.52,9.71,51,0.144,8.25
8.1694,0.02618,0.05934,0.80111,0.00000,0.00000,0.00000,51,5,49,-10,47,8,72,18,ok,0,0,0.002,8,0.52,0.52,9.71,51,0.156,8.25
8.1726,0.02618,0.05934,0.80111,0.00000,0.00000,0.00000,52,5,46,-10,49,8,72,14,ok,0,0,0.002,8,0.52,0.52,9.71,51,0.169,8.25
8.1854,0.02618,0.05934,0.80111,0.00000,0.00000,0.00000,53,6,44,-10,49,8,72,12,ok,0,0,0.002,8,0.52,0.52,9.71,51,0.182,8.25
8.2054,0.02618,0.05934,0.80111,0.00000,0.00000,0.00000,53,6,41,-10,50,7,71,10,ok,0,0,0.002,8,0.52,0.52,9.71,51,0.194,8.25
8.2104,-0.10647,-0.03840,0.83950,0.00000,0.00000,0.00000,56,7,39,-10,50,8,71,6,ok,0,0,0.002,8,-0.41,-1.33,9.73,52,0.000,8.25
8.2227,-0.10647,-0.03840,0.83950,0.00000,0.00000,0.00000,56,6,37,-9,52,7,71,5,ok,0,0,0.002,8,-0.41,-1.33,9.73,52,0.013,8.25
8.2454,-0.10647,-0.03840,0.83950,0.00000,0.00000,0.00000,57,6,33,-8,52,7,70,3,ok,2,0,0.002,8,-0.41,-1.33,9.73,52,0.025,8.25
8.2485,-0.10647,-0.03840,0.83950,0.00000,0.00000,0.00000,58,7,31,-7,52,8,69,1,ok,2,0,0.002,8,-0.41,-1.33,9.73,52,0.038,8.25
8.2614,-0.10647,-0.03840,0.83950,0.00000,0.00000,0.00000,58,7,27,-6,53,8,67,1,ok,2,0,0.002,8,-0.41,-1.33,9.73,52,0.051,8.25
8.2814,-0.10647,-0.03840,0.83950,0.00000,0.00000,0.00000,59,7,24,-4,54,8,66,-1,ok,2,0,0.002,8,-0.41,-1.33,9.73,52,0.064,8.25
8.2862,-0.10647,-0.03840,0.83950,0.00000,0.00000,0.00000,60,9,21,-2,55,8,65,-2,ok,2,0,0.002,8,-0.41,-1.33,9.73,52,0.076,8.25
8.2987,-0.10647,-0.03840,0.83950,0.00000,0.00000,0.00000,60,9,20,0,57,6,62,-3,ok,2,0,0.002,8,-0.41,-1.33,9.73,52,0.089,8.25
8.3214,-0.10647,-0.03840,0.83950,0.00000,0.00000,0.00000,61,9,19,1,58,7,60,-4,ok,2,0,0.002,8,-0.41,-1.33,9.73,52,0.101,8.25
8.3246,-0.10647,-0.03840,0.83950,0.00000,0.00000,0.00000,61,10,17,3,58,8,58,-5,ok,2,0,0.002,8,-0.41,-1.33,9.73,52,0.114,8.25
8.3372,-0.10647,-0.03840,0.83950,0.00000,0.00000,0.00000,62,10,15,6,59,8,55,-5,ok,2,0,0.002,8,-0.41,-1.33,9.73,52,0.127,8.25
8.3574,-0.10647,-0.03840,0.83950,0.00000,0.00000,0.00000,62,12,14,9,59,9,54,-6,ok,2,0,0.002,8,-0.41,-1.33,9.73,52,0.140,8.25
8.3622,-0.10647,-0.03840,0.83950,0.00000,0.00000,0.00000,62,12,13,12,60,9,50,-5,ok,2,0,0.002,8,-0.41,-1.33,9.73,52,0.152,8.25
8.3748,-0.10647,-0.03840,0.83950,0.00000,0.00000,0.00000,62,13,15,12,60,9,48,-5,ok,2,0,0.002,8,-0.41,-1.33,9.73,52,0.165,8.25
8.3974,-0.10647,-0.03840,0.83950,0.00000,0.00000,0.00000,62,14,16,11,60,10,46,-5,ok,2,0,0.002,8,-0.41,-1.33,9.73,52,0.177,8.25
8.4009,-0.08378,0.15184,0.85521,0.00000,0.00000,0.00000,63,14,17,10,61,11,42,-4,ok,2,0,0.002,8,1.38,-0.43,8.72,53,0.000,8.25
8.4132,-0.08378,0.15184,0.85521,0.00000,0.00000,0.00000,62,15,19,10,60,12,40,-4,ok,2,0,0.002,8,1.38,-0.43,8.72,53,0.013,8.25
8.4334,-0.08378,0.15184,0.85521,0.00000,0.00000,0.00000,63,16,20,9,60,12,37,-3,ok,2,0,0.002,8,1.38,-0.43,8.72,53,0.025,8.25
8.4384,-0.08378,0.15184,0.85521,0.00000,0.00000,0.00000,63,17,21,8,61,13,34,-3,ok,2,0,0.002,8,1.38,-0.43,8.72,53,0.038,8.25
8.4508,-0.08378,0.15184,0.85521,0.00000,0.00000,0.00000,63,18,21,8,61,14,31,-1,ok,2,0,0.002,8,1.38,-0.43,8.72,53,0.050,8.25
8.4734,-0.08378,0.15184,0.85521,0.00000,0.00000,0.00000,64,19,22,7,63,14,29,0,ok,2,0,0.002,8,1.38,-0.43,8.72,53,0.063,8.25
8.4766,-0.08378,0.15184,0.85521,0.00000,0.00000,0.00000,64,20,23,6,63,15,27,2,ok,2,0,0.002,8,1.38,-0.43,8.72,53,0.076,8.25
8.4892,-0.08378,0.15184,0.85521,0.00000,0.00000,0.00000,64,20,23,5,63,16,25,5,ok,2,0,0.002,8,1.38,-0.43,8.72,53,0.089,8.25
8.5094,-0.08378,0.15184,0.85521,0.00000,0.00000,0.00000,64,22,24,4,63,17,24,7,ok,2,0,0.002,8,1.38,-0.43,8.72,53,0.101,8.25
8.5142,-0.08378,0.15184,0.85521,0.00000,0.00000,0.00000,64,22,25,3,64,17,23,11,ok,2,0,0.002,8,1.38,-0.43,8.72,53,0.114,8.25
8.5268,-0.08378,0.15184,0.85521,0.00000,0.00000,0.00000,63,25,26,3,64,19,23,13,ok,2,0,0.002,8,1.38,-0.43,8.72,53,0.126,8.25
8.5494,-0.08378,0.15184,0.85521,0.00000,0.00000,0.00000,63,26,27,2,64,20,25,12,ok,2,0,0.002,8,1.38,-0.43,8.72,53,0.139,8.25
8.5527,-0.08378,0.15184,0.85521,0.00000,0.00000,0.00000,64,24,28,2,64,21,25,11,ok,2,0,0.002,8,1.38,-0.43,8.72,53,0.152,8.25
8.5652,-0.08378,0.15184,0.85521,0.00000,0.00000,0.00000,66,21,29,2,65,22,26,10,ok,2,0,0.002,8,1.38,-0.43,8.72,53,0.165,8.25
8.5854,-0.08378,0.15184,0.85521,0.00000,0.00000,0.00000,69,17,30,1,64,23,27,9,ok,2,0,0.002,8,1.38,-0.43,8.72,53,0.177,8.25
8.5902,-0.08378,0.15184,0.85521,0.00000,0.00000,0.00000,70,13,32,2,65,25,28,10,ok,2,0,0.002,8,1.38,-0.43,8.72,53,0.190,8.25
8.6030,-0.08378,0.15184,0.85521,0.00000,0.00000,0.00000,70,11,33,2,65,25,30,9,ok,2,0,0.002,8,1.38,-0.43,8.72,53,0.202,8.25
8.6254,0.03142,0.04363,0.90583,0.00000,0.00000,0.00000,69,10,35,2,64,27,31,9,ok,2,0,0.002,8,0.52,1.23,9.71,54,0.000,8.25
8.6285,0.03142,0.04363,0.90583,0.00000,0.00000,0.00000,69,7,36,1,65,29,33,9,ok,2,0,0.002,8,0.52,1.23,9.71,54,0.013,8.25
8.6411,0.03142,0.04363,0.90583,0.00000,0.00000,0.00000,69,5,38,2,65,31,33,9,ok,2,0,0.002,8,0.52,1.23,9.71,54,0.026,8.25
8.6617,0.03142,0.04363,0.90583,0.00000,0.00000,0.00000,68,2,39,2,65,32,35,8,ok,2,0,0.002,8,0.52,1.23,9.71,54,0.039,8.25
8.6662,0.03142,0.04363,0.90583,0.00000,0.00000,0.00000,67,0,41,2,65,34,36,8,ok,2,0,0.002,9,0.52,1.23,9.71,54,0.051,8.25
8.6788,0.03142,0.04363,0.90583,0.00000,0.00000,0.00000,66,-2,42,1,64,35,37,8,ok,2,0,0.002,9,0.52,1.23,9.71,54,0.064,8.25
8.7014,0.03142,0.04363,0.90583,0.00000,0.00000,0.00000,65,-3,44,2,65,36,38,7,ok,2,0,0.002,9,0.52,1.23,9.71,54,0.076,8.25
8.7048,0.03142,0.04363,0.90583,0.00000,0.00000,0.00000,63,-4,44,1,66,35,39,7,ok,2,0,0.002,9,0.52,1.23,9.71,54,0.089,8.25
8.7172,0.03142,0.04363,0.90583,0.00000,0.00000,0.00000,62,-5,45,2,68,33,41,6,ok,2,0,0.002,9,0.52,1.23,9.71,54,0.102,8.25
8.7374,0.03142,0.04363,0.90583,0.00000,0.00000,0.00000,61,-7,46,2,70,29,42,6,ok,2,0,0.002,9,0.52,1.23,9.71,54,0.115,8.25
8.7422,0.03142,0.04363,0.90583,0.00000,0.00000,0.00000,59,-8,48,3,71,24,43,6,ok,2,0,0.002,9,0.52,1.23,9.71,54,0.127,8.25
8.7550,0.03142,0.04363,0.90583,0.00000,0.00000,0.00000,56,-10,49,3,73,22,44,6,ok,2,0,0.002,9,0.52,1.23,9.71,54,0.140,8.25
8.7774,0.03142,0.04363,0.90583,0.00000,0.00000,0.00000,54,-10,49,4,74,21,45,7,ok,2,0,0.002,9,0.52,1.23,9.71,54,0.152,8.25
8.7805,0.03142,0.04363,0.90583,0.00000,0.00000,0.00000,52,-11,50,6,73,19,46,7,ok,2,0,0.002,9,0.52,1.23,9.71,54,0.165,8.25
8.7931,0.03142,0.04363,0.90583,0.00000,0.00000,0.00000,49,-11,51,6,73,15,47,8,ok,2,0,0.002,9,0.52,1.23,9.71,54,0.178,8.25
8.8134,0.14486,0.01571,0.88488,0.00000,0.00000,0.00000,47,-11,52,6,73,12,48,8,ok,2,0,0.002,9,-0.43,1.38,9.91,55,0.000,8.25
8.8181,0.14486,0.01571,0.88488,0.00000,0.00000,0.00000,44,-11,53,6,73,11,49,7,ok,2,0,0.002,9,-0.43,1.38,9.91,55,0.012,8.25
8.8307,0.14486,0.01571,0.88488,0.00000,0.00000,0.00000,41,-11,53,7,72,7,49,8,ok,2,0,0.002,9,-0.43,1.38,9.91,55,0.025,8.25
8.8534,0.14486,0.01571,0.88488,0.00000,0.00000,0.00000,38,-11,56,7,72,6,49,7,ok,2,0,0.002,9,-0.43,1.38,9.91,55,0.038,8.25
8.8568,0.14486,0.01571,0.88488,0.00000,0.00000,0.00000,36,-10,56,6,71,4,51,8,ok,2,0,0.002,9,-0.43,1.38,9.91,55,0.051,8.25
8.8692,0.14486,0.01571,0.88488,0.00000,0.00000,0.00000,32,-8,57,6,69,2,51,7,ok,2,0,0.002,9,-0.43,1.38,9.91,55,0.064,8.25
8.8894,0.14486,0.01571,0.88488,0.00000,0.00000,0.00000,30,-7,57,7,66,2,52,8,ok,0,0,0.002,9,-0.43,1.38,9.91,55,0.076,8.25
8.8942,0.14486,0.01571,0.88488,0.00000,0.00000,0.00000,26,-5,58,7,65,0,52,8,ok,0,0,0.002,9,-0.43,1.38,9.91,55,0.089,8.25
8.9069,0.14486,0.01571,0.88488,0.00000,0.00000,0.00000,24,-3,59,7,63,-2,54,8,ok,0,0,0.002,9,-0.43,1.38,9.91,55,0.101,8.25
8.9294,0.14486,0.01571,0.88488,0.00000,0.00000,0.00000,20,-1,59,8,61,-4,55,7,ok,0,0,0.002,9,-0.43,1.38,9.91,55,0.114,8.25
8.9326,0.14486,0.01571,0.88488,0.00000,0.00000,0.00000,19,-1,60,10,60,-5,54,7,ok,0,0,0.002,9,-0.43,1.38,9.91,55,0.127,8.25
8.9451,0.14486,0.01571,0.88488,0.00000,0.00000,0.00000,18,0,61,10,58,-5,56,5,ok,0,0,0.002,9,-0.43,1.38,9.91,55,0.140,8.25
8.9654,0.14486,0.01571,0.88488,0.00000,0.00000,0.00000,16,2,61,11,55,-6,57,7,ok,0,0,0.002,9,-0.43,1.38,9.91,55,0.152,8.25
8.9703,0.14486,0.01571,0.88488,0.00000,0.00000,0.00000,14,5,61,11,54,-7,58,7,ok,0,0,0.002,9,-0.43,1.38,9.91,55,0.165,8.25
8.9827,0.14486,0.01571,0.88488,0.00000,0.00000,0.00000,13,8,61,12,51,-6,59,8,ok,0,0,0.002,9,-0.43,1.38,9.91,55,0.177,8.25
9.0054,0.14486,0.01571,0.88488,0.00000,0.00000,0.00000,12,10,62,12,48,-5,59,8,ok,0,0,0.002,9,-0.43,1.38,9.91,55,0.190,8.25
9.0088,0.14486,0.01571,0.88488,0.00000,0.00000,0.00000,13,11,62,13,46,-5,60,9,ok,0,0,0.002,9,-0.43,1.38,9.91,55,0.203,8.25
9.0214,-0.00873,-0.01571,0.87790,0.00000,0.00000,0.00000,14,10,61,14,43,-4,60,9,ok,0,0,0.002,9,0.90,-0.88,11.28,56,0.000,8.25
9.0414,-0.00873,-0.01571,0.87790,0.00000,0.00000,0.00000,16,9,62,14,40,-5,61,10,ok,0,0,0.002,9,0.90,-0.88,11.28,56,0.013,8.25
9.0463,-0.00873,-0.01571,0.87790,0.00000,0.00000,0.00000,18,8,62,15,37,-4,61,11,ok,0,0,0.002,9,0.90,-0.88,11.28,56,0.025,8.25
9.0589,-0.00873,-0.01571,0.87790,0.00000,0.00000,0.00000,18,7,63,16,34,-3,62,12,ok,0,0,0.002,9,0.90,-0.88,11.28,56,0.038,8.25
9.0814,-0.00873,-0.01571,0.87790,0.00000,0.00000,0.00000,20,6,63,16,31,-2,62,13,ok,0,0,0.002,9,0.90,-0.88,11.28,56,0.050,8.25
9.0847,-0.00873,-0.01571,0.87790,0.00000,0.00000,0.00000,21,6,63,18,29,0,63,14,ok,0,0,0.002,9,0.90,-0.88,11.28,56,0.063,8.25
9.0974,-0.00873,-0.01571,0.87790,0.00000,0.00000,0.00000,22,5,64,19,27,1,63,15,ok,0,0,0.002,9,0.90,-0.88,11.28,56,0.076,8.25
9.1174,-0.00873,-0.01571,0.87790,0.00000,0.00000,0.00000,24,4,64,20,25,5,64,15,ok,0,0,0.002,9,0.90,-0.88,11.28,56,0.089,8.25
9.1222,-0.00873,-0.01571,0.87790,0.00000,0.00000,0.00000,24,3,64,21,24,8,63,16,ok,0,0,0.002,9,0.90,-0.88,11.28,56,0.101,8.25
9.1347,-0.00873,-0.01571,0.87790,0.00000,0.00000,0.00000,26,3,65,22,23,11,63,18,ok,0,0,0.002,9,0.90,-0.88,11.28,56,0.114,8.25
9.1574,-0.00873,-0.01571,0.87790,0.00000,0.00000,0.00000,26,3,64,23,22,14,64,18,ok,0,0,0.002,9,0.90,-0.88,11.28,56,0.126,8.25
9.1606,-0.00873,-0.01571,0.87790,0.00000,0.00000,0.00000,28,3,64,26,24,14,64,19,ok,0,0,0.002,9,0.90,-0.88,11.28,56,0.139,8.25
9.1731,-0.00873,-0.01571,0.87790,0.00000,0.00000,0.00000,29,3,63,27,24,14,64,19,ok,0,0,0.002,9,0.90,-0.88,11.28,56,0.152,8.25
9.1935,-0.00873,-0.01571,0.87790,0.00000,0.00000,0.00000,30,3,65,26,25,11,64,20,ok,0,0,0.002,9,0.90,-0.88,11.28,56,0.165,8.25
9.1983,-0.00873,-0.01571,0.87790,0.00000,0.00000,0.00000,31,2,67,22,26,11,65,21,ok,0,0,0.002,9,0.90,-0.88,11.28,56,0.177,8.25
9.2108,-0.00873,-0.01571,0.87790,0.00000,0.00000,0.00000,32,1,70,19,27,11,65,22,ok,0,0,0.002,9,0.90,-0.88,11.28,56,0.189,8.25
9.2334,-0.00873,0.05585,0.89186,0.00000,0.00000,0.00000,34,2,71,15,29,10,64,23,ok,0,0,0.002,9,-0.18,0.75,9.68,57,0.000,8.25
9.2365,-0.00873,0.05585,0.89186,0.00000,0.00000,0.00000,35,2,71,13,29,9,64,25,ok,0,0,0.002,9,-0.18,0.75,9.68,57,0.013,8.25
9.2493,-0.00873,0.05585,0.89186,0.00000,0.00000,0.00000,37,2,71,12,32,9,65,26,ok,0,0,0.002,9,-0.18,0.75,9.68,57,0.026,8.25
9.2694,-0.00873,0.05585,0.89186,0.00000,0.00000,0.00000,39,2,71,9,32,9,64,28,ok,0,0,0.002,9,-0.18,0.75,9.68,57,0.039,8.25
9.2742,-0.00873,0.05585,0.89186,0.00000,0.00000,0.00000,40,3,70,6,35,9,63,30,ok,0,0,0.002,9,-0.18,0.75,9.68,57,0.051,8.25
9.2867,-0.00873,0.05585,0.89186,0.00000,0.00000,0.00000,41,3,69,3,36,8,64,31,ok,0,0,0.002,9,-0.18,0.75,9.68,57,0.064,8.25
9.3094,-0.00873,0.05585,0.89186,0.00000,0.00000,0.00000,42,2,67,0,37,9,64,32,ok,0,0,0.002,9,-0.18,0.75,9.68,57,0.076,8.25
9.3127,-0.00873,0.05585,0.89186,0.00000,0.00000,0.00000,44,2,66,-2,39,8,63,34,ok,0,0,0.002,9,-0.18,0.75,9.68,57,0.089,8.25
9.3251,-0.00873,0.05585,0.89186,0.00000,0.00000,0.00000,45,2,64,-3,39,8,63,35,ok,0,0,0.002,9,-0.18,0.75,9.68,57,0.102,8.25
9.3454,-0.00873,0.05585,0.89186,0.00000,0.00000,0.00000,45,2,62,-4,40,7,64,35,ok,0,0,0.002,9,-0.18,0.75,9.68,57,0.115,8.25
9.3503,-0.00873,0.05585,0.89186,0.00000,0.00000,0.00000,46,3,61,-5,42,7,66,34,ok,0,0,0.002,9,-0.18,0.75,9.68,57,0.127,8.25
9.3628,-0.00873,0.05585,0.89186,0.00000,0.00000,0.00000,47,3,60,-8,43,7,67,32,ok,0,0,0.002,9,-0.18,0.75,9.68,57,0.140,8.25
9.3854,-0.00873,0.05585,0.89186,0.00000,0.00000,0.00000,49,3,58,-8,44,7,69,27,ok,0,0,0.002,9,-0.18,0.75,9.68,57,0.152,8.25
9.3886,-0.00873,0.05585,0.89186,0.00000,0.00000,0.00000,50,3,55,-9,45,7,71,23,ok,0,0,0.002,9,-0.18,0.75,9.68,57,0.165,8.25
9.4014,-0.00873,0.05585,0.89186,0.00000,0.00000,0.00000,50,3,53,-9,46,7,72,20,ok,0,0,0.002,9,-0.18,0.75,9.68,57,0.178,8.25
9.4214,-0.00873,0.05585,0.89186,0.00000,0.00000,0.00000,50,5,51,-10,47,7,73,20,ok,0,0,0.002,9,-0.18,0.75,9.68,57,0.191,8.25
9.4264,-0.08552,0.01571,0.96168,0.00000,0.00000,0.00000,52,6,49,-10,47,7,73,18,ok,0,0,0.002,9,-0.24,-1.21,10.12,58,0.000,8.25
9.4389,-0.08552,0.01571,0.96168,0.00000,0.00000,0.00000,53,5,46,-10,48,7,73,14,ok,0,0,0.003,9,-0.24,-1.21,10.12,58,0.013,8.25
9.4614,-0.08552,0.01571,0.96168,0.00000,0.00000,0.00000,53,6,44,-10,49,7,72,12,ok,0,0,0.003,9,-0.24,-1.21,10.12,58,0.025,8.25
9.4645,-0.08552,0.01571,0.96168,0.00000,0.00000,0.00000,54,6,41,-10,49,7,72,10,ok,0,0,0.003,9,-0.24,-1.21,10.12,58,0.038,8.25
9.4771,-0.08552,0.01571,0.96168,0.00000,0.00000,0.00000,56,6,39,-10,50,8,71,7,ok,0,0,0.003,9,-0.24,-1.21,10.12,58,0.051,8.25
9.4974,-0.08552,0.01571,0.96168,0.00000,0.00000,0.00000,56,6,37,-9,51,7,71,5,ok,0,0,0.003,9,-0.24,-1.21,10.12,58,0.064,8.25
9.5022,-0.08552,0.01571,0.96168,0.00000,0.00000,0.00000,57,6,33,-8,52,7,70,4,ok,2,0,0.003,9,-0.24,-1.21,10.12,58,0.076,8.25
9.5150,-0.08552,0.01571,0.96168,0.00000,0.00000,0.00000,58,7,31,-7,52,8,68,2,ok,2,0,0.003,9,-0.24,-1.21,10.12,58,0.089,8.25
9.5374,-0.08552,0.01571,0.96168,0.00000,0.00000,0.00000,58,7,27,-6,54,8,66,1,ok,2,0,0.003,9,-0.24,-1.21,10.12,58,0.101,8.25
9.5406,-0.08552,0.01571,0.96168,0.00000,0.00000,0.00000,59,8,24,-4,55,8,65,0,ok,2,0,0.003,9,-0.24,-1.21,10.12,58,0.114,8.25
9.5532,-0.08552,0.01571,0.96168,0.00000,0.00000,0.00000,60,9,21,-2,56,8,64,-2,ok,2,0,0.003,9,-0.24,-1.21,10.12,58,0.127,8.25
9.5734,-0.08552,0.01571,0.96168,0.00000,0.00000,0.00000,60,10,19,-1,58,6,62,-3,ok,2,0,0.003,9,-0.24,-1.21,10.12,58,0.140,8.25
9.5782,-0.08552,0.01571,0.96168,0.00000,0.00000,0.00000,61,10,18,1,58,7,60,-5,ok,2,0,0.003,9,-0.24,-1.21,10.12,58,0.152,8.25
9.5907,-0.08552,0.01571,0.96168,0.00000,0.00000,0.00000,61,10,16,3,59,8,58,-5,ok,2,0,0.003,9,-0.24,-1.21,10.12,58,0.165,8.25
9.6134,-0.08552,0.01571,0.96168,0.00000,0.00000,0.00000,61,11,15,6,59,8,55,-6,ok,2,0,0.003,9,-0.24,-1.21,10.12,58,0.177,8.25
9.6166,-0.08552,0.01571,0.96168,0.00000,0.00000,0.00000,61,12,13,9,59,9,54,-6,ok,2,0,0.003,9,-0.24,-1.21,10.12,58,0.190,8.25
9.6295,-0.05061,0.04712,0.95120,0.00000,0.00000,0.00000,62,12,13,12,60,10,50,-5,ok,2,0,0.003,9,1.95,-0.09,9.24,59,0.000,8.25
9.6494,-0.05061,0.04712,0.95120,0.00000,0.00000,0.00000,62,13,14,12,60,10,48,-5,ok,2,0,0.003,9,1.95,-0.09,9.24,59,0.013,8.25
9.6543,-0.05061,0.04712,0.95120,0.00000,0.00000,0.00000,61,13,15,11,61,11,45,-5,ok,2,0,0.003,9,1.95,-0.09,9.24,59,0.025,8.25
9.6668,-0.05061,0.04712,0.95120,0.00000,0.00000,0.00000,62,14,17,10,61,11,42,-4,ok,2,0,0.003,9,1.95,-0.09,9.24,59,0.038,8.25
9.6894,-0.05061,0.04712,0.95120,0.00000,0.00000,0.00000,62,15,19,9,61,12,40,-4,ok,2,0,0.003,9,1.95,-0.09,9.24,59,0.050,8.25
9.6926,-0.05061,0.04712,0.95120,0.00000,0.00000,0.00000,63,15,19,9,61,13,37,-3,ok,2,0,0.003,10,1.95,-0.09,9.24,59,0.063,8.25
9.7054,-0.05061,0.04712,0.95120,0.00000,0.00000,0.00000,63,16,21,8,61,13,35,-3,ok,2,0,0.003,10,1.95,-0.09,9.24,59,0.076,8.25
9.7254,-0.05061,0.04712,0.95120,0.00000,0.00000,0.00000,63,17,21,7,62,14,31,-1,ok,2,0,0.003,10,1.95,-0.09,9.24,59,0.089,8.25
9.7302,-0.05061,0.04712,0.95120,0.00000,0.00000,0.00000,64,19,23,6,63,14,30,0,ok,2,0,0.003,10,1.95,-0.09,9.24,59,0.101,8.25
9.7427,-0.05061,0.04712,0.95120,0.00000,0.00000,0.00000,64,20,24,5,62,15,28,1,ok,2,0,0.003,10,1.95,-0.09,9.24,59,0.114,8.25
9.7654,-0.05061,0.04712,0.95120,0.00000,0.00000,0.00000,65,21,24,5,63,16,26,5,ok,2,0,0.003,10,1.95,-0.09,9.24,59,0.126,8.25
9.7686,-0.05061,0.04712,0.95120,0.00000,0.00000,0.00000,65,22,25,4,63,17,24,7,ok,2,0,0.003,10,1.95,-0.09,9.24,59,0.139,8.25
9.7812,-0.05061,0.04712,0.95120,0.00000,0.00000,0.00000,65,23,26,3,64,17,23,11,ok,2,0,0.003,10,1.95,-0.09,9.24,59,0.152,8.25
9.8014,-0.05061,0.04712,0.95120,0.00000,0.00000,0.00000,64,26,27,3,64,19,23,13,ok,2,0,0.003,10,1.95,-0.09,9.24,59,0.165,8.25
9.8064,-0.05061,0.04712,0.95120,0.00000,0.00000,0.00000,64,27,27,2,64,20,25,12,ok,2,0,0.003,10,1.95,-0.09,9.24,59,0.177,8.25
9.8187,-0.05061,0.04712,0.95120,0.00000,0.00000,0.00000,65,25,29,2,64,21,25,12,ok,2,0,0.003,10,1.95,-0.09,9.24,59,0.190,8.25
9.8414,-0.05061,0.04712,0.95120,0.00000,0.00000,0.00000,67,22,30,2,65,22,26,10,ok,2,0,0.003,10,1.95,-0.09,9.24,59,0.202,8.25
9.8448,-0.03665,0.09774,1.00531,0.00000,0.00000,0.00000,70,18,31,1,64,23,27,9,ok,2,0,0.003,10,0.37,-1.24,9.59,60,0.000,8.25
9.8573,-0.03665,0.09774,1.00531,0.00000,0.00000,0.00000,70,13,32,2,64,25,28,10,ok,2,0,0.003,10,0.37,-1.24,9.59,60,0.013,8.25
9.8774,-0.03665,0.09774,1.00531,0.00000,0.00000,0.00000,71,11,34,2,65,25,29,9,ok,2,0,0.003,10,0.37,-1.24,9.59,60,0.025,8.25
9.8822,-0.03665,0.09774,1.00531,0.00000,0.00000,0.00000,70,11,35,2,64,28,30,9,ok,2,0,0.003,10,0.37,-1.24,9.59,60,0.038,8.25
9.8948,-0.03665,0.09774,1.00531,0.00000,0.00000,0.00000,70,8,36,2,64,29,32,9,ok,2,0,0.003,10,0.37,-1.24,9.59,60,0.050,8.25
9.9214,-0.03665,0.09774,1.00531,0.00000,0.00000,0.00000,69,5,38,3,64,30,33,9,ok,2,0,0.003,10,0.37,-1.24,9.59,60,0.063,8.25
9.9248,-0.03665,0.09774,1.00531,0.00000,0.00000,0.00000,69,2,39,3,64,32,35,8,ok,2,0,0.003,10,0.37,-1.24,9.59,60,0.080,8.25
9.9372,-0.03665,0.09774,1.00531,0.00000,0.00000,0.00000,68,0,41,3,64,34,36,8,ok,2,0,0.003,10,0.37,-1.24,9.59,60,0.093,8.25
9.9574,-0.03665,0.09774,1.00531,0.00000,0.00000,0.00000,66,-2,42,2,64,35,37,8,ok,2,0,0.003,10,0.37,-1.24,9.59,60,0.105,8.25
9.9622,-0.03665,0.09774,1.00531,0.00000,0.00000,0.00000,65,-4,43,3,64,35,38,8,ok,2,0,0.003,10,0.37,-1.24,9.59,60,0.118,8.25
9.9748,-0.03665,0.09774,1.00531,0.00000,0.00000,0.00000,63,-5,44,3,66,35,39,8,ok,2,0,0.003,10,0.37,-1.24,9.59,60,0.130,8.25
9.9974,-0.03665,0.09774,1.00531,0.00000,0.00000,0.00000,62,-6,45,3,68,33,41,7,ok,2,0,0.003,10,0.37,-1.24,9.59,60,0.143,8.25
10.0006,-0.03665,0.09774,1.00531,0.00000,0.00000,0.00000,61,-8,46,3,70,29,42,7,ok,2,0,0.003,10,0.37,-1.24,9.59,60,0.156,8.25
10.0132,-0.03665,0.09774,1.00531,0.00000,0.00000,0.00000,58,-9,47,4,71,24,44,7,ok,2,0,0.003,10,0.37,-1.24,9.59,60,0.169,8.25
10.0334,-0.03665,0.09774,1.00531,0.00000,0.00000,0.00000,56,-10,48,4,73,21,44,7,ok,2,0,0.003,10,0.37,-1.24,9.59,60,0.181,8.25
10.0453,0.12566,0.10647,1.00705,0.00000,0.00000,0.00000,54,-11,49,3,74,21,45,7,ok,2,0,0.003,10,0.39,1.38,9.90,61,0.000,8.25
10.0508,0.12566,0.10647,1.00705,0.00000,0.00000,0.00000,51,-11,49,5,74,19,46,7,ok,2,0,0.003,10,0.39,1.38,9.90,61,0.013,8.25
10.0734,0.12566,0.10647,1.00705,0.00000,0.00000,0.00000,49,-11,50,6,74,15,47,7,ok,2,0,0.003,10,0.39,1.38,9.90,61,0.025,8.25
10.0766,0.12566,0.10647,1.00705,0.00000,0.00000,0.00000,46,-11,51,5,74,12,48,7,ok,2,0,0.003,10,0.39,1.38,9.90,61,0.038,8.25
10.0893,0.12566,0.10647,1.00705,0.00000,0.00000,0.00000,43,-10,52,6,73,10,48,7,ok,2,0,0.003,10,0.39,1.38,9.90,61,0.051,8.25
10.1094,0.12566,0.10647,1.00705,0.00000,0.00000,0.00000,41,-10,53,6,73,7,49,8,ok,2,0,0.003,10,0.39,1.38,9.90,61,0.064,8.25
10.1141,0.12566,0.10647,1.00705,0.00000,0.00000,0.00000,38,-10,55,6,72,5,49,7,ok,2,0,0.003,10,0.39,1.38,9.90,61,0.076,8.25
10.1268,0.12566,0.10647,1.00705,0.00000,0.00000,0.00000,36,-9,55,6,71,4,51,8,ok,2,0,0.003,10,0.39,1.38,9.90,61,0.088,8.25
10.1494,0.12566,0.10647,1.00705,0.00000,0.00000,0.00000,32,-8,56,6,69,1,52,7,ok,0,0,0.003,10,0.39,1.38,9.90,61,0.101,8.25
10.1526,0.12566,0.10647,1.00705,0.00000,0.00000,0.00000,30,-7,57,7,66,2,52,7,ok,0,0,0.003,10,0.39,1.38,9.90,61,0.114,8.25
10.1652,0.12566,0.10647,1.00705,0.00000,0.00000,0.00000,26,-6,57,7,65,0,53,7,ok,0,0,0.003,10,0.39,1.38,9.90,61,0.127,8.25
10.1854,0.12566,0.10647,1.00705,0.00000,0.00000,0.00000,23,-4,58,8,64,-2,54,8,ok,0,0,0.003,10,0.39,1.38,9.90,61,0.140,8.25
10.1902,0.12566,0.10647,1.00705,0.00000,0.00000,0.00000,19,-2,59,9,62,-3,55,8,ok,0,0,0.003,10,0.39,1.38,9.90,61,0.152,8.25
10.2027,0.12566,0.10647,1.00705,0.00000,0.00000,0.00000,18,-2,59,11,61,-5,55,7,ok,0,0,0.003,10,0.39,1.38,9.90,61,0.165,8.25
10.2254,0.12566,0.10647,1.00705,0.00000,0.00000,0.00000,17,-1,60,10,59,-5,57,5,ok,0,0,0.003,10,0.39,1.38,9.90,61,0.177,8.25
10.2287,0.12566,0.10647,1.00705,0.00000,0.00000,0.00000,15,1,60,11,56,-6,57,6,ok,0,0,0.003,10,0.39,1.38,9.90,61,0.190,8.25
10.2412,0.12566,0.10647,1.00705,0.00000,0.00000,0.00000,14,4,60,11,54,-7,58,7,ok,0,0,0.003,10,0.39,1.38,9.90,61,0.203,8.25
10.2614,0.07854,-0.05236,1.00007,0.00000,0.00000,0.00000,12,7,60,12,51,-6,59,8,ok,0,0,0.003,10,-0.35,0.40,8.87,62,0.000,8.25
10.2662,0.07854,-0.05236,1.00007,0.00000,0.00000,0.00000,11,9,61,12,49,-5,59,8,ok,0,0,0.003,10,-0.35,0.40,8.87,62,0.012,8.25
10.2787,0.07854,-0.05236,1.00007,0.00000,0.00000,0.00000,13,10,61,13,46,-5,60,9,ok,0,0,0.003,10,-0.35,0.40,8.87,62,0.025,8.25
10.3014,0.07854,-0.05236,1.00007,0.00000,0.00000,0.00000,13,10,61,13,43,-4,60,9,ok,0,0,0.003,10,-0.35,0.40,8.87,62,0.038,8.25
10.3046,0.07854,-0.05236,1.00007,0.00000,0.00000,0.00000,15,9,62,14,40,-4,61,10,ok,0,0,0.003,10,-0.35,0.40,8.87,62,0.051,8.25
10.3174,0.07854,-0.05236,1.00007,0.00000,0.00000,0.00000,17,8,62,14,37,-3,62,11,ok,0,0,0.003,10,-0.35,0.40,8.87,62,0.064,8.25
10.3374,0.07854,-0.05236,1.00007,0.00000,0.00000,0.00000,18,8,63,15,34,-3,62,12,ok,0,0,0.003,10,-0.35,0.40,8.87,62,0.076,8.25
10.3422,0.07854,-0.05236,1.00007,0.00000,0.00000,0.00000,20,7,63,16,31,-1,62,12,ok,0,0,0.003,10,-0.35,0.40,8.87,62,0.089,8.25
10.3547,0.07854,-0.05236,1.00007,0.00000,0.00000,0.00000,21,7,64,17,29,0,62,13,ok,0,0,0.003,10,-0.35,0.40,8.87,62,0.101,8.25
10.3774,0.07854,-0.05236,1.00007,0.00000,0.00000,0.00000,23,6,65,18,28,2,62,14,ok,0,0,0.003,10,-0.35,0.40,8.87,62,0.114,8.25
10.3806,0.07854,-0.05236,1.00007,0.00000,0.00000,0.00000,24,5,65,19,25,5,63,14,ok,0,0,0.003,10,-0.35,0.40,8.87,62,0.127,8.25
10.3933,0.07854,-0.05236,1.00007,0.00000,0.00000,0.00000,25,5,65,20,24,8,63,16,ok,0,0,0.003,10,-0.35,0.40,8.87,62,0.140,8.25
10.4134,0.07854,-0.05236,1.00007,0.00000,0.00000,0.00000,26,4,65,22,23,11,63,17,ok,0,0,0.003,10,-0.35,0.40,8.87,62,0.152,8.25
10.4182,0.07854,-0.05236,1.00007,0.00000,0.00000,0.00000,27,4,65,23,22,14,64,17,ok,0,0,0.003,10,-0.35,0.40,8.87,62,0.165,8.25
10.4308,0.07854,-0.05236,1.00007,0.00000,0.00000,0.00000,28,3,64,25,24,14,64,18,ok,0,0,0.003,10,-0.35,0.40,8.87,62,0.177,8.25
10.4534,0.07854,-0.05236,1.00007,0.00000,0.00000,0.00000,29,3,64,27,24,14,64,19,ok,0,0,0.003,10,-0.35,0.40,8.87,62,0.190,8.25
10.4569,0.03665,0.12741,1.02800,0.00000,0.00000,0.00000,30,2,65,25,25,12,64,20,ok,0,0,0.003,10,0.89,1.20,8.76,63,0.000,8.25
10.4692,0.03665,0.12741,1.02800,0.00000,0.00000,0.00000,31,2,68,23,25,11,64,21,ok,0,0,0.003,10,0.89,1.20,8.76,63,0.013,8.25
10.4894,0.03665,0.12741,1.02800,0.00000,0.00000,0.00000,32,1,70,19,26,11,64,22,ok,0,0,0.003,10,0.89,1.20,8.76,63,0.025,8.25
10.4942,0.03665,0.12741,1.02800,0.00000,0.00000,0.00000,34,1,71,15,28,10,64,23,ok,0,0,0.003,10,0.89,1.20,8.76,63,0.038,8.25
10.5067,0.03665,0.12741,1.02800,0.00000,0.00000,0.00000,35,1,71,13,30,9,64,25,ok,0,0,0.003,10,0.89,1.20,8.76,63,0.050,8.25
10.5294,0.03665,0.12741,1.02800,0.00000,0.00000,0.00000,37,1,70,13,32,9,65,26,ok,0,0,0.003,10,0.89,1.20,8.76,63,0.063,8.25
10.5325,0.03665,0.12741,1.02800,0.00000,0.00000,0.00000,38,1,70,9,32,9,64,28,ok,0,0,0.003,10,0.89,1.20,8.76,63,0.076,8.25
10.5454,0.03665,0.12741,1.02800,0.00000,0.00000,0.00000,39,1,69,6,35,9,63,30,ok,0,0,0.003,10,0.89,1.20,8.76,63,0.089,8.25
10.5655,0.03665,0.12741,1.02800,0.00000,0.00000,0.00000,40,1,68,4,36,9,64,31,ok,0,0,0.003,10,0.89,1.20,8.76,63,0.101,8.25
10.5702,0.03665,0.12741,1.02800,0.00000,0.00000,0.00000,42,1,67,1,37,9,64,33,ok,0,0,0.003,10,0.89,1.20,8.76,63,0.114,8.25
10.5829,0.03665,0.12741,1.02800,0.00000,0.00000,0.00000,43,1,66,-1,38,8,64,34,ok,0,0,0.003,10,0.89,1.20,8.76,63,0.126,8.25
10.6054,0.03665,0.12741,1.02800,0.00000,0.00000,0.00000,44,2,64,-3,39,8,64,35,ok,0,0,0.003,10,0.89,1.20,8.76,63,0.139,8.25
10.6086,0.03665,0.12741,1.02800,0.00000,0.00000,0.00000,44,2,62,-4,41,7,65,35,ok,0,0,0.003,10,0.89,1.20,8.76,63,0.152,8.25
10.6212,0.03665,0.12741,1.02800,0.00000,0.00000,0.00000,45,2,60,-6,42,7,66,34,ok,0,0,0.003,10,0.89,1.20,8.76,63,0.165,8.25
10.6414,0.03665,0.12741,1.02800,0.00000,0.00000,0.00000,46,2,60,-8,43,7,68,32,ok,0,0,0.003,10,0.89,1.20,8.76,63,0.177,8.25
10.6464,0.03665,0.12741,1.02800,0.00000,0.00000,0.00000,48,3,57,-8,44,7,70,26,ok,0,0,0.003,10,0.89,1.20,8.76,63,0.190,8.25
10.6591,-0.09076,0.06109,1.05243,0.00000,0.00000,0.00000,49,2,55,-9,45,7,71,23,ok,0,0,0.003,10,0.14,-0.56,11.26,64,0.000,8.25
10.6815,-0.09076,0.06109,1.05243,0.00000,0.00000,0.00000,50,2,53,-9,46,7,73,20,ok,0,0,0.003,10,0.14,-0.56,11.26,64,0.013,8.25
10.6846,-0.09076,0.06109,1.05243,0.00000,0.00000,0.00000,50,4,51,-10,47,7,73,20,ok,0,0,0.003,10,0.14,-0.56,11.26,64,0.026,8.25
10.6973,-0.09076,0.06109,1.05243,0.00000,0.00000,0.00000,51,4,48,-10,47,7,74,18,ok,0,0,0.003,10,0.14,-0.56,11.26,64,0.039,8.25
10.7174,-0.09076,0.06109,1.05243,0.00000,0.00000,0.00000,52,4,46,-10,48,7,74,14,ok,0,0,0.003,11,0.14,-0.56,11.26,64,0.051,8.25
10.7224,-0.09076,0.06109,1.05243,0.00000,0.00000,0.00000,53,5,44,-9,49,8,73,12,ok,0,0,0.003,11,0.14,-0.56,11.26,64,0.063,8.25
10.7348,-0.09076,0.06109,1.05243,0.00000,0.00000,0.00000,53,5,41,-9,50,7,73,10,ok,0,0,0.003,11,0.14,-0.56,11.26,64,0.076,8.25
10.7574,-0.09076,0.06109,1.05243,0.00000,0.00000,0.00000,55,6,39,-10,51,8,71,6,ok,0,0,0.003,11,0.14,-0.56,11.26,64,0.089,8.25
10.7606,-0.09076,0.06109,1.05243,0.00000,0.00000,0.00000,56,6,36,-9,52,7,71,5,ok,0,0,0.003,11,0.14,-0.56,11.26,64,0.102,8.25
10.7731,-0.09076,0.06109,1.05243,0.00000,0.00000,0.00000,57,6,33,-8,52,7,70,4,ok,0,0,0.003,11,0.14,-0.56,11.26,64,0.114,8.25
10.7934,-0.09076,0.06109,1.05243,0.00000,0.00000,0.00000,57,7,30,-7,53,8,68,2,ok,0,0,0.003,11,0.14,-0.56,11.26,64,0.127,8.25
10.7983,-0.09076,0.06109,1.05243,0.00000,0.00000,0.00000,58,7,27,-6,54,8,66,1,ok,0,0,0.003,11,0.14,-0.56,11.26,64,0.139,8.25
10.8108,-0.09076,0.06109,1.05243,0.00000,0.00000,0.00000,59,8,24,-4,54,8,65,-1,ok,2,0,0.003,11,0.14,-0.56,11.26,64,0.152,8.25
10.8334,-0.09076,0.06109,1.05243,0.00000,0.00000,0.00000,60,10,20,-2,55,8,64,-2,ok,2,0,0.003,11,0.14,-0.56,11.26,64,0.164,8.25
10.8366,-0.09076,0.06109,1.05243,0.00000,0.00000,0.00000,60,10,19,-1,57,6,62,-3,ok,2,0,0.003,11,0.14,-0.56,11.26,64,0.178,8.25
10.8494,-0.09076,0.06109,1.05243,0.00000,0.00000,0.00000,61,9,18,1,58,7,60,-5,ok,2,0,0.003,11,0.14,-0.56,11.26,64,0.190,8.25
10.8694,-0.09250,0.01047,1.07861,0.00000,0.00000,0.00000,61,10,16,3,58,8,58,-5,ok,2,0,0.003,11,0.55,-0.46,10.61,65,0.000,8.25
10.8742,-0.09250,0.01047,1.07861,0.00000,0.00000,0.00000,61,11,14,6,59,9,56,-6,ok,2,0,0.003,11,0.55,-0.46,10.61,65,0.012,8.25
10.8867,-0.09250,0.01047,1.07861,0.00000,0.00000,0.00000,61,12,13,9,60,9,54,-6,ok,2,0,0.003,11,0.55,-0.46,10.61,65,0.025,8.25
10.9094,-0.09250,0.01047,1.07861,0.00000,0.00000,0.00000,61,12,12,11,60,10,51,-6,ok,2,0,0.003,11,0.55,-0.46,10.61,65,0.038,8.25
10.9126,-0.09250,0.01047,1.07861,0.00000,0.00000,0.00000,62,13,14,12,60,10,48,-5,ok,2,0,0.003,11,0.55,-0.46,10.61,65,0.051,8.25
10.9254,-0.09250,0.01047,1.07861,0.00000,0.00000,0.00000,61,13,15,11,61,11,46,-5,ok,2,0,0.003,11,0.55,-0.46,10.61,65,0.064,8.25
10.9454,-0.09250,0.01047,1.07861,0.00000,0.00000,0.00000,62,14,17,10,61,11,43,-4,ok,2,0,0.003,11,0.55,-0.46,10.61,65,0.076,8.25
10.9502,-0.09250,0.01047,1.07861,0.00000,0.00000,0.00000,62,15,19,9,61,12,41,-5,ok,2,0,0.003,11,0.55,-0.46,10.61,65,0.089,8.25
10.9628,-0.09250,0.01047,1.07861,0.00000,0.00000,0.00000,63,15,19,9,61,12,37,-3,ok,2,0,0.003,11,0.55,-0.46,10.61,65,0.101,8.25
10.9854,-0.09250,0.01047,1.07861,0.00000,0.00000,0.00000,63,16,21,8,61,13,35,-3,ok,2,0,0.003,11,0.55,-0.46,10.61,65,0.114,8.25
10.9886,-0.09250,0.01047,1.07861,0.00000,0.00000,0.00000,63,17,21,7,62,14,31,-1,ok,2,0,0.003,11,0.55,-0.46,10.61,65,0.127,8.25
11.0013,-0.09250,0.01047,1.07861,0.00000,0.00000,0.00000,65,19,23,6,63,14,30,0,ok,2,0,0.003,11,0.55,-0.46,10.61,65,0.140,8.25
11.0214,-0.09250,0.01047,1.07861,0.00000,0.00000,0.00000,65,20,24,5,63,15,28,2,ok,2,0,0.003,11,0.55,-0.46,10.61,65,0.152,8.25
11.0262,-0.09250,0.01047,1.07861,0.00000,0.00000,0.00000,65,21,24,5,63,16,26,5,ok,2,0,0.003,11,0.55,-0.46,10.61,65,0.164,8.25
11.0387,-0.09250,0.01047,1.07861,0.00000,0.00000,0.00000,65,22,26,4,63,17,24,7,ok,2,0,0.003,11,0.55,-0.46,10.61,65,0.177,8.25
11.0615,-0.09250,0.01047,1.07861,0.00000,0.00000,0.00000,65,23,26,3,64,17,23,11,ok,2,0,0.003,11,0.55,-0.46,10.61,65,0.190,8.25
11.0648,-0.03142,0.10472,1.14494,0.00000,0.00000,0.00000,64,26,27,3,64,19,23,13,ok,2,0,0.003,11,1.12,-0.88,10.48,66,0.000,8.25
11.0774,-0.03142,0.10472,1.14494,0.00000,0.00000,0.00000,64,27,28,2,64,20,24,12,ok,2,0,0.003,11,1.12,-0.88,10.48,66,0.013,8.25
11.0974,-0.03142,0.10472,1.14494,0.00000,0.00000,0.00000,65,26,29,2,64,21,24,12,ok,2,0,0.003,11,1.12,-0.88,10.48,66,0.025,8.25
11.1022,-0.03142,0.10472,1.14494,0.00000,0.00000,0.00000,67,22,30,2,65,22,25,10,ok,2,0,0.003,11,1.12,-0.88,10.48,66,0.038,8.25
11.1148,-0.03142,0.10472,1.14494,0.00000,0.00000,0.00000,70,18,31,1,64,23,26,9,ok,2,0,0.003,11,1.12,-0.88,10.48,66,0.050,8.25
11.1374,-0.03142,0.10472,1.14494,0.00000,0.00000,0.00000,70,14,32,2,64,25,27,10,ok,2,0,0.003,11,1.12,-0.88,10.48,66,0.063,8.25
11.1405,-0.03142,0.10472,1.14494,0.00000,0.00000,0.00000,70,12,33,2,65,25,29,9,ok,2,0,0.003,11,1.12,-0.88,10.48,66,0.076,8.25
11.1533,-0.03142,0.10472,1.14494,0.00000,0.00000,0.00000,70,11,35,2,64,28,30,9,ok,2,0,0.003,11,1.12,-0.88,10.48,66,0.089,8.25
11.1734,-0.03142,0.10472,1.14494,0.00000,0.00000,0.00000,70,8,36,2,64,29,32,9,ok,2,0,0.003,11,1.12,-0.88,10.48,66,0.101,8.25
11.1781,-0.03142,0.10472,1.14494,0.00000,0.00000,0.00000,69,5,38,3,64,30,33,9,ok,2,0,0.003,11,1.12,-0.88,10.48,66,0.114,8.25
11.1907,-0.03142,0.10472,1.14494,0.00000,0.00000,0.00000,69,2,39,3,64,32,35,8,ok,2,0,0.003,11,1.12,-0.88,10.48,66,0.126,8.25
11.2134,-0.03142,0.10472,1.14494,0.00000,0.00000,0.00000,67,-1,41,3,64,34,36,8,ok,2,0,0.003,11,1.12,-0.88,10.48,66,0.139,8.25
11.2167,-0.03142,0.10472,1.14494,0.00000,0.00000,0.00000,66,-3,42,2,64,35,37,8,ok,2,0,0.003,11,1.12,-0.88,10.48,66,0.152,8.25
11.2292,-0.03142,0.10472,1.14494,0.00000,0.00000,0.00000,65,-4,43,3,65,35,38,8,ok,2,0,0.003,11,1.12,-0.88,10.48,66,0.165,8.25
11.2494,-0.03142,0.10472,1.14494,0.00000,0.00000,0.00000,63,-5,44,3,66,35,39,8,ok,2,0,0.003,11,1.12,-0.88,10.48,66,0.177,8.25
11.2545,-0.03142,0.10472,1.14494,0.00000,0.00000,0.00000,62,-6,45,3,68,33,41,7,ok,2,0,0.003,11,1.12,-0.88,10.48,66,0.190,8.25
11.2670,0.09774,0.07854,1.15192,0.00000,0.00000,0.00000,61,-9,46,3,70,28,42,7,ok,2,0,0.003,11,1.50,1.61,10.56,67,0.000,8.25
11.2894,0.09774,0.07854,1.15192,0.00000,0.00000,0.00000,58,-9,47,4,72,25,43,7,ok,2,0,0.003,11,1.50,1.61,10.56,67,0.013,8.25
11.2926,0.09774,0.07854,1.15192,0.00000,0.00000,0.00000,55,-10,48,3,73,22,44,7,ok,2,0,0.003,11,1.50,1.61,10.56,67,0.026,8.25
11.3054,0.09774,0.07854,1.15192,0.00000,0.00000,0.00000,53,-10,49,3,74,21,45,7,ok,2,0,0.003,11,1.50,1.61,10.56,67,0.038,8.25
11.3254,0.09774,0.07854,1.15192,0.00000,0.00000,0.00000,51,-11,49,5,74,19,46,7,ok,2,0,0.003,11,1.50,1.61,10.56,67,0.051,8.25
11.3302,0.09774,0.07854,1.15192,0.00000,0.00000,0.00000,49,-11,51,6,74,15,47,7,ok,2,0,0.003,11,1.50,1.61,10.56,67,0.063,8.25
11.3427,0.09774,0.07854,1.15192,0.00000,0.00000,0.00000,46,-10,52,5,74,12,48,7,ok,2,0,0.003,11,1.50,1.61,10.56,67,0.076,8.25
11.3654,0.09774,0.07854,1.15192,0.00000,0.00000,0.00000,44,-10,53,5,73,10,49,7,ok,2,0,0.003,11,1.50,1.61,10.56,67,0.088,8.25
11.3686,0.09774,0.07854,1.15192,0.00000,0.00000,0.00000,41,-10,53,6,72,7,49,8,ok,0,0,0.003,11,1.50,1.61,10.56,67,0.102,8.25
11.3812,0.09774,0.07854,1.15192,0.00000,0.00000,0.00000,38,-10,55,6,72,5,50,7,ok,0,0,0.003,11,1.50,1.61,10.56,67,0.114,8.25
11.4014,0.09774,0.07854,1.15192,0.00000,0.00000,0.00000,36,-10,55,6,70,4,51,8,ok,0,0,0.003,11,1.50,1.61,10.56,67,0.127,8.25
11.4062,0.09774,0.07854,1.15192,0.00000,0.00000,0.00000,32,-9,56,7,69,1,52,7,ok,0,0,0.003,11,1.50,1.61,10.56,67,0.139,8.25
11.4188,0.09774,0.07854,1.15192,0.00000,0.00000,0.00000,30,-8,57,8,66,2,52,8,ok,0,0,0.003,11,1.50,1.61,10.56,67,0.152,8.25
11.4414,0.09774,0.07854,1.15192,0.00000,0.00000,0.00000,26,-6,57,8,65,0,53,8,ok,0,0,0.003,11,1.50,1.61,10.56,67,0.164,8.25
11.4446,0.09774,0.07854,1.15192,0.00000,0.00000,0.00000,23,-5,58,8,64,-2,54,8,ok,0,0,0.003,11,1.50,1.61,10.56,67,0.178,8.25
11.4571,0.09774,0.07854,1.15192,0.00000,0.00000,0.00000,19,-2,59,9,62,-4,55,8,ok,0,0,0.003,11,1.50,1.61,10.56,67,0.190,8.25
11.4774,0.09425,-0.07679,1.13621,0.00000,0.00000,0.00000,19,-2,60,11,61,-5,55,8,ok,0,0,0.003,11,-0.68,1.38,10.30,68,0.000,8.25
11.4822,0.09425,-0.07679,1.13621,0.00000,0.00000,0.00000,18,-1,60,10,59,-5,57,6,ok,0,0,0.003,11,-0.68,1.38,10.30,68,0.012,8.25
11.4949,0.09425,-0.07679,1.13621,0.00000,0.00000,0.00000,16,1,61,11,56,-6,57,7,ok,0,0,0.003,11,-0.68,1.38,10.30,68,0.025,8.25
11.5174,0.09425,-0.07679,1.13621,0.00000,0.00000,0.00000,14,4,61,11,54,-6,58,7,ok,0,0,0.003,11,-0.68,1.38,10.30,68,0.038,8.25
11.5205,0.09425,-0.07679,1.13621,0.00000,0.00000,0.00000,12,8,61,12,51,-6,59,8,ok,0,0,0.003,11,-0.68,1.38,10.30,68,0.051,8.25
11.5332,0.09425,-0.07679,1.13621,0.00000,0.00000,0.00000,12,10,62,11,48,-5,59,8,ok,0,0,0.003,11,-0.68,1.38,10.30,68,0.064,8.25
11.5534,0.09425,-0.07679,1.13621,0.00000,0.00000,0.00000,14,11,62,12,46,-5,60,9,ok,0,0,0.003,11,-0.68,1.38,10.30,68,0.076,8.25
11.5582,0.09425,-0.07679,1.13621,0.00000,0.00000,0.00000,15,11,62,13,42,-4,60,10,ok,0,0,0.003,11,-0.68,1.38,10.30,68,0.089,8.25
11.5708,0.09425,-0.07679,1.13621,0.00000,0.00000,0.00000,16,10,63,13,40,-4,60,10,ok,0,0,0.003,11,-0.68,1.38,10.30,68,0.101,8.25
11.5934,0.09425,-0.07679,1.13621,0.00000,0.00000,0.00000,18,9,63,14,37,-4,61,11,ok,0,0,0.003,11,-0.68,1.38,10.30,68,0.114,8.25
11.5965,0.09425,-0.07679,1.13621,0.00000,0.00000,0.00000,19,9,63,14,34,-3,61,12,ok,0,0,0.003,11,-0.68,1.38,10.30,68,0.127,8.25
11.6092,0.09425,-0.07679,1.13621,0.00000,0.00000,0.00000,21,8,64,15,31,-1,61,13,ok,0,0,0.003,11,-0.68,1.38,10.30,68,0.139,8.25
11.6294,0.09425,-0.07679,1.13621,0.00000,0.00000,0.00000,21,7,64,17,29,0,62,14,ok,0,0,0.003,11,-0.68,1.38,10.30,68,0.152,8.25
11.6343,0.09425,-0.07679,1.13621,0.00000,0.00000,0.00000,23,6,65,18,27,2,62,15,ok,0,0,0.003,11,-0.68,1.38,10.30,68,0.164,8.25
11.6469,0.09425,-0.07679,1.13621,0.00000,0.00000,0.00000,24,5,65,19,25,5,63,15,ok,0,0,0.003,11,-0.68,1.38,10.30,68,0.177,8.25
11.6694,0.09425,-0.07679,1.13621,0.00000,0.00000,0.00000,25,5,65,20,24,8,63,16,ok,0,0,0.003,11,-0.68,1.38,10.30,68,0.190,8.25
11.6728,-0.13090,0.05585,1.18333,0.00000,0.00000,0.00000,26,4,65,22,23,12,63,17,ok,0,0,0.003,11,-0.66,-1.49,9.91,69,0.000,8.25
11.6852,-0.13090,0.05585,1.18333,0.00000,0.00000,0.00000,27,4,65,24,21,13,64,18,ok,0,0,0.003,11,-0.66,-1.49,9.91,69,0.013,8.25
11.7054,-0.13090,0.05585,1.18333,0.00000,0.00000,0.00000,29,3,64,27,23,12,64,19,ok,0,0,0.003,11,-0.66,-1.49,9.91,69,0.025,8.25
11.7102,-0.13090,0.05585,1.18333,0.00000,0.00000,0.00000,30,2,64,28,23,12,65,19,ok,0,0,0.003,11,-0.66,-1.49,9.91,69,0.038,8.25
11.7229,-0.13090,0.05585,1.18333,0.00000,0.00000,0.00000,30,1,65,27,24,10,65,21,ok,0,0,0.003,12,-0.66,-1.49,9.91,69,0.050,8.25
11.7454,-0.13090,0.05585,1.18333,0.00000,0.00000,0.00000,31,0,67,24,25,10,65,21,ok,0,0,0.003,12,-0.66,-1.49,9.91,69,0.063,8.25
11.7486,-0.13090,0.05585,1.18333,0.00000,0.00000,0.00000,32,-1,69,21,27,10,65,23,ok,0,0,0.003,12,-0.66,-1.49,9.91,69,0.076,8.25
11.7611,-0.13090,0.05585,1.18333,0.00000,0.00000,0.00000,34,-1,70,17,28,10,65,24,ok,0,0,0.003,12,-0.66,-1.49,9.91,69,0.089,8.25
11.7814,-0.13090,0.05585,1.18333,0.00000,0.00000,0.00000,35,-1,70,15,30,9,65,26,ok,0,0,0.003,12,-0.66,-1.49,9.91,69,0.101,8.25
11.7862,-0.13090,0.05585,1.18333,0.00000,0.00000,0.00000,37,-1,70,13,32,9,65,27,ok,0,0,0.003,12,-0.66,-1.49,9.91,69,0.114,8.25
11.7989,-0.13090,0.05585,1.18333,0.00000,0.00000,0.00000,38,0,70,10,33,9,65,29,ok,0,0,0.003,12,-0.66,-1.49,9.91,69,0.126,8.25
11.8214,-0.13090,0.05585,1.18333,0.00000,0.00000,0.00000,39,1,69,7,35,9,64,30,ok,0,0,0.003,12,-0.66,-1.49,9.91,69,0.139,8.25
11.8246,-0.13090,0.05585,1.18333,0.00000,0.00000,0.00000,41,2,69,3,36,8,65,31,ok,0,0,0.003,12,-0.66,-1.49,9.91,69,0.152,8.25
11.8374,-0.13090,0.05585,1.18333,0.00000,0.00000,0.00000,42,2,67,0,37,8,64,33,ok,0,0,0.003,12,-0.66,-1.49,9.91,69,0.165,8.25
11.8574,-0.13090,0.05585,1.18333,0.00000,0.00000,0.00000,43,2,66,-2,38,8,64,34,ok,0,0,0.003,12,-0.66,-1.49,9.91,69,0.177,8.25
11.8624,-0.13090,0.05585,1.18333,0.00000,0.00000,0.00000,45,3,64,-3,39,8,64,36,ok,0,0,0.003,12,-0.66,-1.49,9.91,69,0.190,8.25
11.8750,-0.08901,0.03840,1.19904,0.00000,0.00000,0.00000,45,3,62,-4,41,7,65,36,ok,0,0,0.003,12,-0.06,-0.07,7.95,70,0.000,8.25
11.8974,-0.08901,0.03840,1.19904,0.00000,0.00000,0.00000,46,3,61,-6,42,7,66,35,ok,0,0,0.003,12,-0.06,-0.07,7.95,70,0.013,8.25
11.9005,-0.08901,0.03840,1.19904,0.00000,0.00000,0.00000,47,3,60,-8,43,7,68,32,ok,0,0,0.003,12,-0.06,-0.07,7.95,70,0.026,8.25
11.9131,-0.08901,0.03840,1.19904,0.00000,0.00000,0.00000,49,4,57,-8,44,7,69,27,ok,0,0,0.003,12,-0.06,-0.07,7.95,70,0.039,8.25
11.9334,-0.08901,0.03840,1.19904,0.00000,0.00000,0.00000,50,3,55,-10,45,7,71,24,ok,0,0,0.003,12,-0.06,-0.07,7.95,70,0.051,8.25
11.9383,-0.08901,0.03840,1.19904,0.00000,0.00000,0.00000,51,3,53,-10,46,7,72,21,ok,0,0,0.003,12,-0.06,-0.07,7.95,70,0.063,8.25
11.9507,-0.08901,0.03840,1.19904,0.00000,0.00000,0.00000,51,5,51,-11,47,7,73,20,ok,0,0,0.003,12,-0.06,-0.07,7.95,70,0.076,8.25
11.9734,-0.08901,0.03840,1.19904,0.00000,0.00000,0.00000,52,6,49,-10,48,7,73,18,ok,0,0,0.003,12,-0.06,-0.07,7.95,70,0.089,8.25
11.9765,-0.08901,0.03840,1.19904,0.00000,0.00000,0.00000,53,6,46,-10,49,7,73,15,ok,0,0,0.003,12,-0.06,-0.07,7.95,70,0.102,8.25
11.9894,-0.08901,0.03840,1.19904,0.00000,0.00000,0.00000,53,6,44,-10,49,7,72,12,ok,0,0,0.003,12,-0.06,-0.07,7.95,70,0.114,8.25
12.0094,-0.08901,0.03840,1.19904,0.00000,0.00000,0.00000,54,7,41,-10,50,7,71,10,ok,0,0,0.003,12,-0.06,-0.07,7.95,70,0.127,8.25
12.0142,-0.08901,0.03840,1.19904,0.00000,0.00000,0.00000,56,7,39,-10,51,7,71,7,ok,0,0,0.003,12,-0.06,-0.07,7.95,70,0.139,8.25
12.0267,-0.08901,0.03840,1.19904,0.00000,0.00000,0.00000,56,7,36,-9,52,7,70,5,ok,0,0,0.003,12,-0.06,-0.07,7.95,70,0.152,8.25
12.0494,-0.08901,0.03840,1.19904,0.00000,0.00000,0.00000,57,7,33,-9,52,7,70,4,ok,0,0,0.003,12,-0.06,-0.07,7.95,70,0.165,8.25
12.0527,-0.08901,0.03840,1.19904,0.00000,0.00000,0.00000,58,8,30,-7,52,8,68,2,ok,0,0,0.003,12,-0.06,-0.07,7.95,70,0.178,8.25
12.0654,-0.08901,0.03840,1.19904,0.00000,0.00000,0.00000,58,8,27,-6,53,8,66,1,ok,0,0,0.003,12,-0.06,-0.07,7.95,70,0.190,8.25
12.0855,-0.02793,0.04363,1.19555,0.00000,0.00000,0.00000,59,9,24,-4,54,8,65,0,ok,0,0,0.003,12,-0.81,-0.43,9.20,71,0.000,8.25
12.0902,-0.02793,0.04363,1.19555,0.00000,0.00000,0.00000,60,10,20,-2,56,8,64,-2,ok,0,0,0.003,12,-0.81,-0.43,9.20,71,0.012,8.25
12.1027,-0.02793,0.04363,1.19555,0.00000,0.00000,0.00000,60,10,19,-1,58,6,62,-3,ok,2,0,0.003,12,-0.81,-0.43,9.20,71,0.025,8.25
12.1254,-0.02793,0.04363,1.19555,0.00000,0.00000,0.00000,61,10,18,0,58,7,59,-4,ok,2,0,0.003,12,-0.81,-0.43,9.20,71,0.037,8.25
12.1288,-0.02793,0.04363,1.19555,0.00000,0.00000,0.00000,61,10,16,3,59,8,58,-5,ok,2,0,0.003,12,-0.81,-0.43,9.20,71,0.051,8.25
12.1412,-0.02793,0.04363,1.19555,0.00000,0.00000,0.00000,61,11,15,6,59,8,55,-6,ok,2,0,0.003,12,-0.81,-0.43,9.20,71,0.064,8.25
12.1615,-0.02793,0.04363,1.19555,0.00000,0.00000,0.00000,61,12,13,9,60,9,53,-6,ok,2,0,0.003,12,-0.81,-0.43,9.20,71,0.076,8.25
12.1662,-0.02793,0.04363,1.19555,0.00000,0.00000,0.00000,61,12,12,11,60,9,50,-5,ok,2,0,0.003,12,-0.81,-0.43,9.20,71,0.088,8.25
12.1788,-0.02793,0.04363,1.19555,0.00000,0.00000,0.00000,62,13,14,12,60,10,48,-5,ok,2,0,0.003,12,-0.81,-0.43,9.20,71,0.101,8.25
12.2015,-0.02793,0.04363,1.19555,0.00000,0.00000,0.00000,61,14,15,11,61,10,46,-5,ok,2,0,0.003,12,-0.81,-0.43,9.20,71,0.113,8.25
12.2047,-0.02793,0.04363,1.19555,0.00000,0.00000,0.00000,62,14,16,10,61,11,43,-4,ok,2,0,0.003,12,-0.81,-0.43,9.20,71,0.127,8.25
12.2175,-0.02793,0.04363,1.19555,0.00000,0.00000,0.00000,62,15,18,9,61,12,41,-4,ok,2,0,0.003,12,-0.81,-0.43,9.20,71,0.140,8.25
12.2374,-0.02793,0.04363,1.19555,0.00000,0.00000,0.00000,63,15,19,9,61,12,37,-3,ok,2,0,0.003,12,-0.81,-0.43,9.20,71,0.152,8.25
12.2424,-0.02793,0.04363,1.19555,0.00000,0.00000,0.00000,63,16,21,8,62,13,35,-3,ok,2,0,0.003,12,-0.81,-0.43,9.20,71,0.165,8.25
12.2550,-0.02793,0.04363,1.19555,0.00000,0.00000,0.00000,63,17,21,7,62,14,31,-1,ok,2,0,0.003,12,-0.81,-0.43,9.20,71,0.177,8.25
12.2775,-0.02793,0.04363,1.19555,0.00000,0.00000,0.00000,64,18,23,6,63,14,30,0,ok,2,0,0.003,12,-0.81,-0.43,9.20,71,0.190,8.25
12.2809,0.04363,0.02443,1.22348,0.00000,0.00000,0.00000,64,20,24,5,63,15,28,2,ok,2,0,0.003,12,-0.11,0.09,7.88,72,0.000,8.25
12.2932,0.04363,0.02443,1.22348,0.00000,0.00000,0.00000,64,21,24,4,63,17,25,5,ok,2,0,0.003,12,-0.11,0.09,7.88,72,0.013,8.25
