# run_gait log  cmd_fwd=0.100 hz=80.0 fw_balance=off policy_yaw_sign=-1
t,roll,pitch,yaw,gx,gy,gz,j0,j1,j2,j3,j4,j5,j6,j7,guard_state,hottest_j,hottest_tier,hottest_frac,duty_s,ax,ay,az,imu_n,imu_age_s,volt
0.0379,-0.01920,0.01047,0.00000,0.00000,0.00000,0.00000,22,0,57,10,60,-3,54,8,ok,3,0,0.000,0,0.11,-0.19,10.01,2,0.000,nan
0.0426,-0.01920,0.01047,0.00000,0.00000,0.00000,0.00000,19,1,59,10,59,-4,56,6,ok,0,0,0.000,0,0.11,-0.19,10.01,2,0.023,nan
0.0555,-0.01920,0.01047,0.00000,0.00000,0.00000,0.00000,17,4,59,11,56,-5,56,8,ok,0,0,0.000,0,0.11,-0.19,10.01,2,0.036,8.21
0.0779,-0.01920,0.01047,0.00000,0.00000,0.00000,0.00000,16,6,60,12,55,-6,57,8,ok,0,0,0.000,0,0.11,-0.19,10.01,2,0.048,8.21
0.0822,-0.01920,0.01047,0.00000,0.00000,0.00000,0.00000,14,10,59,13,52,-5,57,9,ok,4,0,0.000,0,0.11,-0.19,10.01,2,0.063,8.21
0.0948,-0.01920,0.01047,0.00000,0.00000,0.00000,0.00000,12,12,60,13,50,-5,58,10,ok,4,0,0.000,0,0.11,-0.19,10.01,2,0.076,8.21
0.1179,-0.01920,0.01047,0.00000,0.00000,0.00000,0.00000,14,13,60,14,47,-5,59,11,ok,4,0,0.000,0,0.11,-0.19,10.01,2,0.088,8.21
0.1224,-0.01920,0.01047,0.00000,0.00000,0.00000,0.00000,14,13,60,15,44,-4,59,11,ok,4,0,0.000,0,0.11,-0.19,10.01,2,0.103,8.21
0.1338,-0.01920,0.01047,0.00000,0.00000,0.00000,0.00000,16,12,61,15,42,-4,60,12,ok,4,0,0.000,0,0.11,-0.19,10.01,2,0.116,8.21
0.1538,-0.01920,0.01047,0.00000,0.00000,0.00000,0.00000,17,11,61,16,39,-3,60,12,ok,4,0,0.000,0,0.11,-0.19,10.01,2,0.128,8.21
0.1587,-0.01920,0.01047,0.00000,0.00000,0.00000,0.00000,17,11,61,17,36,-2,61,13,ok,4,0,0.000,0,0.11,-0.19,10.01,2,0.141,8.21
0.1715,-0.01920,0.01047,0.00000,0.00000,0.00000,0.00000,19,9,61,18,32,-1,61,14,ok,4,0,0.000,0,0.11,-0.19,10.01,2,0.153,8.21
0.1937,-0.01920,0.01047,0.00000,0.00000,0.00000,0.00000,19,9,61,19,30,0,62,15,ok,4,0,0.000,0,0.11,-0.19,10.01,2,0.166,8.21
0.1971,-0.03142,-0.09599,-0.00175,0.00000,0.00000,0.00000,22,8,62,20,27,2,62,16,ok,4,0,0.000,0,-1.17,0.35,9.41,3,0.000,8.21
0.2097,-0.03142,-0.09599,-0.00175,0.00000,0.00000,0.00000,23,7,62,21,25,5,63,16,ok,4,0,0.000,0,-1.17,0.35,9.41,3,0.013,8.21
0.2297,-0.03142,-0.09599,-0.00175,0.00000,0.00000,0.00000,24,7,62,21,23,8,64,17,ok,4,0,0.000,0,-1.17,0.35,9.41,3,0.025,8.21
0.2345,-0.03142,-0.09599,-0.00175,0.00000,0.00000,0.00000,25,6,62,22,22,11,64,18,ok,4,0,0.000,0,-1.17,0.35,9.41,3,0.038,8.21
0.2470,-0.03142,-0.09599,-0.00175,0.00000,0.00000,0.00000,27,6,62,23,21,14,65,18,ok,4,0,0.000,0,-1.17,0.35,9.41,3,0.050,8.21
0.2697,-0.03142,-0.09599,-0.00175,0.00000,0.00000,0.00000,28,6,61,26,23,14,65,19,ok,4,0,0.000,0,-1.17,0.35,9.41,3,0.063,8.21
0.2728,-0.03142,-0.09599,-0.00175,0.00000,0.00000,0.00000,29,5,62,28,22,14,65,20,ok,4,0,0.000,0,-1.17,0.35,9.41,3,0.076,8.21
0.2854,-0.03142,-0.09599,-0.00175,0.00000,0.00000,0.00000,30,5,64,26,23,12,65,21,ok,4,0,0.000,0,-1.17,0.35,9.41,3,0.089,8.21
0.3057,-0.03142,-0.09599,-0.00175,0.00000,0.00000,0.00000,31,4,67,23,25,11,65,23,ok,4,0,0.000,0,-1.17,0.35,9.41,3,0.101,8.21
0.3105,-0.03142,-0.09599,-0.00175,0.00000,0.00000,0.00000,33,4,69,19,26,11,66,24,ok,4,0,0.000,0,-1.17,0.35,9.41,3,0.114,8.21
0.3230,-0.03142,-0.09599,-0.00175,0.00000,0.00000,0.00000,34,4,70,16,27,11,65,25,ok,4,0,0.000,0,-1.17,0.35,9.41,3,0.126,8.21
0.3457,-0.03142,-0.09599,-0.00175,0.00000,0.00000,0.00000,36,4,71,14,28,9,65,27,ok,4,0,0.000,0,-1.17,0.35,9.41,3,0.139,8.21
0.3488,-0.03142,-0.09599,-0.00175,0.00000,0.00000,0.00000,37,3,71,13,30,10,65,28,ok,4,0,0.000,0,-1.17,0.35,9.41,3,0.152,8.21
0.3615,-0.03142,-0.09599,-0.00175,0.00000,0.00000,0.00000,39,3,71,10,30,10,64,30,ok,4,0,0.000,0,-1.17,0.35,9.41,3,0.165,8.21
0.3817,-0.03142,-0.09599,-0.00175,0.00000,0.00000,0.00000,40,4,71,7,32,10,64,31,ok,4,0,0.000,0,-1.17,0.35,9.41,3,0.177,8.21
0.3865,-0.03142,-0.09599,-0.00175,0.00000,0.00000,0.00000,41,4,70,4,34,9,65,32,ok,4,0,0.000,0,-1.17,0.35,9.41,3,0.190,8.21
0.3991,-0.03142,-0.09599,-0.00175,0.00000,0.00000,0.00000,43,3,69,1,35,9,64,33,ok,4,0,0.000,0,-1.17,0.35,9.41,3,0.202,8.21
0.4217,-0.07679,0.01571,0.05411,0.00000,0.00000,0.00000,44,3,68,-1,36,8,64,35,ok,4,0,0.000,0,1.34,-0.91,11.84,4,0.000,8.21
0.4248,-0.07679,0.01571,0.05411,0.00000,0.00000,0.00000,45,3,67,-2,38,8,63,36,ok,4,0,0.000,0,1.34,-0.91,11.84,4,0.013,8.21
0.4377,-0.07679,0.01571,0.05411,0.00000,0.00000,0.00000,46,3,65,-3,39,7,65,36,ok,4,0,0.000,0,1.34,-0.91,11.84,4,0.026,8.21
0.4577,-0.07679,0.01571,0.05411,0.00000,0.00000,0.00000,48,4,63,-4,41,6,65,34,ok,4,0,0.000,0,1.34,-0.91,11.84,4,0.039,8.21
0.4625,-0.07679,0.01571,0.05411,0.00000,0.00000,0.00000,49,4,62,-6,42,6,67,32,ok,4,0,0.000,0,1.34,-0.91,11.84,4,0.051,8.21
0.4750,-0.07679,0.01571,0.05411,0.00000,0.00000,0.00000,50,4,59,-7,43,6,69,27,ok,4,0,0.000,0,1.34,-0.91,11.84,4,0.064,8.21
0.4977,-0.07679,0.01571,0.05411,0.00000,0.00000,0.00000,51,4,56,-8,44,6,71,23,ok,4,0,0.000,0,1.34,-0.91,11.84,4,0.076,8.21
0.5008,-0.07679,0.01571,0.05411,0.00000,0.00000,0.00000,52,4,54,-9,46,6,73,20,ok,4,0,0.000,0,1.34,-0.91,11.84,4,0.089,8.21
0.5135,-0.07679,0.01571,0.05411,0.00000,0.00000,0.00000,52,6,52,-10,47,6,73,20,ok,4,0,0.000,0,1.34,-0.91,11.84,4,0.102,8.21
0.5337,-0.07679,0.01571,0.05411,0.00000,0.00000,0.00000,53,5,49,-10,48,7,73,17,ok,4,0,0.000,1,1.34,-0.91,11.84,4,0.114,8.21
0.5385,-0.07679,0.01571,0.05411,0.00000,0.00000,0.00000,54,5,47,-10,49,7,73,14,ok,4,0,0.000,1,1.34,-0.91,11.84,4,0.127,8.21
0.5511,-0.07679,0.01571,0.05411,0.00000,0.00000,0.00000,54,6,45,-10,50,7,72,11,ok,4,0,0.000,1,1.34,-0.91,11.84,4,0.139,8.21
0.5738,-0.07679,0.01571,0.05411,0.00000,0.00000,0.00000,55,7,42,-10,51,7,72,9,ok,4,0,0.000,1,1.34,-0.91,11.84,4,0.152,8.21
0.5769,-0.07679,0.01571,0.05411,0.00000,0.00000,0.00000,57,7,40,-11,52,7,72,6,ok,4,0,0.000,1,1.34,-0.91,11.84,4,0.166,8.21
0.5896,-0.07679,0.01571,0.05411,0.00000,0.00000,0.00000,57,7,37,-10,53,6,71,4,ok,4,0,0.000,1,1.34,-0.91,11.84,4,0.178,8.21
0.6097,-0.08378,-0.02618,0.10647,0.00000,0.00000,0.00000,58,7,33,-9,53,7,70,2,ok,4,0,0.000,1,-0.41,-1.07,11.00,5,0.000,8.21
0.6148,-0.08378,-0.02618,0.10647,0.00000,0.00000,0.00000,58,8,31,-8,53,7,69,0,ok,4,0,0.000,1,-0.41,-1.07,11.00,5,0.012,8.21
0.6271,-0.08378,-0.02618,0.10647,0.00000,0.00000,0.00000,59,8,27,-7,54,8,66,0,ok,4,0,0.000,1,-0.41,-1.07,11.00,5,0.025,8.21
0.6497,-0.08378,-0.02618,0.10647,0.00000,0.00000,0.00000,60,9,24,-5,55,8,65,-2,ok,2,0,0.000,1,-0.41,-1.07,11.00,5,0.037,8.21
0.6528,-0.08378,-0.02618,0.10647,0.00000,0.00000,0.00000,61,10,20,-2,56,9,64,-3,ok,2,0,0.000,1,-0.41,-1.07,11.00,5,0.051,8.21
0.6655,-0.08378,-0.02618,0.10647,0.00000,0.00000,0.00000,61,10,19,-1,58,7,62,-5,ok,2,0,0.000,1,-0.41,-1.07,11.00,5,0.063,8.21
0.6857,-0.08378,-0.02618,0.10647,0.00000,0.00000,0.00000,61,10,18,0,58,8,60,-5,ok,2,0,0.000,1,-0.41,-1.07,11.00,5,0.076,8.21
0.6907,-0.08378,-0.02618,0.10647,0.00000,0.00000,0.00000,62,11,16,3,59,9,58,-6,ok,2,0,0.000,1,-0.41,-1.07,11.00,5,0.088,8.21
0.7030,-0.08378,-0.02618,0.10647,0.00000,0.00000,0.00000,62,11,14,6,59,9,55,-6,ok,2,0,0.000,1,-0.41,-1.07,11.00,5,0.101,8.21
0.7257,-0.08378,-0.02618,0.10647,0.00000,0.00000,0.00000,62,12,13,10,59,10,54,-7,ok,2,0,0.000,1,-0.41,-1.07,11.00,5,0.113,8.21
0.7288,-0.08378,-0.02618,0.10647,0.00000,0.00000,0.00000,63,12,12,12,60,10,50,-6,ok,2,0,0.000,1,-0.41,-1.07,11.00,5,0.127,8.21
0.7415,-0.08378,-0.02618,0.10647,0.00000,0.00000,0.00000,63,13,14,12,60,10,48,-6,ok,2,0,0.000,1,-0.41,-1.07,11.00,5,0.139,8.21
0.7617,-0.08378,-0.02618,0.10647,0.00000,0.00000,0.00000,62,14,15,12,60,11,46,-6,ok,2,0,0.000,1,-0.41,-1.07,11.00,5,0.152,8.21
0.7665,-0.08378,-0.02618,0.10647,0.00000,0.00000,0.00000,63,14,16,10,61,11,42,-5,ok,2,0,0.000,1,-0.41,-1.07,11.00,5,0.164,8.21
0.7792,-0.08378,-0.02618,0.10647,0.00000,0.00000,0.00000,63,15,19,9,61,12,40,-5,ok,2,0,0.000,1,-0.41,-1.07,11.00,5,0.177,8.21
0.8017,-0.08378,-0.02618,0.10647,0.00000,0.00000,0.00000,64,16,19,9,61,12,37,-3,ok,2,0,0.000,1,-0.41,-1.07,11.00,5,0.189,8.21
0.8051,-0.08203,0.13090,0.13439,0.00000,0.00000,0.00000,64,16,21,7,61,13,35,-3,ok,2,0,0.000,1,1.47,-1.52,11.30,6,0.000,8.21
0.8175,-0.08203,0.13090,0.13439,0.00000,0.00000,0.00000,64,18,22,7,61,14,31,-1,ok,2,0,0.000,1,1.47,-1.52,11.30,6,0.013,8.21
0.8377,-0.08203,0.13090,0.13439,0.00000,0.00000,0.00000,65,19,23,6,62,14,29,0,ok,2,0,0.000,1,1.47,-1.52,11.30,6,0.025,8.21
0.8425,-0.08203,0.13090,0.13439,0.00000,0.00000,0.00000,65,20,24,5,62,15,27,2,ok,2,0,0.000,1,1.47,-1.52,11.30,6,0.038,8.21
0.8552,-0.08203,0.13090,0.13439,0.00000,0.00000,0.00000,65,21,24,5,62,16,25,5,ok,2,0,0.000,1,1.47,-1.52,11.30,6,0.050,8.21
0.8777,-0.08203,0.13090,0.13439,0.00000,0.00000,0.00000,65,22,25,4,63,16,24,7,ok,2,0,0.000,1,1.47,-1.52,11.30,6,0.063,8.21
0.8808,-0.08203,0.13090,0.13439,0.00000,0.00000,0.00000,65,23,25,3,64,17,23,11,ok,2,0,0.000,1,1.47,-1.52,11.30,6,0.076,8.21
0.8935,-0.08203,0.13090,0.13439,0.00000,0.00000,0.00000,64,25,26,3,64,18,22,13,ok,2,0,0.000,1,1.47,-1.52,11.30,6,0.089,8.21
0.9137,-0.08203,0.13090,0.13439,0.00000,0.00000,0.00000,64,26,27,2,64,20,25,12,ok,2,0,0.000,1,1.47,-1.52,11.30,6,0.101,8.21
0.9185,-0.08203,0.13090,0.13439,0.00000,0.00000,0.00000,65,25,28,2,64,21,25,12,ok,2,0,0.000,1,1.47,-1.52,11.30,6,0.114,8.21
0.9310,-0.08203,0.13090,0.13439,0.00000,0.00000,0.00000,67,21,29,2,65,22,26,10,ok,2,0,0.000,1,1.47,-1.52,11.30,6,0.126,8.21
0.9537,-0.08203,0.13090,0.13439,0.00000,0.00000,0.00000,69,17,30,1,64,23,27,9,ok,2,0,0.000,1,1.47,-1.52,11.30,6,0.139,8.21
0.9568,-0.08203,0.13090,0.13439,0.00000,0.00000,0.00000,70,13,32,1,64,25,28,10,ok,2,0,0.000,1,1.47,-1.52,11.30,6,0.152,8.21
0.9695,-0.08203,0.13090,0.13439,0.00000,0.00000,0.00000,70,11,33,1,65,25,30,9,ok,2,0,0.000,1,1.47,-1.52,11.30,6,0.165,8.21
0.9897,-0.08203,0.13090,0.13439,0.00000,0.00000,0.00000,70,10,35,1,64,27,31,8,ok,2,0,0.000,1,1.47,-1.52,11.30,6,0.177,8.21
0.9946,-0.08203,0.13090,0.13439,0.00000,0.00000,0.00000,70,7,36,1,64,29,33,8,ok,2,0,0.000,1,1.47,-1.52,11.30,6,0.190,8.21
1.0072,0.07679,0.05934,0.22166,0.00000,0.00000,0.00000,69,5,38,3,64,30,33,9,ok,2,0,0.000,1,0.40,1.64,10.40,7,0.000,8.21
1.0297,0.07679,0.05934,0.22166,0.00000,0.00000,0.00000,68,2,39,2,65,32,35,8,ok,2,0,0.000,1,0.40,1.64,10.40,7,0.013,8.21
1.0328,0.07679,0.05934,0.22166,0.00000,0.00000,0.00000,67,0,40,2,65,34,36,8,ok,2,0,0.000,1,0.40,1.64,10.40,7,0.026,8.21
1.0454,0.07679,0.05934,0.22166,0.00000,0.00000,0.00000,66,-2,42,1,65,35,37,8,ok,2,0,0.000,1,0.40,1.64,10.40,7,0.039,8.21
1.0657,0.07679,0.05934,0.22166,0.00000,0.00000,0.00000,65,-3,43,1,65,36,38,7,ok,2,0,0.000,1,0.40,1.64,10.40,7,0.051,8.21
1.0707,0.07679,0.05934,0.22166,0.00000,0.00000,0.00000,63,-4,44,1,67,36,39,7,ok,2,0,0.000,1,0.40,1.64,10.40,7,0.064,8.21
1.0830,0.07679,0.05934,0.22166,0.00000,0.00000,0.00000,62,-5,45,2,68,33,41,6,ok,2,0,0.000,1,0.40,1.64,10.40,7,0.076,8.21
1.1057,0.07679,0.05934,0.22166,0.00000,0.00000,0.00000,61,-7,46,1,70,29,42,6,ok,2,0,0.000,1,0.40,1.64,10.40,7,0.089,8.21
1.1088,0.07679,0.05934,0.22166,0.00000,0.00000,0.00000,58,-8,48,3,71,24,43,6,ok,2,0,0.000,1,0.40,1.64,10.40,7,0.102,8.21
1.1215,0.07679,0.05934,0.22166,0.00000,0.00000,0.00000,56,-9,49,3,73,22,44,6,ok,2,0,0.000,1,0.40,1.64,10.40,7,0.115,8.21
1.1417,0.07679,0.05934,0.22166,0.00000,0.00000,0.00000,54,-9,49,3,74,21,45,6,ok,2,0,0.000,1,0.40,1.64,10.40,7,0.127,8.21
1.1466,0.07679,0.05934,0.22166,0.00000,0.00000,0.00000,52,-11,49,5,74,19,46,6,ok,2,0,0.000,1,0.40,1.64,10.40,7,0.139,8.21
1.1590,0.07679,0.05934,0.22166,0.00000,0.00000,0.00000,49,-11,51,6,74,15,47,7,ok,2,0,0.000,1,0.40,1.64,10.40,7,0.152,8.21
1.1817,0.07679,0.05934,0.22166,0.00000,0.00000,0.00000,46,-11,52,6,73,12,48,7,ok,2,0,0.000,1,0.40,1.64,10.40,7,0.165,8.21
1.1850,0.07679,0.05934,0.22166,0.00000,0.00000,0.00000,44,-11,53,6,72,10,49,7,ok,2,0,0.000,1,0.40,1.64,10.40,7,0.178,8.21
1.1975,0.07679,0.05934,0.22166,0.00000,0.00000,0.00000,41,-11,53,7,72,7,49,8,ok,2,0,0.000,1,0.40,1.64,10.40,7,0.191,8.21
1.2177,0.08029,-0.01571,0.20944,0.00000,0.00000,0.00000,38,-11,55,7,72,5,50,7,ok,2,0,0.000,1,-0.27,1.15,10.02,8,0.000,8.21
1.2225,0.08029,-0.01571,0.20944,0.00000,0.00000,0.00000,36,-10,56,7,71,4,51,8,ok,2,0,0.000,1,-0.27,1.15,10.02,8,0.012,8.21
1.2349,0.08029,-0.01571,0.20944,0.00000,0.00000,0.00000,32,-9,57,7,69,2,52,7,ok,2,0,0.000,1,-0.27,1.15,10.02,8,0.025,8.21
1.2577,0.08029,-0.01571,0.20944,0.00000,0.00000,0.00000,30,-8,57,8,66,2,52,8,ok,2,0,0.000,1,-0.27,1.15,10.02,8,0.038,8.21
1.2608,0.08029,-0.01571,0.20944,0.00000,0.00000,0.00000,26,-6,58,7,65,0,53,8,ok,2,0,0.000,1,-0.27,1.15,10.02,8,0.051,8.21
1.2735,0.08029,-0.01571,0.20944,0.00000,0.00000,0.00000,23,-4,59,8,63,-2,54,8,ok,2,0,0.000,1,-0.27,1.15,10.02,8,0.064,8.21
1.2937,0.08029,-0.01571,0.20944,0.00000,0.00000,0.00000,20,-2,60,9,61,-3,55,8,ok,2,0,0.000,1,-0.27,1.15,10.02,8,0.076,8.21
1.2987,0.08029,-0.01571,0.20944,0.00000,0.00000,0.00000,19,-1,60,10,60,-5,55,7,ok,2,0,0.000,1,-0.27,1.15,10.02,8,0.088,8.21
1.3110,0.08029,-0.01571,0.20944,0.00000,0.00000,0.00000,18,0,61,10,58,-5,57,5,ok,2,0,0.000,1,-0.27,1.15,10.02,8,0.101,8.21
1.3338,0.08029,-0.01571,0.20944,0.00000,0.00000,0.00000,16,2,61,11,55,-6,57,7,ok,2,0,0.000,1,-0.27,1.15,10.02,8,0.114,8.21
1.3368,0.08029,-0.01571,0.20944,0.00000,0.00000,0.00000,15,5,61,10,54,-7,58,7,ok,2,0,0.000,1,-0.27,1.15,10.02,8,0.127,8.21
1.3497,0.08029,-0.01571,0.20944,0.00000,0.00000,0.00000,13,9,61,12,51,-6,59,8,ok,0,0,0.000,1,-0.27,1.15,10.02,8,0.140,8.21
1.3697,0.08029,-0.01571,0.20944,0.00000,0.00000,0.00000,12,11,62,12,48,-5,59,8,ok,0,0,0.000,1,-0.27,1.15,10.02,8,0.152,8.21
1.3746,0.08029,-0.01571,0.20944,0.00000,0.00000,0.00000,14,11,62,13,45,-5,60,9,ok,0,0,0.000,1,-0.27,1.15,10.02,8,0.165,8.21
1.3870,0.08029,-0.01571,0.20944,0.00000,0.00000,0.00000,14,11,62,13,42,-5,60,10,ok,4,0,0.000,1,-0.27,1.15,10.02,8,0.177,8.21
1.4098,0.08029,-0.01571,0.20944,0.00000,0.00000,0.00000,16,10,62,14,40,-4,60,10,ok,4,0,0.000,1,-0.27,1.15,10.02,8,0.190,8.21
1.4130,0.02443,0.01571,0.22166,0.00000,0.00000,0.00000,18,9,62,14,37,-3,61,11,ok,4,0,0.000,1,0.93,-0.73,10.62,9,0.000,8.21
1.4255,0.02443,0.01571,0.22166,0.00000,0.00000,0.00000,18,8,63,15,34,-3,61,12,ok,4,0,0.000,1,0.93,-0.73,10.62,9,0.013,8.21
1.4457,0.02443,0.01571,0.22166,0.00000,0.00000,0.00000,20,7,63,16,31,-1,61,13,ok,4,0,0.000,1,0.93,-0.73,10.62,9,0.025,8.21
1.4507,0.02443,0.01571,0.22166,0.00000,0.00000,0.00000,21,7,63,17,29,0,62,14,ok,4,0,0.000,1,0.93,-0.73,10.62,9,0.038,8.21
1.4630,0.02443,0.01571,0.22166,0.00000,0.00000,0.00000,23,6,64,18,27,1,62,14,ok,4,0,0.000,1,0.93,-0.73,10.62,9,0.050,8.21
1.4857,0.02443,0.01571,0.22166,0.00000,0.00000,0.00000,24,5,64,20,25,5,63,15,ok,4,0,0.000,1,0.93,-0.73,10.62,9,0.063,8.21
1.4888,0.02443,0.01571,0.22166,0.00000,0.00000,0.00000,24,4,64,21,24,8,63,16,ok,4,0,0.000,1,0.93,-0.73,10.62,9,0.076,8.21
1.5015,0.02443,0.01571,0.22166,0.00000,0.00000,0.00000,26,4,64,22,23,11,63,17,ok,4,0,0.000,1,0.93,-0.73,10.62,9,0.089,8.21
1.5217,0.02443,0.01571,0.22166,0.00000,0.00000,0.00000,26,3,64,23,22,14,64,17,ok,4,0,0.000,1,0.93,-0.73,10.62,9,0.101,8.21
1.5265,0.02443,0.01571,0.22166,0.00000,0.00000,0.00000,28,3,63,26,24,14,64,18,ok,4,0,0.000,1,0.93,-0.73,10.62,9,0.114,8.21
1.5390,0.02443,0.01571,0.22166,0.00000,0.00000,0.00000,28,2,63,27,24,14,64,19,ok,4,0,0.000,1,0.93,-0.73,10.62,9,0.126,8.21
1.5617,0.02443,0.01571,0.22166,0.00000,0.00000,0.00000,30,2,65,26,25,12,64,20,ok,4,0,0.000,2,0.93,-0.73,10.62,9,0.139,8.21
1.5648,0.02443,0.01571,0.22166,0.00000,0.00000,0.00000,31,2,67,22,26,11,65,21,ok,4,0,0.000,2,0.93,-0.73,10.62,9,0.152,8.21
1.5775,0.02443,0.01571,0.22166,0.00000,0.00000,0.00000,32,1,69,19,27,11,65,22,ok,4,0,0.000,2,0.93,-0.73,10.62,9,0.165,8.21
1.5978,0.02443,0.01571,0.22166,0.00000,0.00000,0.00000,34,1,70,15,29,10,64,23,ok,4,0,0.000,2,0.93,-0.73,10.62,9,0.177,8.21
1.6025,0.02443,0.01571,0.22166,0.00000,0.00000,0.00000,35,1,71,12,30,9,64,25,ok,4,0,0.000,2,0.93,-0.73,10.62,9,0.190,8.21
1.6152,0.02443,0.01571,0.22166,0.00000,0.00000,0.00000,37,2,71,12,32,9,65,26,ok,4,0,0.000,2,0.93,-0.73,10.62,9,0.202,8.21
1.6377,0.00349,0.04712,0.24609,0.00000,0.00000,0.00000,38,2,70,8,33,9,64,28,ok,4,0,0.000,2,-0.82,-0.53,8.09,10,0.000,8.21
1.6409,0.00349,0.04712,0.24609,0.00000,0.00000,0.00000,40,3,70,6,35,9,64,29,ok,4,0,0.000,2,-0.82,-0.53,8.09,10,0.013,8.21
1.6535,0.00349,0.04712,0.24609,0.00000,0.00000,0.00000,41,3,69,3,36,8,64,31,ok,4,0,0.000,2,-0.82,-0.53,8.09,10,0.026,8.21
1.6737,0.00349,0.04712,0.24609,0.00000,0.00000,0.00000,43,2,68,0,37,9,64,32,ok,4,0,0.000,2,-0.82,-0.53,8.09,10,0.039,8.21
1.6787,0.00349,0.04712,0.24609,0.00000,0.00000,0.00000,44,2,66,-2,38,8,64,34,ok,4,0,0.000,2,-0.82,-0.53,8.09,10,0.051,8.21
1.6909,0.00349,0.04712,0.24609,0.00000,0.00000,0.00000,45,2,64,-3,39,8,63,35,ok,4,0,0.000,2,-0.82,-0.53,8.09,10,0.064,8.21
1.7137,0.00349,0.04712,0.24609,0.00000,0.00000,0.00000,45,2,62,-4,40,7,64,35,ok,4,0,0.000,2,-0.82,-0.53,8.09,10,0.076,8.21
1.7168,0.00349,0.04712,0.24609,0.00000,0.00000,0.00000,46,3,61,-5,42,7,65,34,ok,4,0,0.000,2,-0.82,-0.53,8.09,10,0.089,8.21
1.7294,0.00349,0.04712,0.24609,0.00000,0.00000,0.00000,47,3,60,-8,43,7,67,32,ok,4,0,0.000,2,-0.82,-0.53,8.09,10,0.102,8.21
1.7497,0.00349,0.04712,0.24609,0.00000,0.00000,0.00000,49,3,58,-8,44,7,69,27,ok,4,0,0.000,2,-0.82,-0.53,8.09,10,0.115,8.21
1.7547,0.00349,0.04712,0.24609,0.00000,0.00000,0.00000,50,3,55,-9,45,7,71,23,ok,4,0,0.000,2,-0.82,-0.53,8.09,10,0.127,8.21
1.7669,0.00349,0.04712,0.24609,0.00000,0.00000,0.00000,50,3,53,-9,46,7,72,20,ok,4,0,0.000,2,-0.82,-0.53,8.09,10,0.140,8.21
1.7897,0.00349,0.04712,0.24609,0.00000,0.00000,0.00000,50,5,51,-10,47,7,72,20,ok,4,0,0.000,2,-0.82,-0.53,8.09,10,0.152,8.21
1.7928,0.00349,0.04712,0.24609,0.00000,0.00000,0.00000,52,6,49,-10,47,8,73,18,ok,4,0,0.000,2,-0.82,-0.53,8.09,10,0.165,8.21
1.8057,0.00349,0.04712,0.24609,0.00000,0.00000,0.00000,52,5,46,-10,48,8,73,14,ok,4,0,0.000,2,-0.82,-0.53,8.09,10,0.178,8.21
1.8257,-0.06458,-0.01571,0.27402,0.00000,0.00000,0.00000,53,6,44,-10,49,8,72,12,ok,4,0,0.001,2,-1.22,-0.24,10.52,11,0.000,8.21
1.8305,-0.06458,-0.01571,0.27402,0.00000,0.00000,0.00000,54,6,41,-10,49,7,72,10,ok,4,0,0.001,2,-1.22,-0.24,10.52,11,0.013,8.21
1.8430,-0.06458,-0.01571,0.27402,0.00000,0.00000,0.00000,56,7,39,-10,50,8,71,7,ok,2,0,0.001,2,-1.22,-0.24,10.52,11,0.025,8.21
1.8657,-0.06458,-0.01571,0.27402,0.00000,0.00000,0.00000,56,6,37,-9,51,7,71,5,ok,2,0,0.001,2,-1.22,-0.24,10.52,11,0.038,8.21
1.8688,-0.06458,-0.01571,0.27402,0.00000,0.00000,0.00000,57,7,33,-8,51,7,70,3,ok,2,0,0.001,2,-1.22,-0.24,10.52,11,0.051,8.21
1.8815,-0.06458,-0.01571,0.27402,0.00000,0.00000,0.00000,58,7,31,-7,52,8,68,1,ok,2,0,0.001,2,-1.22,-0.24,10.52,11,0.063,8.21
1.9017,-0.06458,-0.01571,0.27402,0.00000,0.00000,0.00000,58,7,27,-6,53,8,66,1,ok,2,0,0.001,2,-1.22,-0.24,10.52,11,0.076,8.21
1.9066,-0.06458,-0.01571,0.27402,0.00000,0.00000,0.00000,59,8,25,-4,54,8,65,-1,ok,2,0,0.001,2,-1.22,-0.24,10.52,11,0.088,8.21
1.9189,-0.06458,-0.01571,0.27402,0.00000,0.00000,0.00000,60,9,21,-2,55,8,64,-2,ok,2,0,0.001,2,-1.22,-0.24,10.52,11,0.101,8.21
1.9417,-0.06458,-0.01571,0.27402,0.00000,0.00000,0.00000,60,9,19,-1,57,6,62,-3,ok,2,0,0.001,2,-1.22,-0.24,10.52,11,0.113,8.21
1.9449,-0.06458,-0.01571,0.27402,0.00000,0.00000,0.00000,61,9,19,1,58,8,60,-5,ok,2,0,0.001,2,-1.22,-0.24,10.52,11,0.127,8.21
1.9576,-0.06458,-0.01571,0.27402,0.00000,0.00000,0.00000,61,10,17,3,58,8,58,-5,ok,2,0,0.001,2,-1.22,-0.24,10.52,11,0.139,8.21
1.9777,-0.06458,-0.01571,0.27402,0.00000,0.00000,0.00000,62,11,15,6,59,9,55,-6,ok,2,0,0.001,2,-1.22,-0.24,10.52,11,0.152,8.21
1.9825,-0.06458,-0.01571,0.27402,0.00000,0.00000,0.00000,62,12,14,9,59,9,53,-6,ok,2,0,0.001,2,-1.22,-0.24,10.52,11,0.164,8.21
1.9949,-0.06458,-0.01571,0.27402,0.00000,0.00000,0.00000,62,12,13,12,60,10,50,-5,ok,2,0,0.001,2,-1.22,-0.24,10.52,11,0.177,8.21
2.0177,-0.06458,-0.01571,0.27402,0.00000,0.00000,0.00000,62,13,15,12,60,10,48,-5,ok,2,0,0.001,2,-1.22,-0.24,10.52,11,0.189,8.21
2.0211,0.01745,0.04538,0.27576,0.00000,0.00000,0.00000,62,14,16,11,60,11,46,-5,ok,2,0,0.001,2,0.53,1.10,8.97,12,0.000,8.21
2.0338,0.01745,0.04538,0.27576,0.00000,0.00000,0.00000,62,14,17,10,61,11,42,-4,ok,2,0,0.001,2,0.53,1.10,8.97,12,0.013,8.21
2.0537,0.01745,0.04538,0.27576,0.00000,0.00000,0.00000,62,15,19,9,61,12,40,-5,ok,2,0,0.001,2,0.53,1.10,8.97,12,0.025,8.21
2.0585,0.01745,0.04538,0.27576,0.00000,0.00000,0.00000,63,16,19,9,61,13,36,-3,ok,2,0,0.001,2,0.53,1.10,8.97,12,0.038,8.21
2.0711,0.01745,0.04538,0.27576,0.00000,0.00000,0.00000,63,17,21,7,62,13,34,-3,ok,2,0,0.001,2,0.53,1.10,8.97,12,0.050,8.21
2.0937,0.01745,0.04538,0.27576,0.00000,0.00000,0.00000,63,18,21,7,62,14,30,-1,ok,2,0,0.001,2,0.53,1.10,8.97,12,0.063,8.21
2.0968,0.01745,0.04538,0.27576,0.00000,0.00000,0.00000,65,19,23,6,63,14,29,0,ok,2,0,0.001,2,0.53,1.10,8.97,12,0.076,8.21
2.1095,0.01745,0.04538,0.27576,0.00000,0.00000,0.00000,64,21,24,5,63,16,27,1,ok,2,0,0.001,2,0.53,1.10,8.97,12,0.089,8.21
2.1297,0.01745,0.04538,0.27576,0.00000,0.00000,0.00000,65,21,24,4,63,16,25,4,ok,2,0,0.001,2,0.53,1.10,8.97,12,0.101,8.21
2.1345,0.01745,0.04538,0.27576,0.00000,0.00000,0.00000,65,23,25,4,63,17,24,7,ok,2,0,0.001,2,0.53,1.10,8.97,12,0.114,8.21
2.1469,0.01745,0.04538,0.27576,0.00000,0.00000,0.00000,65,23,26,3,64,18,23,10,ok,2,0,0.001,2,0.53,1.10,8.97,12,0.126,8.21
2.1697,0.01745,0.04538,0.27576,0.00000,0.00000,0.00000,64,26,27,3,64,19,22,12,ok,2,0,0.001,2,0.53,1.10,8.97,12,0.139,8.21
2.1729,0.01745,0.04538,0.27576,0.00000,0.00000,0.00000,64,26,28,2,64,20,25,12,ok,2,0,0.001,2,0.53,1.10,8.97,12,0.152,8.21
2.1857,0.01745,0.04538,0.27576,0.00000,0.00000,0.00000,65,25,29,2,64,21,25,11,ok,2,0,0.001,2,0.53,1.10,8.97,12,0.165,8.21
2.2057,0.01745,0.04538,0.27576,0.00000,0.00000,0.00000,67,21,30,2,65,22,26,10,ok,2,0,0.001,2,0.53,1.10,8.97,12,0.177,8.21
2.2105,0.01745,0.04538,0.27576,0.00000,0.00000,0.00000,70,18,31,1,64,24,27,9,ok,2,0,0.001,2,0.53,1.10,8.97,12,0.190,8.21
2.2232,-0.00349,0.06632,0.33161,0.00000,0.00000,0.00000,70,13,33,2,64,25,28,10,ok,2,0,0.001,2,0.54,-0.89,8.19,13,0.000,8.21
2.2457,-0.00349,0.06632,0.33161,0.00000,0.00000,0.00000,71,11,34,2,65,26,29,9,ok,2,0,0.001,2,0.54,-0.89,8.19,13,0.013,8.21
2.2490,-0.00349,0.06632,0.33161,0.00000,0.00000,0.00000,70,11,36,2,64,28,30,8,ok,2,0,0.001,2,0.54,-0.89,8.19,13,0.026,8.21
2.2615,-0.00349,0.06632,0.33161,0.00000,0.00000,0.00000,70,7,37,2,64,29,32,8,ok,2,0,0.001,2,0.54,-0.89,8.19,13,0.039,8.21
2.2817,-0.00349,0.06632,0.33161,0.00000,0.00000,0.00000,69,5,39,3,64,30,33,9,ok,2,0,0.001,2,0.54,-0.89,8.19,13,0.051,8.21
2.2865,-0.00349,0.06632,0.33161,0.00000,0.00000,0.00000,69,2,40,3,64,32,35,8,ok,2,0,0.001,2,0.54,-0.89,8.19,13,0.064,8.21
2.2992,-0.00349,0.06632,0.33161,0.00000,0.00000,0.00000,68,-1,41,3,64,34,36,8,ok,2,0,0.001,2,0.54,-0.89,8.19,13,0.076,8.21
2.3217,-0.00349,0.06632,0.33161,0.00000,0.00000,0.00000,67,-3,43,3,64,35,37,8,ok,2,0,0.001,2,0.54,-0.89,8.19,13,0.089,8.21
2.3248,-0.00349,0.06632,0.33161,0.00000,0.00000,0.00000,65,-4,44,3,64,36,38,8,ok,2,0,0.001,2,0.54,-0.89,8.19,13,0.102,8.21
2.3375,-0.00349,0.06632,0.33161,0.00000,0.00000,0.00000,63,-5,44,3,65,35,39,7,ok,2,0,0.001,2,0.54,-0.89,8.19,13,0.115,8.21
2.3577,-0.00349,0.06632,0.33161,0.00000,0.00000,0.00000,62,-6,45,3,67,33,41,7,ok,2,0,0.001,2,0.54,-0.89,8.19,13,0.127,8.21
2.3627,-0.00349,0.06632,0.33161,0.00000,0.00000,0.00000,61,-8,46,3,69,29,42,7,ok,2,0,0.001,2,0.54,-0.89,8.19,13,0.140,8.21
2.3750,-0.00349,0.06632,0.33161,0.00000,0.00000,0.00000,58,-9,48,4,71,24,43,7,ok,2,0,0.001,2,0.54,-0.89,8.19,13,0.152,8.21
2.3978,-0.00349,0.06632,0.33161,0.00000,0.00000,0.00000,56,-10,49,4,73,22,44,7,ok,2,0,0.001,2,0.54,-0.89,8.19,13,0.165,8.21
2.4009,-0.00349,0.06632,0.33161,0.00000,0.00000,0.00000,54,-10,49,4,74,21,45,7,ok,2,0,0.001,2,0.54,-0.89,8.19,13,0.178,8.21
2.4135,-0.00349,0.06632,0.33161,0.00000,0.00000,0.00000,52,-11,49,6,74,19,46,7,ok,2,0,0.001,2,0.54,-0.89,8.19,13,0.191,8.21
2.4337,-0.00349,0.06632,0.33161,0.00000,0.00000,0.00000,49,-11,51,6,74,15,47,7,ok,2,0,0.001,2,0.54,-0.89,8.19,13,0.203,8.21
2.4388,0.09076,0.02967,0.31416,0.00000,0.00000,0.00000,46,-11,52,6,73,12,48,7,ok,2,0,0.001,2,-0.39,1.02,10.73,14,0.000,8.21
2.4510,0.09076,0.02967,0.31416,0.00000,0.00000,0.00000,44,-11,53,6,73,10,49,8,ok,2,0,0.001,2,-0.39,1.02,10.73,14,0.013,8.21
2.4737,0.09076,0.02967,0.31416,0.00000,0.00000,0.00000,41,-11,53,7,72,7,49,8,ok,2,0,0.001,2,-0.39,1.02,10.73,14,0.025,8.21
2.4768,0.09076,0.02967,0.31416,0.00000,0.00000,0.00000,38,-11,55,7,72,5,50,7,ok,2,0,0.001,2,-0.39,1.02,10.73,14,0.038,8.21
2.4895,0.09076,0.02967,0.31416,0.00000,0.00000,0.00000,36,-10,56,6,71,4,51,8,ok,2,0,0.001,2,-0.39,1.02,10.73,14,0.051,8.21
2.5097,0.09076,0.02967,0.31416,0.00000,0.00000,0.00000,32,-8,57,6,69,2,52,7,ok,2,0,0.001,2,-0.39,1.02,10.73,14,0.063,8.21
2.5145,0.09076,0.02967,0.31416,0.00000,0.00000,0.00000,30,-7,57,7,66,2,52,8,ok,2,0,0.001,2,-0.39,1.02,10.73,14,0.076,8.21
2.5270,0.09076,0.02967,0.31416,0.00000,0.00000,0.00000,26,-5,58,7,65,0,53,8,ok,2,0,0.001,2,-0.39,1.02,10.73,14,0.088,8.21
2.5537,0.09076,0.02967,0.31416,0.00000,0.00000,0.00000,24,-4,59,7,64,-2,54,8,ok,2,0,0.001,2,-0.39,1.02,10.73,14,0.101,8.21
2.5570,0.09076,0.02967,0.31416,0.00000,0.00000,0.00000,20,-1,59,9,61,-4,55,8,ok,0,0,0.001,3,-0.39,1.02,10.73,14,0.118,8.21
2.5695,0.09076,0.02967,0.31416,0.00000,0.00000,0.00000,19,-1,60,10,60,-5,55,7,ok,0,0,0.001,3,-0.39,1.02,10.73,14,0.131,8.21
2.5897,0.09076,0.02967,0.31416,0.00000,0.00000,0.00000,18,0,61,10,58,-5,57,5,ok,0,0,0.001,3,-0.39,1.02,10.73,14,0.143,8.21
2.5945,0.09076,0.02967,0.31416,0.00000,0.00000,0.00000,16,2,61,11,55,-6,57,7,ok,0,0,0.001,3,-0.39,1.02,10.73,14,0.156,8.21
2.6083,0.09076,0.02967,0.31416,0.00000,0.00000,0.00000,14,5,61,11,54,-7,58,7,ok,0,0,0.001,3,-0.39,1.02,10.73,14,0.169,8.21
2.6298,0.09076,0.02967,0.31416,0.00000,0.00000,0.00000,13,8,61,12,51,-6,59,8,ok,0,0,0.001,3,-0.39,1.02,10.73,14,0.181,8.21
2.6330,0.09076,0.02967,0.31416,0.00000,0.00000,0.00000,12,10,62,12,48,-5,59,8,ok,0,0,0.001,3,-0.39,1.02,10.73,14,0.194,8.21
2.6458,0.07156,-0.02269,0.33685,0.00000,0.00000,0.00000,13,11,62,13,46,-5,60,9,ok,0,0,0.001,3,0.16,-0.01,9.10,15,0.000,8.21
2.6657,0.07156,-0.02269,0.33685,0.00000,0.00000,0.00000,14,10,61,14,43,-5,60,10,ok,0,0,0.001,3,0.16,-0.01,9.10,15,0.013,8.21
2.6705,0.07156,-0.02269,0.33685,0.00000,0.00000,0.00000,16,9,62,14,40,-4,61,10,ok,0,0,0.001,3,0.16,-0.01,9.10,15,0.025,8.21
2.6830,0.07156,-0.02269,0.33685,0.00000,0.00000,0.00000,17,9,62,14,37,-3,61,11,ok,0,0,0.001,3,0.16,-0.01,9.10,15,0.038,8.21
2.7058,0.07156,-0.02269,0.33685,0.00000,0.00000,0.00000,18,8,63,15,34,-3,61,12,ok,0,0,0.001,3,0.16,-0.01,9.10,15,0.050,8.21
2.7089,0.07156,-0.02269,0.33685,0.00000,0.00000,0.00000,20,7,63,16,31,-1,61,12,ok,0,0,0.001,3,0.16,-0.01,9.10,15,0.063,8.21
2.7218,0.07156,-0.02269,0.33685,0.00000,0.00000,0.00000,21,7,63,17,29,0,62,13,ok,0,0,0.001,3,0.16,-0.01,9.10,15,0.076,8.21
2.7417,0.07156,-0.02269,0.33685,0.00000,0.00000,0.00000,23,6,65,18,27,2,62,14,ok,0,0,0.001,3,0.16,-0.01,9.10,15,0.088,8.21
2.7466,0.07156,-0.02269,0.33685,0.00000,0.00000,0.00000,24,5,65,19,25,5,63,15,ok,0,0,0.001,3,0.16,-0.01,9.10,15,0.101,8.21
2.7590,0.07156,-0.02269,0.33685,0.00000,0.00000,0.00000,25,4,65,20,24,8,63,16,ok,0,0,0.001,3,0.16,-0.01,9.10,15,0.114,8.21
2.7817,0.07156,-0.02269,0.33685,0.00000,0.00000,0.00000,26,4,65,21,23,11,63,17,ok,0,0,0.001,3,0.16,-0.01,9.10,15,0.126,8.21
2.7849,0.07156,-0.02269,0.33685,0.00000,0.00000,0.00000,27,4,65,22,22,14,64,17,ok,0,0,0.001,3,0.16,-0.01,9.10,15,0.139,8.21
2.7975,0.07156,-0.02269,0.33685,0.00000,0.00000,0.00000,28,3,64,25,24,14,64,18,ok,0,0,0.001,3,0.16,-0.01,9.10,15,0.152,8.21
2.8177,0.07156,-0.02269,0.33685,0.00000,0.00000,0.00000,29,3,64,27,24,14,64,19,ok,0,0,0.001,3,0.16,-0.01,9.10,15,0.164,8.21
2.8226,0.07156,-0.02269,0.33685,0.00000,0.00000,0.00000,30,2,65,25,25,12,64,20,ok,0,0,0.001,3,0.16,-0.01,9.10,15,0.177,8.21
2.8352,0.02094,0.11868,0.32114,0.00000,0.00000,0.00000,31,2,67,22,26,11,64,21,ok,0,0,0.001,3,1.13,0.52,9.65,16,0.000,8.21
2.8577,0.02094,0.11868,0.32114,0.00000,0.00000,0.00000,32,1,70,19,27,11,65,22,ok,0,0,0.001,3,1.13,0.52,9.65,16,0.013,8.21
2.8608,0.02094,0.11868,0.32114,0.00000,0.00000,0.00000,34,1,71,15,28,10,64,23,ok,0,0,0.001,3,1.13,0.52,9.65,16,0.026,8.21
2.8737,0.02094,0.11868,0.32114,0.00000,0.00000,0.00000,35,1,71,13,29,9,64,25,ok,0,0,0.001,3,1.13,0.52,9.65,16,0.038,8.21
2.8937,0.02094,0.11868,0.32114,0.00000,0.00000,0.00000,37,1,70,12,32,9,65,26,ok,0,0,0.001,3,1.13,0.52,9.65,16,0.051,8.21
2.8985,0.02094,0.11868,0.32114,0.00000,0.00000,0.00000,38,1,70,9,32,9,64,28,ok,0,0,0.001,3,1.13,0.52,9.65,16,0.063,8.21
2.9111,0.02094,0.11868,0.32114,0.00000,0.00000,0.00000,39,2,69,6,35,9,63,29,ok,0,0,0.001,3,1.13,0.52,9.65,16,0.076,8.21
2.9337,0.02094,0.11868,0.32114,0.00000,0.00000,0.00000,40,1,68,4,36,8,64,31,ok,0,0,0.001,3,1.13,0.52,9.65,16,0.088,8.21
2.9370,0.02094,0.11868,0.32114,0.00000,0.00000,0.00000,42,1,67,1,37,9,64,32,ok,0,0,0.001,3,1.13,0.52,9.65,16,0.102,8.21
2.9495,0.02094,0.11868,0.32114,0.00000,0.00000,0.00000,43,1,66,-1,38,8,64,34,ok,0,0,0.001,3,1.13,0.52,9.65,16,0.114,8.21
2.9697,0.02094,0.11868,0.32114,0.00000,0.00000,0.00000,44,1,64,-2,39,8,64,35,ok,0,0,0.001,3,1.13,0.52,9.65,16,0.127,8.21
2.9746,0.02094,0.11868,0.32114,0.00000,0.00000,0.00000,44,2,62,-4,41,7,65,35,ok,0,0,0.001,3,1.13,0.52,9.65,16,0.139,8.21
2.9870,0.02094,0.11868,0.32114,0.00000,0.00000,0.00000,45,2,61,-6,42,7,66,34,ok,0,0,0.001,3,1.13,0.52,9.65,16,0.152,8.21
3.0097,0.02094,0.11868,0.32114,0.00000,0.00000,0.00000,47,2,60,-8,43,7,68,32,ok,0,0,0.001,3,1.13,0.52,9.65,16,0.164,8.21
3.0128,0.02094,0.11868,0.32114,0.00000,0.00000,0.00000,48,3,57,-8,44,7,70,26,ok,0,0,0.001,3,1.13,0.52,9.65,16,0.178,8.21
3.0255,0.02094,0.11868,0.32114,0.00000,0.00000,0.00000,49,3,55,-9,45,7,71,23,ok,0,0,0.001,3,1.13,0.52,9.65,16,0.190,8.21
3.0457,0.02094,0.11868,0.32114,0.00000,0.00000,0.00000,50,2,53,-9,46,7,73,20,ok,0,0,0.001,3,1.13,0.52,9.65,16,0.203,8.21
3.0507,-0.13265,0.01745,0.36826,0.00000,0.00000,0.00000,50,5,51,-10,47,7,73,20,ok,0,0,0.001,3,-0.39,-0.84,10.84,17,0.000,8.21
3.0630,-0.13265,0.01745,0.36826,0.00000,0.00000,0.00000,51,5,48,-10,48,7,74,18,ok,0,0,0.001,3,-0.39,-0.84,10.84,17,0.013,8.21
3.0857,-0.13265,0.01745,0.36826,0.00000,0.00000,0.00000,52,4,46,-10,49,7,74,14,ok,2,0,0.001,3,-0.39,-0.84,10.84,17,0.025,8.21
3.0888,-0.13265,0.01745,0.36826,0.00000,0.00000,0.00000,53,5,44,-10,49,7,73,12,ok,2,0,0.001,3,-0.39,-0.84,10.84,17,0.038,8.21
3.1018,-0.13265,0.01745,0.36826,0.00000,0.00000,0.00000,53,5,41,-10,49,7,73,10,ok,2,0,0.001,3,-0.39,-0.84,10.84,17,0.051,8.21
3.1217,-0.13265,0.01745,0.36826,0.00000,0.00000,0.00000,56,6,39,-10,50,8,72,7,ok,2,0,0.001,3,-0.39,-0.84,10.84,17,0.064,8.21
3.1265,-0.13265,0.01745,0.36826,0.00000,0.00000,0.00000,56,6,36,-9,51,7,72,5,ok,2,0,0.001,3,-0.39,-0.84,10.84,17,0.076,8.21
3.1390,-0.13265,0.01745,0.36826,0.00000,0.00000,0.00000,57,6,33,-8,52,7,70,4,ok,2,0,0.001,3,-0.39,-0.84,10.84,17,0.089,8.21
3.1617,-0.13265,0.01745,0.36826,0.00000,0.00000,0.00000,58,7,31,-7,53,8,68,2,ok,2,0,0.001,3,-0.39,-0.84,10.84,17,0.101,8.21
3.1648,-0.13265,0.01745,0.36826,0.00000,0.00000,0.00000,58,7,27,-6,54,8,66,1,ok,2,0,0.001,3,-0.39,-0.84,10.84,17,0.114,8.21
3.1777,-0.13265,0.01745,0.36826,0.00000,0.00000,0.00000,59,8,24,-4,55,8,65,0,ok,2,0,0.001,3,-0.39,-0.84,10.84,17,0.127,8.21
3.1977,-0.13265,0.01745,0.36826,0.00000,0.00000,0.00000,60,9,21,-2,55,8,64,-2,ok,2,0,0.001,3,-0.39,-0.84,10.84,17,0.140,8.21
3.2025,-0.13265,0.01745,0.36826,0.00000,0.00000,0.00000,60,10,19,-1,58,6,62,-3,ok,2,0,0.001,3,-0.39,-0.84,10.84,17,0.152,8.21
3.2150,-0.13265,0.01745,0.36826,0.00000,0.00000,0.00000,61,10,18,1,58,7,60,-4,ok,2,0,0.001,3,-0.39,-0.84,10.84,17,0.165,8.21
3.2377,-0.13265,0.01745,0.36826,0.00000,0.00000,0.00000,61,11,16,3,58,8,58,-5,ok,2,0,0.001,3,-0.39,-0.84,10.84,17,0.177,8.21
3.2410,-0.13265,0.01745,0.36826,0.00000,0.00000,0.00000,61,11,15,6,59,8,55,-6,ok,2,0,0.001,3,-0.39,-0.84,10.84,17,0.190,8.21
3.2539,-0.01920,0.04712,0.36477,0.00000,0.00000,0.00000,61,12,13,9,59,9,54,-6,ok,2,0,0.001,3,0.20,0.25,8.64,18,0.000,8.21
3.2737,-0.01920,0.04712,0.36477,0.00000,0.00000,0.00000,62,12,12,11,60,10,50,-5,ok,2,0,0.001,3,0.20,0.25,8.64,18,0.013,8.21
3.2785,-0.01920,0.04712,0.36477,0.00000,0.00000,0.00000,62,13,14,12,60,10,47,-5,ok,2,0,0.001,3,0.20,0.25,8.64,18,0.025,8.21
3.2910,-0.01920,0.04712,0.36477,0.00000,0.00000,0.00000,61,14,15,11,61,11,45,-5,ok,2,0,0.001,3,0.20,0.25,8.64,18,0.038,8.21
3.3137,-0.01920,0.04712,0.36477,0.00000,0.00000,0.00000,62,14,16,10,61,11,42,-4,ok,2,0,0.001,3,0.20,0.25,8.64,18,0.050,8.21
3.3168,-0.01920,0.04712,0.36477,0.00000,0.00000,0.00000,62,16,19,9,61,12,40,-4,ok,2,0,0.001,3,0.20,0.25,8.64,18,0.063,8.21
3.3297,-0.01920,0.04712,0.36477,0.00000,0.00000,0.00000,63,16,19,8,61,13,37,-3,ok,2,0,0.001,3,0.20,0.25,8.64,18,0.076,8.21
3.3497,-0.01920,0.04712,0.36477,0.00000,0.00000,0.00000,63,17,21,7,62,13,35,-3,ok,2,0,0.001,3,0.20,0.25,8.64,18,0.089,8.21
3.3545,-0.01920,0.04712,0.36477,0.00000,0.00000,0.00000,63,18,21,7,62,14,31,-2,ok,2,0,0.001,3,0.20,0.25,8.64,18,0.101,8.21
3.3670,-0.01920,0.04712,0.36477,0.00000,0.00000,0.00000,64,20,23,6,63,14,30,0,ok,2,0,0.001,3,0.20,0.25,8.64,18,0.114,8.21
3.3897,-0.01920,0.04712,0.36477,0.00000,0.00000,0.00000,64,21,24,5,63,15,28,1,ok,2,0,0.001,3,0.20,0.25,8.64,18,0.126,8.21
3.3928,-0.01920,0.04712,0.36477,0.00000,0.00000,0.00000,65,21,24,4,63,16,26,4,ok,2,0,0.001,3,0.20,0.25,8.64,18,0.139,8.21
3.4057,-0.01920,0.04712,0.36477,0.00000,0.00000,0.00000,65,22,25,4,63,17,24,7,ok,2,0,0.001,3,0.20,0.25,8.64,18,0.152,8.21
3.4257,-0.01920,0.04712,0.36477,0.00000,0.00000,0.00000,65,23,26,3,64,18,23,11,ok,2,0,0.001,3,0.20,0.25,8.64,18,0.165,8.21
3.4306,-0.01920,0.04712,0.36477,0.00000,0.00000,0.00000,64,26,27,3,64,19,23,13,ok,2,0,0.001,3,0.20,0.25,8.64,18,0.177,8.21
3.4430,-0.01920,0.04712,0.36477,0.00000,0.00000,0.00000,64,26,28,2,64,20,25,12,ok,2,0,0.001,3,0.20,0.25,8.64,18,0.190,8.21
3.4657,-0.01745,0.09425,0.44157,0.00000,0.00000,0.00000,65,25,29,2,64,21,25,11,ok,2,0,0.001,3,1.45,-1.54,11.92,19,0.000,8.21
3.4688,-0.01745,0.09425,0.44157,0.00000,0.00000,0.00000,67,22,30,2,65,22,26,10,ok,2,0,0.001,3,1.45,-1.54,11.92,19,0.013,8.21
3.4818,-0.01745,0.09425,0.44157,0.00000,0.00000,0.00000,70,18,31,1,64,23,27,9,ok,2,0,0.001,3,1.45,-1.54,11.92,19,0.026,8.21
3.5017,-0.01745,0.09425,0.44157,0.00000,0.00000,0.00000,70,13,32,2,64,25,28,10,ok,2,0,0.001,3,1.45,-1.54,11.92,19,0.038,8.21
3.5065,-0.01745,0.09425,0.44157,0.00000,0.00000,0.00000,70,11,33,2,65,25,29,9,ok,2,0,0.001,3,1.45,-1.54,11.92,19,0.051,8.21
3.5189,-0.01745,0.09425,0.44157,0.00000,0.00000,0.00000,70,11,35,2,64,28,30,9,ok,2,0,0.001,3,1.45,-1.54,11.92,19,0.064,8.21
3.5417,-0.01745,0.09425,0.44157,0.00000,0.00000,0.00000,70,7,36,2,64,29,32,9,ok,2,0,0.001,3,1.45,-1.54,11.92,19,0.076,8.21
3.5448,-0.01745,0.09425,0.44157,0.00000,0.00000,0.00000,69,5,38,3,64,30,33,9,ok,2,0,0.001,3,1.45,-1.54,11.92,19,0.089,8.21
3.5577,-0.01745,0.09425,0.44157,0.00000,0.00000,0.00000,68,2,39,3,64,32,35,8,ok,2,0,0.001,3,1.45,-1.54,11.92,19,0.102,8.21
3.5777,-0.01745,0.09425,0.44157,0.00000,0.00000,0.00000,67,-1,41,3,64,34,36,8,ok,2,0,0.001,4,1.45,-1.54,11.92,19,0.115,8.21
3.5825,-0.01745,0.09425,0.44157,0.00000,0.00000,0.00000,66,-3,42,2,64,35,37,8,ok,2,0,0.001,4,1.45,-1.54,11.92,19,0.127,8.21
3.5950,-0.01745,0.09425,0.44157,0.00000,0.00000,0.00000,65,-4,44,3,64,36,38,8,ok,2,0,0.001,4,1.45,-1.54,11.92,19,0.140,8.21
3.6177,-0.01745,0.09425,0.44157,0.00000,0.00000,0.00000,63,-5,44,3,66,35,39,7,ok,2,0,0.001,4,1.45,-1.54,11.92,19,0.152,8.21
3.6209,-0.01745,0.09425,0.44157,0.00000,0.00000,0.00000,62,-6,45,3,68,33,41,7,ok,2,0,0.001,4,1.45,-1.54,11.92,19,0.165,8.21
3.6337,-0.01745,0.09425,0.44157,0.00000,0.00000,0.00000,61,-9,46,3,70,29,42,7,ok,2,0,0.001,4,1.45,-1.54,11.92,19,0.178,8.21
3.6537,-0.01745,0.09425,0.44157,0.00000,0.00000,0.00000,58,-9,47,4,71,24,44,7,ok,2,0,0.001,4,1.45,-1.54,11.92,19,0.191,8.21
3.6588,0.07854,0.03491,0.45029,0.00000,0.00000,0.00000,56,-10,49,4,73,22,44,7,ok,2,0,0.001,4,0.19,0.54,9.98,20,0.000,8.21
3.6710,0.07854,0.03491,0.45029,0.00000,0.00000,0.00000,54,-11,49,3,74,21,45,7,ok,2,0,0.001,4,0.19,0.54,9.98,20,0.013,8.21
3.6937,0.07854,0.03491,0.45029,0.00000,0.00000,0.00000,51,-12,49,5,74,19,46,7,ok,2,0,0.001,4,0.19,0.54,9.98,20,0.025,8.21
3.6968,0.07854,0.03491,0.45029,0.00000,0.00000,0.00000,49,-11,51,6,74,15,47,7,ok,2,0,0.001,4,0.19,0.54,9.98,20,0.038,8.21
3.7097,0.07854,0.03491,0.45029,0.00000,0.00000,0.00000,46,-11,52,5,74,12,48,7,ok,2,0,0.001,4,0.19,0.54,9.98,20,0.051,8.21
3.7297,0.07854,0.03491,0.45029,0.00000,0.00000,0.00000,44,-10,53,6,73,10,49,7,ok,2,0,0.001,4,0.19,0.54,9.98,20,0.063,8.21
3.7345,0.07854,0.03491,0.45029,0.00000,0.00000,0.00000,41,-10,53,6,72,7,49,8,ok,2,0,0.001,4,0.19,0.54,9.98,20,0.076,8.21
3.7470,0.07854,0.03491,0.45029,0.00000,0.00000,0.00000,38,-10,55,6,72,5,50,7,ok,2,0,0.001,4,0.19,0.54,9.98,20,0.088,8.21
3.7697,0.07854,0.03491,0.45029,0.00000,0.00000,0.00000,36,-9,56,6,71,4,51,8,ok,2,0,0.001,4,0.19,0.54,9.98,20,0.101,8.21
3.7728,0.07854,0.03491,0.45029,0.00000,0.00000,0.00000,33,-8,57,6,69,1,52,7,ok,2,0,0.001,4,0.19,0.54,9.98,20,0.114,8.21
3.7855,0.07854,0.03491,0.45029,0.00000,0.00000,0.00000,30,-7,57,7,66,2,52,8,ok,2,0,0.001,4,0.19,0.54,9.98,20,0.127,8.21
3.8057,0.07854,0.03491,0.45029,0.00000,0.00000,0.00000,26,-6,58,7,65,0,53,8,ok,2,0,0.001,4,0.19,0.54,9.98,20,0.139,8.21
3.8105,0.07854,0.03491,0.45029,0.00000,0.00000,0.00000,23,-4,58,8,63,-2,54,8,ok,2,0,0.001,4,0.19,0.54,9.98,20,0.152,8.21
3.8229,0.07854,0.03491,0.45029,0.00000,0.00000,0.00000,20,-2,59,9,61,-4,55,8,ok,0,0,0.001,4,0.19,0.54,9.98,20,0.164,8.21
3.8457,0.07854,0.03491,0.45029,0.00000,0.00000,0.00000,19,-2,60,11,60,-5,55,8,ok,0,0,0.001,4,0.19,0.54,9.98,20,0.177,8.21
3.8490,0.07854,0.03491,0.45029,0.00000,0.00000,0.00000,18,-1,61,10,58,-5,57,6,ok,0,0,0.001,4,0.19,0.54,9.98,20,0.190,8.21
3.8618,0.06458,-0.01920,0.47822,0.00000,0.00000,0.00000,16,2,61,11,55,-6,57,7,ok,0,0,0.001,4,0.09,-0.03,9.46,21,0.000,8.21
3.8817,0.06458,-0.01920,0.47822,0.00000,0.00000,0.00000,14,5,61,11,54,-7,58,7,ok,0,0,0.001,4,0.09,-0.03,9.46,21,0.013,8.21
3.8865,0.06458,-0.01920,0.47822,0.00000,0.00000,0.00000,13,8,61,12,51,-6,59,8,ok,0,0,0.001,4,0.09,-0.03,9.46,21,0.025,8.21
3.8990,0.06458,-0.01920,0.47822,0.00000,0.00000,0.00000,12,10,62,12,48,-5,59,8,ok,0,0,0.001,4,0.09,-0.03,9.46,21,0.038,8.21
3.9217,0.06458,-0.01920,0.47822,0.00000,0.00000,0.00000,14,11,62,13,46,-5,60,9,ok,0,0,0.001,4,0.09,-0.03,9.46,21,0.050,8.21
3.9248,0.06458,-0.01920,0.47822,0.00000,0.00000,0.00000,14,11,62,13,43,-5,60,10,ok,0,0,0.001,4,0.09,-0.03,9.46,21,0.063,8.21
3.9377,0.06458,-0.01920,0.47822,0.00000,0.00000,0.00000,16,9,63,14,40,-4,61,10,ok,0,0,0.001,4,0.09,-0.03,9.46,21,0.076,8.21
3.9577,0.06458,-0.01920,0.47822,0.00000,0.00000,0.00000,17,9,62,14,37,-3,61,11,ok,0,0,0.001,4,0.09,-0.03,9.46,21,0.089,8.21
3.9625,0.06458,-0.01920,0.47822,0.00000,0.00000,0.00000,18,8,63,15,34,-3,61,12,ok,0,0,0.001,4,0.09,-0.03,9.46,21,0.101,8.21
3.9750,0.06458,-0.01920,0.47822,0.00000,0.00000,0.00000,20,7,63,15,31,-1,61,13,ok,0,0,0.001,4,0.09,-0.03,9.46,21,0.114,8.21
3.9978,0.06458,-0.01920,0.47822,0.00000,0.00000,0.00000,21,7,63,17,29,0,62,13,ok,0,0,0.001,4,0.09,-0.03,9.46,21,0.126,8.21
4.0010,0.06458,-0.01920,0.47822,0.00000,0.00000,0.00000,23,6,64,18,27,2,62,14,ok,0,0,0.001,4,0.09,-0.03,9.46,21,0.139,8.21
4.0136,0.06458,-0.01920,0.47822,0.00000,0.00000,0.00000,24,5,64,19,25,5,63,15,ok,0,0,0.001,4,0.09,-0.03,9.46,21,0.152,8.21
4.0337,0.06458,-0.01920,0.47822,0.00000,0.00000,0.00000,25,5,64,20,24,8,63,16,ok,0,0,0.001,4,0.09,-0.03,9.46,21,0.165,8.21
4.0385,0.06458,-0.01920,0.47822,0.00000,0.00000,0.00000,26,4,64,22,23,11,63,17,ok,0,0,0.001,4,0.09,-0.03,9.46,21,0.177,8.21
4.0510,0.06458,-0.01920,0.47822,0.00000,0.00000,0.00000,27,4,64,23,22,14,64,17,ok,0,0,0.001,4,0.09,-0.03,9.46,21,0.190,8.21
4.0737,0.01745,0.11170,0.48346,0.00000,0.00000,0.00000,28,3,64,25,24,14,64,18,ok,0,0,0.001,4,1.62,0.80,9.91,22,0.000,8.21
4.0768,0.01745,0.11170,0.48346,0.00000,0.00000,0.00000,29,3,64,27,23,13,64,19,ok,0,0,0.001,4,1.62,0.80,9.91,22,0.013,8.21
4.0897,0.01745,0.11170,0.48346,0.00000,0.00000,0.00000,30,2,65,26,24,11,64,20,ok,0,0,0.001,4,1.62,0.80,9.91,22,0.026,8.21
4.1097,0.01745,0.11170,0.48346,0.00000,0.00000,0.00000,31,2,67,23,26,11,64,21,ok,0,0,0.001,4,1.62,0.80,9.91,22,0.038,8.21
4.1145,0.01745,0.11170,0.48346,0.00000,0.00000,0.00000,32,1,69,19,27,10,65,22,ok,0,0,0.001,4,1.62,0.80,9.91,22,0.051,8.21
4.1270,0.01745,0.11170,0.48346,0.00000,0.00000,0.00000,34,1,70,15,29,10,64,23,ok,0,0,0.001,4,1.62,0.80,9.91,22,0.063,8.21
4.1497,0.01745,0.11170,0.48346,0.00000,0.00000,0.00000,35,1,70,13,30,9,64,25,ok,0,0,0.001,4,1.62,0.80,9.91,22,0.076,8.21
4.1529,0.01745,0.11170,0.48346,0.00000,0.00000,0.00000,36,1,70,12,33,9,65,26,ok,0,0,0.001,4,1.62,0.80,9.91,22,0.089,8.21
4.1657,0.01745,0.11170,0.48346,0.00000,0.00000,0.00000,38,1,70,9,33,9,64,28,ok,0,0,0.001,4,1.62,0.80,9.91,22,0.102,8.21
4.1857,0.01745,0.11170,0.48346,0.00000,0.00000,0.00000,39,1,69,6,35,9,64,30,ok,0,0,0.001,4,1.62,0.80,9.91,22,0.115,8.21
4.1905,0.01745,0.11170,0.48346,0.00000,0.00000,0.00000,40,1,68,3,36,9,64,31,ok,0,0,0.001,4,1.62,0.80,9.91,22,0.127,8.21
4.2032,0.01745,0.11170,0.48346,0.00000,0.00000,0.00000,42,2,67,1,37,9,64,32,ok,0,0,0.001,4,1.62,0.80,9.91,22,0.140,8.21
4.2257,0.01745,0.11170,0.48346,0.00000,0.00000,0.00000,43,1,66,-2,39,8,64,34,ok,0,0,0.001,4,1.62,0.80,9.91,22,0.152,8.21
4.2289,0.01745,0.11170,0.48346,0.00000,0.00000,0.00000,44,2,64,-3,39,8,64,35,ok,0,0,0.001,4,1.62,0.80,9.91,22,0.165,8.21
4.2415,0.01745,0.11170,0.48346,0.00000,0.00000,0.00000,44,2,62,-4,41,7,65,35,ok,0,0,0.001,4,1.62,0.80,9.91,22,0.178,8.21
4.2617,0.01745,0.11170,0.48346,0.00000,0.00000,0.00000,46,2,60,-6,42,7,66,34,ok,0,0,0.001,4,1.62,0.80,9.91,22,0.191,8.21
4.2668,-0.07505,0.03491,0.53407,0.00000,0.00000,0.00000,47,2,60,-8,43,7,68,32,ok,0,0,0.001,4,0.62,-1.08,10.79,23,0.000,8.21
4.2790,-0.07505,0.03491,0.53407,0.00000,0.00000,0.00000,48,3,57,-8,44,7,70,27,ok,0,0,0.001,4,0.62,-1.08,10.79,23,0.013,8.21
4.3017,-0.07505,0.03491,0.53407,0.00000,0.00000,0.00000,50,2,55,-9,45,7,71,23,ok,0,0,0.001,4,0.62,-1.08,10.79,23,0.025,8.21
4.3048,-0.07505,0.03491,0.53407,0.00000,0.00000,0.00000,50,2,53,-9,46,7,73,20,ok,0,0,0.001,4,0.62,-1.08,10.79,23,0.038,8.21
4.3176,-0.07505,0.03491,0.53407,0.00000,0.00000,0.00000,50,4,51,-10,47,7,73,20,ok,0,0,0.001,4,0.62,-1.08,10.79,23,0.051,8.21
4.3377,-0.07505,0.03491,0.53407,0.00000,0.00000,0.00000,51,5,49,-10,47,7,73,18,ok,0,0,0.001,4,0.62,-1.08,10.79,23,0.063,8.21
4.3427,-0.07505,0.03491,0.53407,0.00000,0.00000,0.00000,52,4,46,-10,48,8,73,14,ok,0,0,0.001,4,0.62,-1.08,10.79,23,0.076,8.21
4.3550,-0.07505,0.03491,0.53407,0.00000,0.00000,0.00000,53,5,44,-9,49,8,72,12,ok,0,0,0.001,4,0.62,-1.08,10.79,23,0.088,8.21
4.3777,-0.07505,0.03491,0.53407,0.00000,0.00000,0.00000,53,6,41,-10,50,8,72,10,ok,2,0,0.001,4,0.62,-1.08,10.79,23,0.101,8.21
4.3808,-0.07505,0.03491,0.53407,0.00000,0.00000,0.00000,56,6,39,-10,51,8,71,7,ok,2,0,0.001,4,0.62,-1.08,10.79,23,0.114,8.21
4.3935,-0.07505,0.03491,0.53407,0.00000,0.00000,0.00000,56,6,36,-9,52,7,71,5,ok,2,0,0.001,4,0.62,-1.08,10.79,23,0.127,8.21
4.4138,-0.07505,0.03491,0.53407,0.00000,0.00000,0.00000,57,7,33,-8,52,7,70,4,ok,2,0,0.001,4,0.62,-1.08,10.79,23,0.139,8.21
4.4185,-0.07505,0.03491,0.53407,0.00000,0.00000,0.00000,58,8,30,-7,52,8,68,2,ok,2,0,0.001,4,0.62,-1.08,10.79,23,0.152,8.21
4.4309,-0.07505,0.03491,0.53407,0.00000,0.00000,0.00000,58,8,27,-6,53,8,66,1,ok,2,0,0.001,4,0.62,-1.08,10.79,23,0.164,8.21
4.4537,-0.07505,0.03491,0.53407,0.00000,0.00000,0.00000,59,9,24,-4,54,8,65,-1,ok,2,0,0.001,4,0.62,-1.08,10.79,23,0.177,8.21
4.4568,-0.07505,0.03491,0.53407,0.00000,0.00000,0.00000,60,10,20,-2,55,8,64,-2,ok,2,0,0.001,4,0.62,-1.08,10.79,23,0.190,8.21
4.4698,-0.06981,-0.01396,0.56200,0.00000,0.00000,0.00000,60,10,19,-1,57,6,62,-3,ok,2,0,0.001,4,0.14,-0.24,10.55,24,0.000,8.21
4.4897,-0.06981,-0.01396,0.56200,0.00000,0.00000,0.00000,61,9,18,0,58,8,60,-5,ok,2,0,0.001,4,0.14,-0.24,10.55,24,0.013,8.21
4.4945,-0.06981,-0.01396,0.56200,0.00000,0.00000,0.00000,61,10,16,3,59,8,58,-5,ok,2,0,0.001,4,0.14,-0.24,10.55,24,0.025,8.21
4.5070,-0.06981,-0.01396,0.56200,0.00000,0.00000,0.00000,61,11,15,6,59,9,55,-6,ok,2,0,0.001,4,0.14,-0.24,10.55,24,0.038,8.21
4.5299,-0.06981,-0.01396,0.56200,0.00000,0.00000,0.00000,61,12,13,9,59,9,54,-6,ok,2,0,0.001,4,0.14,-0.24,10.55,24,0.050,8.21
4.5340,-0.06981,-0.01396,0.56200,0.00000,0.00000,0.00000,62,12,13,11,60,10,50,-5,ok,2,0,0.001,4,0.14,-0.24,10.55,24,0.064,8.21
4.5466,-0.06981,-0.01396,0.56200,0.00000,0.00000,0.00000,62,13,14,12,60,10,48,-5,ok,2,0,0.001,4,0.14,-0.24,10.55,24,0.077,8.21
4.5697,-0.06981,-0.01396,0.56200,0.00000,0.00000,0.00000,62,14,15,11,61,11,46,-5,ok,2,0,0.001,4,0.14,-0.24,10.55,24,0.089,8.21
4.5730,-0.06981,-0.01396,0.56200,0.00000,0.00000,0.00000,63,14,17,10,61,11,43,-4,ok,2,0,0.001,4,0.14,-0.24,10.55,24,0.103,8.21
4.5855,-0.06981,-0.01396,0.56200,0.00000,0.00000,0.00000,62,15,19,9,61,12,41,-4,ok,2,0,0.001,5,0.14,-0.24,10.55,24,0.116,8.21
4.6057,-0.06981,-0.01396,0.56200,0.00000,0.00000,0.00000,63,16,19,9,61,13,37,-3,ok,2,0,0.001,5,0.14,-0.24,10.55,24,0.128,8.21
4.6105,-0.06981,-0.01396,0.56200,0.00000,0.00000,0.00000,63,17,21,7,61,13,35,-3,ok,2,0,0.001,5,0.14,-0.24,10.55,24,0.141,8.21
4.6230,-0.06981,-0.01396,0.56200,0.00000,0.00000,0.00000,63,18,22,7,62,14,31,-1,ok,2,0,0.001,5,0.14,-0.24,10.55,24,0.154,8.21
4.6457,-0.06981,-0.01396,0.56200,0.00000,0.00000,0.00000,65,19,23,6,62,14,30,0,ok,2,0,0.001,5,0.14,-0.24,10.55,24,0.166,8.21
4.6491,-0.06981,-0.01396,0.56200,0.00000,0.00000,0.00000,65,20,24,5,62,15,27,2,ok,2,0,0.001,5,0.14,-0.24,10.55,24,0.179,8.21
4.6616,-0.06981,-0.01396,0.56200,0.00000,0.00000,0.00000,65,21,25,5,62,16,25,5,ok,2,0,0.001,5,0.14,-0.24,10.55,24,0.192,8.21
4.6817,0.02269,0.12741,0.61087,0.00000,0.00000,0.00000,65,22,26,4,63,17,24,7,ok,2,0,0.001,5,1.81,-0.64,10.11,25,0.000,8.21
4.6865,0.02269,0.12741,0.61087,0.00000,0.00000,0.00000,65,23,26,3,63,18,22,11,ok,2,0,0.001,5,1.81,-0.64,10.11,25,0.012,8.21
4.6991,0.02269,0.12741,0.61087,0.00000,0.00000,0.00000,64,26,27,3,63,19,22,13,ok,2,0,0.001,5,1.81,-0.64,10.11,25,0.025,8.21
4.7217,0.02269,0.12741,0.61087,0.00000,0.00000,0.00000,64,27,28,2,64,20,24,12,ok,2,0,0.001,5,1.81,-0.64,10.11,25,0.038,8.21
4.7248,0.02269,0.12741,0.61087,0.00000,0.00000,0.00000,65,26,29,2,64,21,24,12,ok,2,0,0.001,5,1.81,-0.64,10.11,25,0.051,8.21
4.7377,0.02269,0.12741,0.61087,0.00000,0.00000,0.00000,67,22,30,2,65,22,25,10,ok,2,0,0.001,5,1.81,-0.64,10.11,25,0.063,8.21
4.7577,0.02269,0.12741,0.61087,0.00000,0.00000,0.00000,70,18,30,1,64,23,26,9,ok,2,0,0.001,5,1.81,-0.64,10.11,25,0.076,8.21
4.7625,0.02269,0.12741,0.61087,0.00000,0.00000,0.00000,70,14,32,1,64,25,27,10,ok,2,0,0.001,5,1.81,-0.64,10.11,25,0.088,8.21
4.7751,0.02269,0.12741,0.61087,0.00000,0.00000,0.00000,70,12,33,2,65,26,29,9,ok,2,0,0.001,5,1.81,-0.64,10.11,25,0.101,8.21
4.7977,0.02269,0.12741,0.61087,0.00000,0.00000,0.00000,70,11,35,2,64,28,30,8,ok,2,0,0.001,5,1.81,-0.64,10.11,25,0.113,8.21
4.8008,0.02269,0.12741,0.61087,0.00000,0.00000,0.00000,70,8,36,2,64,29,32,8,ok,2,0,0.001,5,1.81,-0.64,10.11,25,0.127,8.21
4.8137,0.02269,0.12741,0.61087,0.00000,0.00000,0.00000,69,5,38,3,64,30,33,9,ok,2,0,0.001,5,1.81,-0.64,10.11,25,0.139,8.21
4.8337,0.02269,0.12741,0.61087,0.00000,0.00000,0.00000,68,1,39,3,64,32,35,8,ok,2,0,0.001,5,1.81,-0.64,10.11,25,0.152,8.21
4.8384,0.02269,0.12741,0.61087,0.00000,0.00000,0.00000,67,-1,41,3,64,34,36,8,ok,2,0,0.001,5,1.81,-0.64,10.11,25,0.164,8.21
4.8512,0.02269,0.12741,0.61087,0.00000,0.00000,0.00000,66,-3,42,2,64,35,37,8,ok,2,0,0.001,5,1.81,-0.64,10.11,25,0.177,8.21
4.8737,0.02269,0.12741,0.61087,0.00000,0.00000,0.00000,65,-4,43,2,65,36,38,7,ok,2,0,0.001,5,1.81,-0.64,10.11,25,0.189,8.21
4.8771,0.10647,0.04887,0.62657,0.00000,0.00000,0.00000,63,-5,43,2,66,35,39,7,ok,2,0,0.001,5,1.12,0.98,9.23,26,0.000,8.21
4.8894,0.10647,0.04887,0.62657,0.00000,0.00000,0.00000,61,-7,45,2,68,34,41,6,ok,2,0,0.001,5,1.12,0.98,9.23,26,0.013,8.21
4.9097,0.10647,0.04887,0.62657,0.00000,0.00000,0.00000,60,-9,46,2,70,29,42,6,ok,2,0,0.001,5,1.12,0.98,9.23,26,0.025,8.21
4.9145,0.10647,0.04887,0.62657,0.00000,0.00000,0.00000,58,-9,48,3,72,25,43,6,ok,2,0,0.001,5,1.12,0.98,9.23,26,0.038,8.21
4.9271,0.10647,0.04887,0.62657,0.00000,0.00000,0.00000,56,-10,49,3,73,22,44,6,ok,2,0,0.001,5,1.12,0.98,9.23,26,0.050,8.21
4.9497,0.10647,0.04887,0.62657,0.00000,0.00000,0.00000,54,-10,49,3,74,21,45,7,ok,2,0,0.001,5,1.12,0.98,9.23,26,0.063,8.21
4.9529,0.10647,0.04887,0.62657,0.00000,0.00000,0.00000,52,-11,50,5,74,19,46,7,ok,2,0,0.001,5,1.12,0.98,9.23,26,0.076,8.21
4.9655,0.10647,0.04887,0.62657,0.00000,0.00000,0.00000,49,-10,51,6,74,15,47,7,ok,2,0,0.001,5,1.12,0.98,9.23,26,0.089,8.21
4.9857,0.10647,0.04887,0.62657,0.00000,0.00000,0.00000,46,-10,52,5,73,12,48,7,ok,2,0,0.001,5,1.12,0.98,9.23,26,0.101,8.21
4.9905,0.10647,0.04887,0.62657,0.00000,0.00000,0.00000,44,-10,53,6,73,10,49,7,ok,2,0,0.001,5,1.12,0.98,9.23,26,0.114,8.21
5.0030,0.10647,0.04887,0.62657,0.00000,0.00000,0.00000,41,-10,53,7,72,7,49,8,ok,2,0,0.001,5,1.12,0.98,9.23,26,0.126,8.21
5.0257,0.10647,0.04887,0.62657,0.00000,0.00000,0.00000,38,-11,55,7,72,5,50,7,ok,2,0,0.001,5,1.12,0.98,9.23,26,0.139,8.21
5.0375,0.10647,0.04887,0.62657,0.00000,0.00000,0.00000,36,-10,56,7,70,4,51,8,ok,2,0,0.001,5,1.12,0.98,9.23,26,0.152,8.21
5.0415,0.10647,0.04887,0.62657,0.00000,0.00000,0.00000,32,-9,57,7,69,2,52,7,ok,2,0,0.001,5,1.12,0.98,9.23,26,0.165,8.21
5.0617,0.10647,0.04887,0.62657,0.00000,0.00000,0.00000,30,-8,57,8,66,2,52,8,ok,2,0,0.001,5,1.12,0.98,9.23,26,0.177,8.21
5.0664,0.10647,0.04887,0.62657,0.00000,0.00000,0.00000,26,-6,58,8,65,0,53,8,ok,0,0,0.001,5,1.12,0.98,9.23,26,0.190,8.21
5.0792,0.10647,0.04887,0.62657,0.00000,0.00000,0.00000,23,-4,58,8,63,-2,54,8,ok,0,0,0.001,5,1.12,0.98,9.23,26,0.202,8.21
5.1017,0.13963,-0.05411,0.61087,0.00000,0.00000,0.00000,19,-2,59,9,61,-3,55,8,ok,0,0,0.001,5,-0.60,1.33,9.73,27,0.000,8.21
5.1051,0.13963,-0.05411,0.61087,0.00000,0.00000,0.00000,19,-2,60,10,61,-4,55,7,ok,0,0,0.001,5,-0.60,1.33,9.73,27,0.013,8.21
5.1175,0.13963,-0.05411,0.61087,0.00000,0.00000,0.00000,18,-1,61,10,59,-5,57,5,ok,0,0,0.001,5,-0.60,1.33,9.73,27,0.026,8.21
5.1377,0.13963,-0.05411,0.61087,0.00000,0.00000,0.00000,16,2,61,11,56,-6,57,6,ok,0,0,0.001,5,-0.60,1.33,9.73,27,0.039,8.21
5.1425,0.13963,-0.05411,0.61087,0.00000,0.00000,0.00000,14,5,61,10,54,-6,58,7,ok,0,0,0.001,5,-0.60,1.33,9.73,27,0.051,8.21
5.1550,0.13963,-0.05411,0.61087,0.00000,0.00000,0.00000,13,8,61,12,51,-6,59,8,ok,0,0,0.001,5,-0.60,1.33,9.73,27,0.064,8.21
5.1777,0.13963,-0.05411,0.61087,0.00000,0.00000,0.00000,12,11,62,11,48,-5,59,8,ok,0,0,0.001,5,-0.60,1.33,9.73,27,0.076,8.21
5.1809,0.13963,-0.05411,0.61087,0.00000,0.00000,0.00000,14,11,62,12,46,-5,60,9,ok,0,0,0.001,5,-0.60,1.33,9.73,27,0.089,8.21
5.1936,0.13963,-0.05411,0.61087,0.00000,0.00000,0.00000,15,11,62,13,42,-4,60,9,ok,0,0,0.001,5,-0.60,1.33,9.73,27,0.102,8.21
5.2137,0.13963,-0.05411,0.61087,0.00000,0.00000,0.00000,16,10,63,13,40,-4,60,10,ok,0,0,0.001,5,-0.60,1.33,9.73,27,0.114,8.21
5.2184,0.13963,-0.05411,0.61087,0.00000,0.00000,0.00000,18,9,62,14,37,-3,60,11,ok,0,0,0.001,5,-0.60,1.33,9.73,27,0.127,8.21
5.2310,0.13963,-0.05411,0.61087,0.00000,0.00000,0.00000,18,9,63,15,34,-3,61,12,ok,0,0,0.001,5,-0.60,1.33,9.73,27,0.140,8.21
5.2577,0.13963,-0.05411,0.61087,0.00000,0.00000,0.00000,21,8,63,16,31,-1,61,12,ok,0,0,0.001,5,-0.60,1.33,9.73,27,0.152,8.21
5.2610,0.13963,-0.05411,0.61087,0.00000,0.00000,0.00000,21,7,63,17,29,0,62,13,ok,0,0,0.001,5,-0.60,1.33,9.73,27,0.169,8.21
5.2734,0.13963,-0.05411,0.61087,0.00000,0.00000,0.00000,23,6,65,18,27,2,62,14,ok,0,0,0.001,5,-0.60,1.33,9.73,27,0.182,8.21
5.2937,0.04538,0.11345,0.61785,0.00000,0.00000,0.00000,24,5,65,19,25,5,63,14,ok,0,0,0.001,5,1.20,1.00,8.55,28,0.000,8.21
5.2984,0.04538,0.11345,0.61785,0.00000,0.00000,0.00000,25,5,65,21,23,8,63,16,ok,0,0,0.001,5,1.20,1.00,8.55,28,0.012,8.21
5.3110,0.04538,0.11345,0.61785,0.00000,0.00000,0.00000,26,4,65,22,22,11,63,17,ok,0,0,0.001,5,1.20,1.00,8.55,28,0.025,8.21
5.3337,0.04538,0.11345,0.61785,0.00000,0.00000,0.00000,27,3,64,23,21,14,63,17,ok,0,0,0.001,5,1.20,1.00,8.55,28,0.038,8.21
5.3370,0.04538,0.11345,0.61785,0.00000,0.00000,0.00000,28,3,63,26,23,13,64,18,ok,0,0,0.001,5,1.20,1.00,8.55,28,0.051,8.21
5.3494,0.04538,0.11345,0.61785,0.00000,0.00000,0.00000,28,2,63,28,24,13,64,19,ok,0,0,0.001,5,1.20,1.00,8.55,28,0.064,8.21
5.3697,0.04538,0.11345,0.61785,0.00000,0.00000,0.00000,29,1,64,26,25,11,64,20,ok,0,0,0.001,5,1.20,1.00,8.55,28,0.076,8.21
5.3744,0.04538,0.11345,0.61785,0.00000,0.00000,0.00000,30,0,66,24,26,11,65,21,ok,0,0,0.001,5,1.20,1.00,8.55,28,0.089,8.21
5.3871,0.04538,0.11345,0.61785,0.00000,0.00000,0.00000,31,0,69,20,27,11,65,22,ok,0,0,0.001,5,1.20,1.00,8.55,28,0.101,8.21
5.4097,0.04538,0.11345,0.61785,0.00000,0.00000,0.00000,33,0,70,16,29,11,65,23,ok,0,0,0.001,5,1.20,1.00,8.55,28,0.114,8.21
5.4129,0.04538,0.11345,0.61785,0.00000,0.00000,0.00000,34,0,70,13,30,9,65,25,ok,0,0,0.001,5,1.20,1.00,8.55,28,0.127,8.21
5.4256,0.04538,0.11345,0.61785,0.00000,0.00000,0.00000,36,1,70,12,32,10,66,26,ok,0,0,0.001,5,1.20,1.00,8.55,28,0.140,8.21
5.4457,0.04538,0.11345,0.61785,0.00000,0.00000,0.00000,37,1,70,9,33,9,65,28,ok,0,0,0.001,5,1.20,1.00,8.55,28,0.152,8.21
5.4505,0.04538,0.11345,0.61785,0.00000,0.00000,0.00000,39,2,69,6,35,9,64,29,ok,0,0,0.001,5,1.20,1.00,8.55,28,0.165,8.21
5.4632,0.04538,0.11345,0.61785,0.00000,0.00000,0.00000,40,2,68,3,36,9,65,30,ok,0,0,0.001,5,1.20,1.00,8.55,28,0.177,8.21
5.4857,0.04538,0.11345,0.61785,0.00000,0.00000,0.00000,42,2,67,0,37,9,64,32,ok,0,0,0.001,5,1.20,1.00,8.55,28,0.190,8.21
5.4890,0.04538,0.11345,0.61785,0.00000,0.00000,0.00000,43,1,66,-2,39,8,64,34,ok,0,0,0.001,5,1.20,1.00,8.55,28,0.203,8.21
5.5017,-0.06981,0.04014,0.63705,0.00000,0.00000,0.00000,44,2,64,-3,40,8,64,35,ok,0,0,0.001,5,0.20,-1.51,9.34,29,0.000,8.21
5.5217,-0.06981,0.04014,0.63705,0.00000,0.00000,0.00000,44,2,62,-4,41,7,65,35,ok,0,0,0.001,5,0.20,-1.51,9.34,29,0.013,8.21
5.5265,-0.06981,0.04014,0.63705,0.00000,0.00000,0.00000,46,2,61,-6,42,7,66,34,ok,0,0,0.001,5,0.20,-1.51,9.34,29,0.025,8.21
5.5390,-0.06981,0.04014,0.63705,0.00000,0.00000,0.00000,47,2,60,-8,43,7,68,32,ok,0,0,0.001,5,0.20,-1.51,9.34,29,0.037,8.21
5.5617,-0.06981,0.04014,0.63705,0.00000,0.00000,0.00000,48,2,57,-8,44,7,70,26,ok,0,0,0.001,5,0.20,-1.51,9.34,29,0.050,8.21
5.5648,-0.06981,0.04014,0.63705,0.00000,0.00000,0.00000,50,2,55,-9,44,7,72,23,ok,0,0,0.001,5,0.20,-1.51,9.34,29,0.063,8.21
5.5775,-0.06981,0.04014,0.63705,0.00000,0.00000,0.00000,50,2,53,-9,46,7,73,20,ok,0,0,0.001,5,0.20,-1.51,9.34,29,0.076,8.21
5.5977,-0.06981,0.04014,0.63705,0.00000,0.00000,0.00000,50,4,51,-10,47,7,73,20,ok,0,0,0.001,5,0.20,-1.51,9.34,29,0.089,8.21
5.6024,-0.06981,0.04014,0.63705,0.00000,0.00000,0.00000,52,5,49,-10,47,8,73,18,ok,0,0,0.002,6,0.20,-1.51,9.34,29,0.101,8.21
5.6152,-0.06981,0.04014,0.63705,0.00000,0.00000,0.00000,52,4,46,-10,49,8,73,14,ok,0,0,0.002,6,0.20,-1.51,9.34,29,0.113,8.21
5.6377,-0.06981,0.04014,0.63705,0.00000,0.00000,0.00000,53,5,44,-9,49,8,72,12,ok,0,0,0.002,6,0.20,-1.51,9.34,29,0.126,8.21
5.6409,-0.06981,0.04014,0.63705,0.00000,0.00000,0.00000,53,6,41,-10,50,8,72,10,ok,0,0,0.002,6,0.20,-1.51,9.34,29,0.139,8.21
5.6535,-0.06981,0.04014,0.63705,0.00000,0.00000,0.00000,56,7,39,-10,50,8,71,7,ok,0,0,0.002,6,0.20,-1.51,9.34,29,0.152,8.21
5.6737,-0.06981,0.04014,0.63705,0.00000,0.00000,0.00000,56,7,36,-9,51,7,71,5,ok,0,0,0.002,6,0.20,-1.51,9.34,29,0.165,8.21
5.6785,-0.06981,0.04014,0.63705,0.00000,0.00000,0.00000,57,7,33,-9,51,8,70,3,ok,0,0,0.002,6,0.20,-1.51,9.34,29,0.177,8.21
5.6911,-0.06981,0.04014,0.63705,0.00000,0.00000,0.00000,58,8,30,-7,52,8,68,1,ok,2,0,0.002,6,0.20,-1.51,9.34,29,0.190,8.21
5.7137,-0.02443,-0.05934,0.68242,0.00000,0.00000,0.00000,58,8,27,-6,53,8,66,1,ok,2,0,0.002,6,-0.64,-0.67,10.46,30,0.000,8.21
5.7169,-0.02443,-0.05934,0.68242,0.00000,0.00000,0.00000,59,8,24,-5,55,9,65,-1,ok,2,0,0.002,6,-0.64,-0.67,10.46,30,0.013,8.21
5.7295,-0.02443,-0.05934,0.68242,0.00000,0.00000,0.00000,60,10,20,-3,56,9,64,-2,ok,2,0,0.002,6,-0.64,-0.67,10.46,30,0.026,8.21
5.7497,-0.02443,-0.05934,0.68242,0.00000,0.00000,0.00000,60,10,19,-1,58,7,62,-4,ok,2,0,0.002,6,-0.64,-0.67,10.46,30,0.038,8.21
5.7544,-0.02443,-0.05934,0.68242,0.00000,0.00000,0.00000,61,10,18,0,58,8,60,-5,ok,2,0,0.002,6,-0.64,-0.67,10.46,30,0.051,8.21
5.7670,-0.02443,-0.05934,0.68242,0.00000,0.00000,0.00000,61,11,17,2,59,9,58,-5,ok,2,0,0.002,6,-0.64,-0.67,10.46,30,0.063,8.21
5.7897,-0.02443,-0.05934,0.68242,0.00000,0.00000,0.00000,62,11,15,5,59,9,55,-6,ok,2,0,0.002,6,-0.64,-0.67,10.46,30,0.076,8.21
5.7930,-0.02443,-0.05934,0.68242,0.00000,0.00000,0.00000,62,13,14,9,59,9,54,-7,ok,2,0,0.002,6,-0.64,-0.67,10.46,30,0.089,8.21
5.8054,-0.02443,-0.05934,0.68242,0.00000,0.00000,0.00000,62,13,13,11,60,10,50,-6,ok,2,0,0.002,6,-0.64,-0.67,10.46,30,0.102,8.21
5.8257,-0.02443,-0.05934,0.68242,0.00000,0.00000,0.00000,62,14,15,12,60,10,48,-5,ok,2,0,0.002,6,-0.64,-0.67,10.46,30,0.114,8.21
5.8305,-0.02443,-0.05934,0.68242,0.00000,0.00000,0.00000,62,14,16,11,61,11,45,-6,ok,2,0,0.002,6,-0.64,-0.67,10.46,30,0.127,8.21
5.8430,-0.02443,-0.05934,0.68242,0.00000,0.00000,0.00000,63,14,17,10,61,11,42,-5,ok,2,0,0.002,6,-0.64,-0.67,10.46,30,0.139,8.21
5.8657,-0.02443,-0.05934,0.68242,0.00000,0.00000,0.00000,63,15,19,9,61,12,40,-5,ok,2,0,0.002,6,-0.64,-0.67,10.46,30,0.152,8.21
5.8689,-0.02443,-0.05934,0.68242,0.00000,0.00000,0.00000,63,16,20,9,61,13,37,-3,ok,2,0,0.002,6,-0.64,-0.67,10.46,30,0.165,8.21
5.8816,-0.02443,-0.05934,0.68242,0.00000,0.00000,0.00000,64,17,22,8,61,13,35,-3,ok,2,0,0.002,6,-0.64,-0.67,10.46,30,0.178,8.21
5.9017,-0.02443,-0.05934,0.68242,0.00000,0.00000,0.00000,64,18,22,7,61,14,31,-1,ok,2,0,0.002,6,-0.64,-0.67,10.46,30,0.190,8.21
5.9067,0.12043,0.01920,0.71908,0.00000,0.00000,0.00000,65,19,24,6,62,15,29,0,ok,2,0,0.002,6,-0.22,1.68,8.03,31,0.000,8.21
5.9192,0.12043,0.01920,0.71908,0.00000,0.00000,0.00000,65,21,25,5,62,16,27,1,ok,2,0,0.002,6,-0.22,1.68,8.03,31,0.013,8.21
5.9417,0.12043,0.01920,0.71908,0.00000,0.00000,0.00000,65,22,25,5,62,17,25,4,ok,2,0,0.002,6,-0.22,1.68,8.03,31,0.025,8.21
5.9448,0.12043,0.01920,0.71908,0.00000,0.00000,0.00000,65,23,26,4,63,18,23,7,ok,2,0,0.002,6,-0.22,1.68,8.03,31,0.038,8.21
5.9574,0.12043,0.01920,0.71908,0.00000,0.00000,0.00000,65,24,26,3,64,18,22,10,ok,2,0,0.002,6,-0.22,1.68,8.03,31,0.051,8.21
5.9777,0.12043,0.01920,0.71908,0.00000,0.00000,0.00000,64,27,27,2,64,19,21,12,ok,2,0,0.002,6,-0.22,1.68,8.03,31,0.064,8.21
5.9825,0.12043,0.01920,0.71908,0.00000,0.00000,0.00000,64,28,28,1,64,20,24,11,ok,2,0,0.002,6,-0.22,1.68,8.03,31,0.076,8.21
5.9950,0.12043,0.01920,0.71908,0.00000,0.00000,0.00000,65,26,29,1,64,21,24,11,ok,2,0,0.002,6,-0.22,1.68,8.03,31,0.089,8.21
6.0177,0.12043,0.01920,0.71908,0.00000,0.00000,0.00000,67,23,30,1,64,23,25,9,ok,2,0,0.002,6,-0.22,1.68,8.03,31,0.101,8.21
6.0208,0.12043,0.01920,0.71908,0.00000,0.00000,0.00000,70,19,31,1,63,24,26,8,ok,2,0,0.002,6,-0.22,1.68,8.03,31,0.114,8.21
6.0337,0.12043,0.01920,0.71908,0.00000,0.00000,0.00000,71,14,33,2,63,26,27,9,ok,2,0,0.002,6,-0.22,1.68,8.03,31,0.127,8.21
6.0537,0.12043,0.01920,0.71908,0.00000,0.00000,0.00000,71,12,34,2,65,26,29,8,ok,2,0,0.002,6,-0.22,1.68,8.03,31,0.140,8.21
6.0585,0.12043,0.01920,0.71908,0.00000,0.00000,0.00000,70,11,36,2,64,28,30,8,ok,2,0,0.002,6,-0.22,1.68,8.03,31,0.152,8.21
6.0712,0.12043,0.01920,0.71908,0.00000,0.00000,0.00000,70,7,37,2,64,30,32,8,ok,2,0,0.002,6,-0.22,1.68,8.03,31,0.165,8.21
6.0937,0.12043,0.01920,0.71908,0.00000,0.00000,0.00000,70,5,39,3,64,31,33,8,ok,2,0,0.002,6,-0.22,1.68,8.03,31,0.177,8.21
6.0969,0.12043,0.01920,0.71908,0.00000,0.00000,0.00000,69,2,40,3,64,33,34,8,ok,2,0,0.002,6,-0.22,1.68,8.03,31,0.190,8.21
6.1097,0.03491,0.08029,0.77493,0.00000,0.00000,0.00000,68,-1,42,3,63,34,36,8,ok,2,0,0.002,6,0.31,0.08,9.57,32,0.000,8.21
6.1297,0.03491,0.08029,0.77493,0.00000,0.00000,0.00000,67,-3,43,3,63,35,37,8,ok,2,0,0.002,6,0.31,0.08,9.57,32,0.013,8.21
6.1346,0.03491,0.08029,0.77493,0.00000,0.00000,0.00000,65,-4,45,3,63,36,38,7,ok,2,0,0.002,6,0.31,0.08,9.57,32,0.025,8.21
6.1471,0.03491,0.08029,0.77493,0.00000,0.00000,0.00000,63,-5,45,3,65,35,39,7,ok,2,0,0.002,6,0.31,0.08,9.57,32,0.038,8.21
6.1737,0.03491,0.08029,0.77493,0.00000,0.00000,0.00000,62,-7,46,3,67,33,41,6,ok,2,0,0.002,6,0.31,0.08,9.57,32,0.050,8.21
6.1770,0.03491,0.08029,0.77493,0.00000,0.00000,0.00000,61,-9,47,4,69,29,42,6,ok,2,0,0.002,6,0.31,0.08,9.57,32,0.067,8.21
6.1894,0.03491,0.08029,0.77493,0.00000,0.00000,0.00000,58,-10,48,5,71,24,43,6,ok,2,0,0.002,6,0.31,0.08,9.57,32,0.080,8.21
6.2097,0.03491,0.08029,0.77493,0.00000,0.00000,0.00000,56,-11,49,4,72,22,44,6,ok,2,0,0.002,6,0.31,0.08,9.57,32,0.093,8.21
6.2145,0.03491,0.08029,0.77493,0.00000,0.00000,0.00000,54,-11,49,4,73,21,45,7,ok,2,0,0.002,6,0.31,0.08,9.57,32,0.105,8.21
6.2272,0.03491,0.08029,0.77493,0.00000,0.00000,0.00000,52,-12,49,6,73,19,46,7,ok,2,0,0.002,6,0.31,0.08,9.57,32,0.118,8.21
6.2497,0.03491,0.08029,0.77493,0.00000,0.00000,0.00000,49,-12,51,7,73,15,47,7,ok,2,0,0.002,6,0.31,0.08,9.57,32,0.130,8.21
6.2529,0.03491,0.08029,0.77493,0.00000,0.00000,0.00000,46,-11,52,6,73,12,48,7,ok,2,0,0.002,6,0.31,0.08,9.57,32,0.143,8.21
6.2655,0.03491,0.08029,0.77493,0.00000,0.00000,0.00000,44,-11,53,6,72,10,49,7,ok,2,0,0.002,6,0.31,0.08,9.57,32,0.156,8.21
6.2857,0.03491,0.08029,0.77493,0.00000,0.00000,0.00000,41,-11,53,7,72,7,50,8,ok,2,0,0.002,6,0.31,0.08,9.57,32,0.169,8.21
6.2906,0.03491,0.08029,0.77493,0.00000,0.00000,0.00000,38,-11,55,7,71,5,50,7,ok,2,0,0.002,6,0.31,0.08,9.57,32,0.181,8.21
6.3031,0.03491,0.08029,0.77493,0.00000,0.00000,0.00000,36,-10,55,7,70,4,51,8,ok,2,0,0.002,6,0.31,0.08,9.57,32,0.194,8.21
6.3257,0.17279,-0.02967,0.71384,0.00000,0.00000,0.00000,32,-9,57,7,69,1,52,7,ok,0,0,0.002,6,-0.81,1.72,8.95,33,0.000,8.21
6.3288,0.17279,-0.02967,0.71384,0.00000,0.00000,0.00000,29,-8,57,7,66,3,52,8,ok,0,0,0.002,6,-0.81,1.72,8.95,33,0.013,8.21
6.3416,0.17279,-0.02967,0.71384,0.00000,0.00000,0.00000,26,-6,57,7,65,0,53,7,ok,0,0,0.002,6,-0.81,1.72,8.95,33,0.026,8.21
6.3617,0.17279,-0.02967,0.71384,0.00000,0.00000,0.00000,23,-4,58,7,64,-1,54,8,ok,0,0,0.002,6,-0.81,1.72,8.95,33,0.039,8.21
6.3664,0.17279,-0.02967,0.71384,0.00000,0.00000,0.00000,19,-1,59,8,62,-3,55,8,ok,0,0,0.002,6,-0.81,1.72,8.95,33,0.051,8.21
6.3791,0.17279,-0.02967,0.71384,0.00000,0.00000,0.00000,19,-1,60,10,61,-4,54,7,ok,0,0,0.002,6,-0.81,1.72,8.95,33,0.064,8.21
6.4017,0.17279,-0.02967,0.71384,0.00000,0.00000,0.00000,18,1,61,9,59,-5,56,5,ok,0,0,0.002,6,-0.81,1.72,8.95,33,0.076,8.21
6.4049,0.17279,-0.02967,0.71384,0.00000,0.00000,0.00000,16,3,61,10,56,-5,57,6,ok,0,0,0.002,6,-0.81,1.72,8.95,33,0.089,8.21
6.4174,0.17279,-0.02967,0.71384,0.00000,0.00000,0.00000,15,6,62,9,54,-7,58,6,ok,0,0,0.002,6,-0.81,1.72,8.95,33,0.102,8.21
6.4377,0.17279,-0.02967,0.71384,0.00000,0.00000,0.00000,13,10,61,11,51,-6,58,7,ok,0,0,0.002,6,-0.81,1.72,8.95,33,0.115,8.21
6.4425,0.17279,-0.02967,0.71384,0.00000,0.00000,0.00000,12,12,62,11,48,-5,59,7,ok,0,0,0.002,6,-0.81,1.72,8.95,33,0.127,8.21
6.4550,0.17279,-0.02967,0.71384,0.00000,0.00000,0.00000,14,12,62,12,45,-5,59,8,ok,0,0,0.002,6,-0.81,1.72,8.95,33,0.140,8.21
6.4777,0.17279,-0.02967,0.71384,0.00000,0.00000,0.00000,14,11,62,13,42,-4,59,9,ok,0,0,0.002,6,-0.81,1.72,8.95,33,0.152,8.21
6.4809,0.17279,-0.02967,0.71384,0.00000,0.00000,0.00000,16,10,63,14,40,-4,60,10,ok,0,0,0.002,6,-0.81,1.72,8.95,33,0.165,8.21
6.4938,0.17279,-0.02967,0.71384,0.00000,0.00000,0.00000,18,9,62,14,37,-3,60,11,ok,0,0,0.002,6,-0.81,1.72,8.95,33,0.178,8.21
6.5137,0.17279,-0.02967,0.71384,0.00000,0.00000,0.00000,18,8,63,15,34,-2,61,12,ok,0,0,0.002,6,-0.81,1.72,8.95,33,0.191,8.21
6.5187,0.11868,0.09250,0.71035,0.00000,0.00000,0.00000,20,7,63,16,31,-1,61,12,ok,0,0,0.002,6,0.48,1.27,7.92,34,0.000,8.21
6.5311,0.11868,0.09250,0.71035,0.00000,0.00000,0.00000,21,7,64,17,29,0,62,13,ok,0,0,0.002,6,0.48,1.27,7.92,34,0.013,8.21
6.5537,0.11868,0.09250,0.71035,0.00000,0.00000,0.00000,23,6,65,18,27,2,62,14,ok,0,0,0.002,6,0.48,1.27,7.92,34,0.025,8.21
6.5571,0.11868,0.09250,0.71035,0.00000,0.00000,0.00000,24,5,64,20,24,5,63,14,ok,0,0,0.002,6,0.48,1.27,7.92,34,0.038,8.21
6.5694,0.11868,0.09250,0.71035,0.00000,0.00000,0.00000,24,4,64,21,23,8,63,15,ok,0,0,0.002,6,0.48,1.27,7.92,34,0.051,8.21
6.5897,0.11868,0.09250,0.71035,0.00000,0.00000,0.00000,25,3,64,22,22,11,63,16,ok,0,0,0.002,6,0.48,1.27,7.92,34,0.064,8.21
6.5944,0.11868,0.09250,0.71035,0.00000,0.00000,0.00000,26,3,64,23,22,14,64,17,ok,0,0,0.002,6,0.48,1.27,7.92,34,0.076,8.21
6.6070,0.11868,0.09250,0.71035,0.00000,0.00000,0.00000,27,2,63,26,24,14,64,18,ok,0,0,0.002,6,0.48,1.27,7.92,34,0.089,8.21
6.6298,0.11868,0.09250,0.71035,0.00000,0.00000,0.00000,28,1,63,28,24,14,64,19,ok,0,0,0.002,7,0.48,1.27,7.92,34,0.101,8.21
6.6329,0.11868,0.09250,0.71035,0.00000,0.00000,0.00000,29,1,64,26,25,12,64,20,ok,0,0,0.002,7,0.48,1.27,7.92,34,0.114,8.21
6.6457,0.11868,0.09250,0.71035,0.00000,0.00000,0.00000,30,1,67,23,26,11,65,20,ok,0,0,0.002,7,0.48,1.27,7.92,34,0.127,8.21
6.6658,0.11868,0.09250,0.71035,0.00000,0.00000,0.00000,31,0,69,19,28,11,65,22,ok,0,0,0.002,7,0.48,1.27,7.92,34,0.140,8.21
6.6705,0.11868,0.09250,0.71035,0.00000,0.00000,0.00000,33,1,70,15,29,11,65,23,ok,0,0,0.002,7,0.48,1.27,7.92,34,0.152,8.21
6.6831,0.11868,0.09250,0.71035,0.00000,0.00000,0.00000,34,1,71,12,30,10,65,25,ok,0,0,0.002,7,0.48,1.27,7.92,34,0.165,8.21
6.7058,0.11868,0.09250,0.71035,0.00000,0.00000,0.00000,36,1,70,12,32,10,65,25,ok,0,0,0.002,7,0.48,1.27,7.92,34,0.177,8.21
6.7091,0.11868,0.09250,0.71035,0.00000,0.00000,0.00000,37,1,70,8,33,10,64,27,ok,0,0,0.002,7,0.48,1.27,7.92,34,0.190,8.21
6.7218,-0.05236,0.02443,0.70686,0.00000,0.00000,0.00000,39,2,69,6,35,10,64,29,ok,0,0,0.002,7,0.53,-0.80,11.18,35,0.000,8.21
6.7417,-0.05236,0.02443,0.70686,0.00000,0.00000,0.00000,40,2,69,3,36,8,65,30,ok,0,0,0.002,7,0.53,-0.80,11.18,35,0.013,8.21
6.7465,-0.05236,0.02443,0.70686,0.00000,0.00000,0.00000,42,1,67,1,37,9,65,32,ok,0,0,0.002,7,0.53,-0.80,11.18,35,0.025,8.21
6.7593,-0.05236,0.02443,0.70686,0.00000,0.00000,0.00000,43,1,66,-1,38,8,65,33,ok,0,0,0.002,7,0.53,-0.80,11.18,35,0.038,8.21
6.7817,-0.05236,0.02443,0.70686,0.00000,0.00000,0.00000,44,1,64,-3,39,8,64,35,ok,0,0,0.002,7,0.53,-0.80,11.18,35,0.050,8.21
6.7848,-0.05236,0.02443,0.70686,0.00000,0.00000,0.00000,44,1,62,-3,40,7,66,35,ok,0,0,0.002,7,0.53,-0.80,11.18,35,0.063,8.21
6.7974,-0.05236,0.02443,0.70686,0.00000,0.00000,0.00000,46,1,61,-5,42,7,67,34,ok,0,0,0.002,7,0.53,-0.80,11.18,35,0.076,8.21
6.8177,-0.05236,0.02443,0.70686,0.00000,0.00000,0.00000,47,1,60,-7,43,7,68,32,ok,0,0,0.002,7,0.53,-0.80,11.18,35,0.088,8.21
6.8224,-0.05236,0.02443,0.70686,0.00000,0.00000,0.00000,48,2,58,-7,44,8,70,27,ok,0,0,0.002,7,0.53,-0.80,11.18,35,0.101,8.21
6.8352,-0.05236,0.02443,0.70686,0.00000,0.00000,0.00000,50,2,56,-8,45,8,71,23,ok,0,0,0.002,7,0.53,-0.80,11.18,35,0.113,8.21
6.8577,-0.05236,0.02443,0.70686,0.00000,0.00000,0.00000,50,2,54,-9,46,8,73,20,ok,0,0,0.002,7,0.53,-0.80,11.18,35,0.126,8.21
6.8609,-0.05236,0.02443,0.70686,0.00000,0.00000,0.00000,50,5,51,-10,47,8,73,20,ok,0,0,0.002,7,0.53,-0.80,11.18,35,0.139,8.21
6.8734,-0.05236,0.02443,0.70686,0.00000,0.00000,0.00000,51,6,49,-10,47,8,73,18,ok,0,0,0.002,7,0.53,-0.80,11.18,35,0.152,8.21
6.8937,-0.05236,0.02443,0.70686,0.00000,0.00000,0.00000,52,5,46,-10,48,8,73,14,ok,0,0,0.002,7,0.53,-0.80,11.18,35,0.164,8.21
6.8985,-0.05236,0.02443,0.70686,0.00000,0.00000,0.00000,53,6,44,-10,49,8,72,12,ok,0,0,0.002,7,0.53,-0.80,11.18,35,0.177,8.21
6.9111,-0.05236,0.02443,0.70686,0.00000,0.00000,0.00000,53,7,42,-10,49,8,72,10,ok,0,0,0.002,7,0.53,-0.80,11.18,35,0.189,8.21
6.9337,-0.05760,-0.02967,0.78016,0.00000,0.00000,0.00000,56,7,39,-10,50,8,71,6,ok,0,0,0.002,7,-0.43,-0.21,10.15,36,0.000,8.21
6.9369,-0.05760,-0.02967,0.78016,0.00000,0.00000,0.00000,56,7,37,-10,51,7,71,5,ok,0,0,0.002,7,-0.43,-0.21,10.15,36,0.013,8.21
6.9495,-0.05760,-0.02967,0.78016,0.00000,0.00000,0.00000,57,7,33,-9,52,8,70,3,ok,0,0,0.002,7,-0.43,-0.21,10.15,36,0.026,8.21
6.9697,-0.05760,-0.02967,0.78016,0.00000,0.00000,0.00000,58,8,31,-8,52,8,68,1,ok,0,0,0.002,7,-0.43,-0.21,10.15,36,0.039,8.21
6.9745,-0.05760,-0.02967,0.78016,0.00000,0.00000,0.00000,58,8,27,-7,53,9,66,1,ok,2,0,0.002,7,-0.43,-0.21,10.15,36,0.051,8.21
6.9870,-0.05760,-0.02967,0.78016,0.00000,0.00000,0.00000,59,9,25,-5,54,9,65,-1,ok,2,0,0.002,7,-0.43,-0.21,10.15,36,0.064,8.21
7.0097,-0.05760,-0.02967,0.78016,0.00000,0.00000,0.00000,60,10,21,-2,55,9,64,-2,ok,2,0,0.002,7,-0.43,-0.21,10.15,36,0.076,8.21
7.0131,-0.05760,-0.02967,0.78016,0.00000,0.00000,0.00000,60,10,19,-1,57,7,62,-4,ok,2,0,0.002,7,-0.43,-0.21,10.15,36,0.089,8.21
7.0255,-0.05760,-0.02967,0.78016,0.00000,0.00000,0.00000,61,10,19,0,57,8,60,-5,ok,2,0,0.002,7,-0.43,-0.21,10.15,36,0.102,8.21
7.0457,-0.05760,-0.02967,0.78016,0.00000,0.00000,0.00000,61,11,17,3,58,9,58,-5,ok,2,0,0.002,7,-0.43,-0.21,10.15,36,0.115,8.21
7.0505,-0.05760,-0.02967,0.78016,0.00000,0.00000,0.00000,62,11,15,6,59,9,55,-6,ok,2,0,0.002,7,-0.43,-0.21,10.15,36,0.127,8.21
7.0630,-0.05760,-0.02967,0.78016,0.00000,0.00000,0.00000,62,12,14,9,59,9,54,-7,ok,2,0,0.002,7,-0.43,-0.21,10.15,36,0.140,8.21
7.0857,-0.05760,-0.02967,0.78016,0.00000,0.00000,0.00000,62,12,13,12,60,10,50,-6,ok,2,0,0.002,7,-0.43,-0.21,10.15,36,0.152,8.21
7.0890,-0.05760,-0.02967,0.78016,0.00000,0.00000,0.00000,62,13,15,12,60,10,48,-5,ok,2,0,0.002,7,-0.43,-0.21,10.15,36,0.165,8.21
7.1015,-0.05760,-0.02967,0.78016,0.00000,0.00000,0.00000,62,14,16,11,60,11,46,-5,ok,2,0,0.002,7,-0.43,-0.21,10.15,36,0.178,8.21
7.1217,-0.05760,-0.02967,0.78016,0.00000,0.00000,0.00000,63,14,17,10,61,11,42,-5,ok,2,0,0.002,7,-0.43,-0.21,10.15,36,0.191,8.21
7.1267,0.06458,0.02269,0.80634,0.00000,0.00000,0.00000,62,15,19,9,61,12,41,-5,ok,2,0,0.002,7,0.50,0.08,10.50,37,0.000,8.21
7.1392,0.06458,0.02269,0.80634,0.00000,0.00000,0.00000,63,16,20,8,61,13,37,-4,ok,2,0,0.002,7,0.50,0.08,10.50,37,0.013,8.21
7.1617,0.06458,0.02269,0.80634,0.00000,0.00000,0.00000,63,17,21,7,61,14,34,-4,ok,2,0,0.002,7,0.50,0.08,10.50,37,0.025,8.21
7.1649,0.06458,0.02269,0.80634,0.00000,0.00000,0.00000,63,18,22,7,61,15,30,-2,ok,2,0,0.002,7,0.50,0.08,10.50,37,0.038,8.21
7.1774,0.06458,0.02269,0.80634,0.00000,0.00000,0.00000,64,20,23,6,63,15,29,-1,ok,2,0,0.002,7,0.50,0.08,10.50,37,0.051,8.21
7.1977,0.06458,0.02269,0.80634,0.00000,0.00000,0.00000,65,21,24,5,63,16,27,1,ok,2,0,0.002,7,0.50,0.08,10.50,37,0.064,8.21
7.2025,0.06458,0.02269,0.80634,0.00000,0.00000,0.00000,65,22,24,4,62,17,25,4,ok,2,0,0.002,7,0.50,0.08,10.50,37,0.076,8.21
7.2153,0.06458,0.02269,0.80634,0.00000,0.00000,0.00000,65,23,25,3,63,17,24,6,ok,2,0,0.002,7,0.50,0.08,10.50,37,0.089,8.21
7.2377,0.06458,0.02269,0.80634,0.00000,0.00000,0.00000,65,24,26,2,63,18,23,10,ok,2,0,0.002,7,0.50,0.08,10.50,37,0.101,8.21
7.2409,0.06458,0.02269,0.80634,0.00000,0.00000,0.00000,64,27,27,2,63,19,22,12,ok,2,0,0.002,7,0.50,0.08,10.50,37,0.114,8.21
7.2535,0.06458,0.02269,0.80634,0.00000,0.00000,0.00000,64,27,28,2,63,20,24,11,ok,2,0,0.002,7,0.50,0.08,10.50,37,0.127,8.21
7.2737,0.06458,0.02269,0.80634,0.00000,0.00000,0.00000,65,26,29,2,64,22,25,11,ok,2,0,0.002,7,0.50,0.08,10.50,37,0.140,8.21
7.2786,0.06458,0.02269,0.80634,0.00000,0.00000,0.00000,67,21,30,2,64,23,25,9,ok,2,0,0.002,7,0.50,0.08,10.50,37,0.152,8.21
7.2912,0.06458,0.02269,0.80634,0.00000,0.00000,0.00000,70,18,31,1,64,24,27,9,ok,2,0,0.002,7,0.50,0.08,10.50,37,0.165,8.21
7.3138,0.06458,0.02269,0.80634,0.00000,0.00000,0.00000,70,13,33,2,64,26,28,9,ok,2,0,0.002,7,0.50,0.08,10.50,37,0.177,8.21
7.3170,0.06458,0.02269,0.80634,0.00000,0.00000,0.00000,71,11,34,2,65,26,29,8,ok,2,0,0.002,7,0.50,0.08,10.50,37,0.191,8.21
7.3300,0.05585,0.02793,0.91281,0.00000,0.00000,0.00000,70,11,36,2,64,28,30,8,ok,2,0,0.002,7,-0.32,0.23,9.84,38,0.000,8.21
7.3497,0.05585,0.02793,0.91281,0.00000,0.00000,0.00000,70,7,37,2,64,29,32,8,ok,2,0,0.002,7,-0.32,0.23,9.84,38,0.013,8.21
7.3546,0.05585,0.02793,0.91281,0.00000,0.00000,0.00000,69,5,39,3,63,31,33,8,ok,2,0,0.002,7,-0.32,0.23,9.84,38,0.025,8.21
7.3673,0.05585,0.02793,0.91281,0.00000,0.00000,0.00000,69,2,40,3,64,33,35,8,ok,2,0,0.002,7,-0.32,0.23,9.84,38,0.038,8.21
7.3898,0.05585,0.02793,0.91281,0.00000,0.00000,0.00000,68,-1,42,3,63,34,36,8,ok,2,0,0.002,7,-0.32,0.23,9.84,38,0.050,8.21
7.3929,0.05585,0.02793,0.91281,0.00000,0.00000,0.00000,67,-2,43,2,63,35,37,8,ok,2,0,0.002,7,-0.32,0.23,9.84,38,0.063,8.21
7.4056,0.05585,0.02793,0.91281,0.00000,0.00000,0.00000,65,-4,44,3,64,36,38,7,ok,2,0,0.002,7,-0.32,0.23,9.84,38,0.076,8.21
7.4257,0.05585,0.02793,0.91281,0.00000,0.00000,0.00000,63,-5,45,3,65,36,39,7,ok,2,0,0.002,7,-0.32,0.23,9.84,38,0.088,8.21
7.4307,0.05585,0.02793,0.91281,0.00000,0.00000,0.00000,62,-6,46,3,67,34,41,6,ok,2,0,0.002,7,-0.32,0.23,9.84,38,0.101,8.21
7.4431,0.05585,0.02793,0.91281,0.00000,0.00000,0.00000,61,-8,47,3,69,29,42,6,ok,2,0,0.002,7,-0.32,0.23,9.84,38,0.113,8.21
7.4657,0.05585,0.02793,0.91281,0.00000,0.00000,0.00000,59,-9,48,4,70,25,43,6,ok,2,0,0.002,7,-0.32,0.23,9.84,38,0.126,8.21
7.4689,0.05585,0.02793,0.91281,0.00000,0.00000,0.00000,56,-10,49,4,72,22,44,6,ok,2,0,0.002,7,-0.32,0.23,9.84,38,0.139,8.21
7.4815,0.05585,0.02793,0.91281,0.00000,0.00000,0.00000,54,-10,50,4,73,21,45,7,ok,2,0,0.002,7,-0.32,0.23,9.84,38,0.152,8.21
7.5017,0.05585,0.02793,0.91281,0.00000,0.00000,0.00000,52,-11,50,6,73,19,46,7,ok,2,0,0.002,7,-0.32,0.23,9.84,38,0.164,8.21
7.5066,0.05585,0.02793,0.91281,0.00000,0.00000,0.00000,49,-11,51,6,73,15,47,7,ok,2,0,0.002,7,-0.32,0.23,9.84,38,0.177,8.21
7.5191,0.05585,0.02793,0.91281,0.00000,0.00000,0.00000,47,-11,52,6,73,12,48,7,ok,2,0,0.002,7,-0.32,0.23,9.84,38,0.189,8.21
7.5417,0.08029,0.00698,0.89186,0.00000,0.00000,0.00000,44,-10,53,6,72,10,49,7,ok,2,0,0.002,7,-1.07,0.93,8.90,39,0.000,8.21
7.5449,0.08029,0.00698,0.89186,0.00000,0.00000,0.00000,41,-11,54,7,72,7,49,8,ok,2,0,0.002,7,-1.07,0.93,8.90,39,0.013,8.21
7.5577,0.08029,0.00698,0.89186,0.00000,0.00000,0.00000,38,-11,56,7,71,6,50,7,ok,0,0,0.002,7,-1.07,0.93,8.90,39,0.026,8.21
7.5777,0.08029,0.00698,0.89186,0.00000,0.00000,0.00000,36,-10,56,7,70,4,51,8,ok,0,0,0.002,7,-1.07,0.93,8.90,39,0.039,8.21
7.5825,0.08029,0.00698,0.89186,0.00000,0.00000,0.00000,33,-8,57,7,69,2,52,7,ok,0,0,0.002,7,-1.07,0.93,8.90,39,0.051,8.21
7.5950,0.08029,0.00698,0.89186,0.00000,0.00000,0.00000,30,-7,58,8,66,2,52,8,ok,0,0,0.002,7,-1.07,0.93,8.90,39,0.064,8.21
7.6177,0.08029,0.00698,0.89186,0.00000,0.00000,0.00000,26,-6,58,7,64,0,53,8,ok,0,0,0.002,7,-1.07,0.93,8.90,39,0.076,8.21
7.6210,0.08029,0.00698,0.89186,0.00000,0.00000,0.00000,24,-4,59,8,63,-2,54,8,ok,0,0,0.002,7,-1.07,0.93,8.90,39,0.089,8.21
7.6334,0.08029,0.00698,0.89186,0.00000,0.00000,0.00000,20,-1,59,9,61,-3,55,8,ok,0,0,0.002,8,-1.07,0.93,8.90,39,0.102,8.21
7.6537,0.08029,0.00698,0.89186,0.00000,0.00000,0.00000,19,-1,60,10,60,-5,55,7,ok,0,0,0.002,8,-1.07,0.93,8.90,39,0.115,8.21
7.6585,0.08029,0.00698,0.89186,0.00000,0.00000,0.00000,18,0,61,10,58,-5,57,5,ok,0,0,0.002,8,-1.07,0.93,8.90,39,0.127,8.21
7.6711,0.08029,0.00698,0.89186,0.00000,0.00000,0.00000,16,2,61,11,55,-6,57,6,ok,0,0,0.002,8,-1.07,0.93,8.90,39,0.140,8.21
7.6937,0.08029,0.00698,0.89186,0.00000,0.00000,0.00000,15,5,61,11,53,-6,58,7,ok,0,0,0.002,8,-1.07,0.93,8.90,39,0.152,8.21
7.6969,0.08029,0.00698,0.89186,0.00000,0.00000,0.00000,13,8,61,12,50,-6,59,8,ok,0,0,0.002,8,-1.07,0.93,8.90,39,0.165,8.21
7.7095,0.08029,0.00698,0.89186,0.00000,0.00000,0.00000,12,11,62,12,47,-5,59,8,ok,0,0,0.002,8,-1.07,0.93,8.90,39,0.178,8.21
7.7297,0.08029,0.00698,0.89186,0.00000,0.00000,0.00000,14,11,62,13,45,-5,60,9,ok,0,0,0.002,8,-1.07,0.93,8.90,39,0.191,8.21
7.7347,0.05061,-0.00349,0.93899,0.00000,0.00000,0.00000,14,11,62,14,42,-4,60,9,ok,0,0,0.002,8,0.51,0.21,10.18,40,0.000,8.21
7.7472,0.05061,-0.00349,0.93899,0.00000,0.00000,0.00000,16,10,62,14,40,-4,61,10,ok,0,0,0.002,8,0.51,0.21,10.18,40,0.013,8.21
7.7697,0.05061,-0.00349,0.93899,0.00000,0.00000,0.00000,17,9,62,14,37,-3,61,11,ok,0,0,0.002,8,0.51,0.21,10.18,40,0.025,8.21
7.7729,0.05061,-0.00349,0.93899,0.00000,0.00000,0.00000,18,8,63,15,34,-3,61,12,ok,0,0,0.002,8,0.51,0.21,10.18,40,0.038,8.21
7.7855,0.05061,-0.00349,0.93899,0.00000,0.00000,0.00000,20,7,63,16,31,-1,61,12,ok,0,0,0.002,8,0.51,0.21,10.18,40,0.051,8.21
7.8058,0.05061,-0.00349,0.93899,0.00000,0.00000,0.00000,21,7,63,17,29,0,62,13,ok,0,0,0.002,8,0.51,0.21,10.18,40,0.064,8.21
7.8107,0.05061,-0.00349,0.93899,0.00000,0.00000,0.00000,22,6,64,18,27,2,62,14,ok,0,0,0.002,8,0.51,0.21,10.18,40,0.076,8.21
7.8231,0.05061,-0.00349,0.93899,0.00000,0.00000,0.00000,24,5,64,19,25,5,63,15,ok,0,0,0.002,8,0.51,0.21,10.18,40,0.089,8.21
7.8457,0.05061,-0.00349,0.93899,0.00000,0.00000,0.00000,24,4,64,20,24,8,63,16,ok,0,0,0.002,8,0.51,0.21,10.18,40,0.101,8.21
7.8489,0.05061,-0.00349,0.93899,0.00000,0.00000,0.00000,26,4,64,22,23,12,63,17,ok,0,0,0.002,8,0.51,0.21,10.18,40,0.114,8.21
7.8615,0.05061,-0.00349,0.93899,0.00000,0.00000,0.00000,27,3,64,23,22,15,64,17,ok,0,0,0.002,8,0.51,0.21,10.18,40,0.127,8.21
7.8817,0.05061,-0.00349,0.93899,0.00000,0.00000,0.00000,28,3,64,26,24,14,64,18,ok,0,0,0.002,8,0.51,0.21,10.18,40,0.139,8.21
7.8867,0.05061,-0.00349,0.93899,0.00000,0.00000,0.00000,29,3,63,27,24,14,64,19,ok,0,0,0.002,8,0.51,0.21,10.18,40,0.152,8.21
7.8990,0.05061,-0.00349,0.93899,0.00000,0.00000,0.00000,30,2,65,25,25,12,64,20,ok,0,0,0.002,8,0.51,0.21,10.18,40,0.165,8.21
7.9217,0.05061,-0.00349,0.93899,0.00000,0.00000,0.00000,31,2,67,22,26,11,65,21,ok,0,0,0.002,8,0.51,0.21,10.18,40,0.177,8.21
7.9249,0.05061,-0.00349,0.93899,0.00000,0.00000,0.00000,32,1,70,19,27,11,65,22,ok,0,0,0.002,8,0.51,0.21,10.18,40,0.190,8.21
7.9378,0.04887,0.08203,0.95120,0.00000,0.00000,0.00000,34,1,71,14,28,11,64,23,ok,0,0,0.002,8,0.25,0.35,9.30,41,0.000,8.21
7.9577,0.04887,0.08203,0.95120,0.00000,0.00000,0.00000,35,2,71,13,29,9,64,25,ok,0,0,0.002,8,0.25,0.35,9.30,41,0.013,8.21
7.9625,0.04887,0.08203,0.95120,0.00000,0.00000,0.00000,37,2,71,12,32,9,65,25,ok,0,0,0.002,8,0.25,0.35,9.30,41,0.025,8.21
7.9750,0.04887,0.08203,0.95120,0.00000,0.00000,0.00000,38,2,71,9,32,9,64,28,ok,0,0,0.002,8,0.25,0.35,9.30,41,0.038,8.21
8.0017,0.04887,0.08203,0.95120,0.00000,0.00000,0.00000,40,2,70,6,35,9,63,29,ok,0,0,0.002,8,0.25,0.35,9.30,41,0.050,8.21
8.0051,0.04887,0.08203,0.95120,0.00000,0.00000,0.00000,41,2,69,3,36,9,64,30,ok,0,0,0.002,8,0.25,0.35,9.30,41,0.067,8.21
8.0175,0.04887,0.08203,0.95120,0.00000,0.00000,0.00000,42,2,67,0,37,9,64,32,ok,0,0,0.002,8,0.25,0.35,9.30,41,0.080,8.21
8.0377,0.04887,0.08203,0.95120,0.00000,0.00000,0.00000,43,2,66,-2,38,8,63,34,ok,0,0,0.002,8,0.25,0.35,9.30,41,0.093,8.21
8.0425,0.04887,0.08203,0.95120,0.00000,0.00000,0.00000,44,2,64,-3,39,8,63,35,ok,0,0,0.002,8,0.25,0.35,9.30,41,0.105,8.21
8.0551,0.04887,0.08203,0.95120,0.00000,0.00000,0.00000,45,2,62,-4,40,7,64,35,ok,0,0,0.002,8,0.25,0.35,9.30,41,0.118,8.21
8.0777,0.04887,0.08203,0.95120,0.00000,0.00000,0.00000,46,2,61,-5,42,8,66,34,ok,0,0,0.002,8,0.25,0.35,9.30,41,0.130,8.21
8.0811,0.04887,0.08203,0.95120,0.00000,0.00000,0.00000,47,2,60,-8,43,7,68,32,ok,0,0,0.002,8,0.25,0.35,9.30,41,0.143,8.21
8.0934,0.04887,0.08203,0.95120,0.00000,0.00000,0.00000,48,3,58,-8,44,8,70,26,ok,0,0,0.002,8,0.25,0.35,9.30,41,0.156,8.21
8.1137,0.04887,0.08203,0.95120,0.00000,0.00000,0.00000,49,3,55,-9,45,8,71,23,ok,0,0,0.002,8,0.25,0.35,9.30,41,0.168,8.21
8.1185,0.04887,0.08203,0.95120,0.00000,0.00000,0.00000,50,3,53,-9,46,8,73,20,ok,0,0,0.002,8,0.25,0.35,9.30,41,0.181,8.21
8.1311,0.04887,0.08203,0.95120,0.00000,0.00000,0.00000,50,5,51,-10,47,8,73,19,ok,0,0,0.002,8,0.25,0.35,9.30,41,0.194,8.21
8.1537,-0.07156,0.04712,0.98786,0.00000,0.00000,0.00000,51,5,49,-10,47,8,73,17,ok,0,0,0.002,8,-1.53,-0.46,11.05,42,0.000,8.21
8.1570,-0.07156,0.04712,0.98786,0.00000,0.00000,0.00000,52,5,46,-10,48,7,73,14,ok,0,0,0.002,8,-1.53,-0.46,11.05,42,0.013,8.21
8.1694,-0.07156,0.04712,0.98786,0.00000,0.00000,0.00000,53,5,44,-9,49,8,73,11,ok,0,0,0.002,8,-1.53,-0.46,11.05,42,0.026,8.21
8.1897,-0.07156,0.04712,0.98786,0.00000,0.00000,0.00000,53,6,41,-10,49,7,72,10,ok,0,0,0.002,8,-1.53,-0.46,11.05,42,0.039,8.21
8.1947,-0.07156,0.04712,0.98786,0.00000,0.00000,0.00000,56,6,39,-10,50,8,72,6,ok,0,0,0.002,8,-1.53,-0.46,11.05,42,0.051,8.21
8.2070,-0.07156,0.04712,0.98786,0.00000,0.00000,0.00000,56,6,36,-9,51,7,71,5,ok,0,0,0.002,8,-1.53,-0.46,11.05,42,0.064,8.21
8.2297,-0.07156,0.04712,0.98786,0.00000,0.00000,0.00000,57,6,33,-8,52,8,70,3,ok,0,0,0.002,8,-1.53,-0.46,11.05,42,0.076,8.21
8.2329,-0.07156,0.04712,0.98786,0.00000,0.00000,0.00000,57,7,30,-7,52,8,68,1,ok,0,0,0.002,8,-1.53,-0.46,11.05,42,0.089,8.21
8.2455,-0.07156,0.04712,0.98786,0.00000,0.00000,0.00000,58,7,27,-6,53,9,66,1,ok,0,0,0.002,8,-1.53,-0.46,11.05,42,0.102,8.21
8.2657,-0.07156,0.04712,0.98786,0.00000,0.00000,0.00000,59,7,24,-4,55,8,65,-1,ok,2,0,0.002,8,-1.53,-0.46,11.05,42,0.115,8.21
8.2705,-0.07156,0.04712,0.98786,0.00000,0.00000,0.00000,60,9,21,-2,55,8,64,-2,ok,2,0,0.002,8,-1.53,-0.46,11.05,42,0.127,8.21
8.2830,-0.07156,0.04712,0.98786,0.00000,0.00000,0.00000,60,9,19,-1,57,6,62,-4,ok,2,0,0.002,8,-1.53,-0.46,11.05,42,0.140,8.21
8.3057,-0.07156,0.04712,0.98786,0.00000,0.00000,0.00000,61,9,18,1,58,7,60,-5,ok,2,0,0.002,8,-1.53,-0.46,11.05,42,0.152,8.21
8.3090,-0.07156,0.04712,0.98786,0.00000,0.00000,0.00000,61,10,16,3,58,8,58,-5,ok,2,0,0.002,8,-1.53,-0.46,11.05,42,0.165,8.21
8.3215,-0.07156,0.04712,0.98786,0.00000,0.00000,0.00000,61,11,15,6,59,9,56,-6,ok,2,0,0.002,8,-1.53,-0.46,11.05,42,0.178,8.21
8.3417,-0.07156,0.04712,0.98786,0.00000,0.00000,0.00000,61,12,13,9,59,9,54,-7,ok,2,0,0.002,8,-1.53,-0.46,11.05,42,0.191,8.21
8.3467,-0.01745,0.03491,0.98437,0.00000,0.00000,0.00000,62,12,12,11,60,10,51,-6,ok,2,0,0.002,8,0.52,-0.04,9.53,43,0.000,8.21
8.3592,-0.01745,0.03491,0.98437,0.00000,0.00000,0.00000,62,13,14,12,60,10,48,-5,ok,2,0,0.002,8,0.52,-0.04,9.53,43,0.013,8.21
8.3817,-0.01745,0.03491,0.98437,0.00000,0.00000,0.00000,61,13,15,11,61,11,46,-6,ok,2,0,0.002,8,0.52,-0.04,9.53,43,0.025,8.21
8.3849,-0.01745,0.03491,0.98437,0.00000,0.00000,0.00000,62,14,16,10,61,11,42,-5,ok,2,0,0.002,8,0.52,-0.04,9.53,43,0.038,8.21
8.3975,-0.01745,0.03491,0.98437,0.00000,0.00000,0.00000,62,15,19,9,61,12,41,-5,ok,2,0,0.002,8,0.52,-0.04,9.53,43,0.051,8.21
8.4177,-0.01745,0.03491,0.98437,0.00000,0.00000,0.00000,62,16,19,8,61,13,37,-4,ok,2,0,0.002,8,0.52,-0.04,9.53,43,0.064,8.21
8.4225,-0.01745,0.03491,0.98437,0.00000,0.00000,0.00000,63,17,21,7,61,13,35,-3,ok,2,0,0.002,8,0.52,-0.04,9.53,43,0.076,8.21
8.4350,-0.01745,0.03491,0.98437,0.00000,0.00000,0.00000,63,18,21,7,62,15,31,-2,ok,2,0,0.002,8,0.52,-0.04,9.53,43,0.089,8.21
8.4577,-0.01745,0.03491,0.98437,0.00000,0.00000,0.00000,64,19,23,6,63,14,30,-1,ok,2,0,0.002,8,0.52,-0.04,9.53,43,0.101,8.21
8.4610,-0.01745,0.03491,0.98437,0.00000,0.00000,0.00000,64,20,24,5,63,16,28,1,ok,2,0,0.002,8,0.52,-0.04,9.53,43,0.114,8.21
8.4735,-0.01745,0.03491,0.98437,0.00000,0.00000,0.00000,65,21,24,4,63,17,26,4,ok,2,0,0.002,8,0.52,-0.04,9.53,43,0.127,8.21
8.4937,-0.01745,0.03491,0.98437,0.00000,0.00000,0.00000,65,22,25,4,63,17,24,7,ok,2,0,0.002,8,0.52,-0.04,9.53,43,0.140,8.21
8.4987,-0.01745,0.03491,0.98437,0.00000,0.00000,0.00000,65,23,26,3,64,18,23,10,ok,2,0,0.002,8,0.52,-0.04,9.53,43,0.152,8.21
8.5111,-0.01745,0.03491,0.98437,0.00000,0.00000,0.00000,64,26,27,3,64,19,23,12,ok,2,0,0.002,8,0.52,-0.04,9.53,43,0.165,8.21
8.5337,-0.01745,0.03491,0.98437,0.00000,0.00000,0.00000,64,27,28,2,64,20,25,12,ok,2,0,0.002,8,0.52,-0.04,9.53,43,0.177,8.21
8.5369,-0.01745,0.03491,0.98437,0.00000,0.00000,0.00000,65,25,29,2,64,21,25,11,ok,2,0,0.002,8,0.52,-0.04,9.53,43,0.190,8.21
8.5497,-0.01745,0.09250,1.08036,0.00000,0.00000,0.00000,67,21,30,2,65,22,26,10,ok,2,0,0.002,8,0.59,0.22,9.77,44,0.000,8.21
8.5697,-0.01745,0.09250,1.08036,0.00000,0.00000,0.00000,70,18,31,1,64,23,27,9,ok,2,0,0.002,8,0.59,0.22,9.77,44,0.013,8.21
8.5747,-0.01745,0.09250,1.08036,0.00000,0.00000,0.00000,70,14,33,2,64,25,28,10,ok,2,0,0.002,8,0.59,0.22,9.77,44,0.025,8.21
8.5871,-0.01745,0.09250,1.08036,0.00000,0.00000,0.00000,71,11,34,2,65,26,29,9,ok,2,0,0.002,8,0.59,0.22,9.77,44,0.038,8.21
8.6097,-0.01745,0.09250,1.08036,0.00000,0.00000,0.00000,70,11,35,2,64,28,30,8,ok,2,0,0.002,8,0.59,0.22,9.77,44,0.050,8.21
8.6129,-0.01745,0.09250,1.08036,0.00000,0.00000,0.00000,70,7,37,2,64,29,32,8,ok,2,0,0.002,8,0.59,0.22,9.77,44,0.063,8.21
8.6254,-0.01745,0.09250,1.08036,0.00000,0.00000,0.00000,69,5,38,3,64,30,33,9,ok,2,0,0.002,8,0.59,0.22,9.77,44,0.076,8.21
8.6457,-0.01745,0.09250,1.08036,0.00000,0.00000,0.00000,68,2,40,3,64,32,35,8,ok,2,0,0.002,8,0.59,0.22,9.77,44,0.089,8.21
8.6506,-0.01745,0.09250,1.08036,0.00000,0.00000,0.00000,67,-1,41,3,63,34,36,8,ok,2,0,0.002,9,0.59,0.22,9.77,44,0.101,8.21
8.6630,-0.01745,0.09250,1.08036,0.00000,0.00000,0.00000,66,-3,42,2,63,35,37,8,ok,2,0,0.002,9,0.59,0.22,9.77,44,0.114,8.21
8.6857,-0.01745,0.09250,1.08036,0.00000,0.00000,0.00000,65,-4,44,3,64,36,38,8,ok,2,0,0.002,9,0.59,0.22,9.77,44,0.126,8.21
8.6890,-0.01745,0.09250,1.08036,0.00000,0.00000,0.00000,63,-5,44,3,65,35,39,7,ok,2,0,0.002,9,0.59,0.22,9.77,44,0.139,8.21
8.7015,-0.01745,0.09250,1.08036,0.00000,0.00000,0.00000,62,-6,45,3,67,33,41,6,ok,2,0,0.002,9,0.59,0.22,9.77,44,0.152,8.21
8.7217,-0.01745,0.09250,1.08036,0.00000,0.00000,0.00000,61,-8,46,3,69,29,42,6,ok,2,0,0.002,9,0.59,0.22,9.77,44,0.165,8.21
8.7267,-0.01745,0.09250,1.08036,0.00000,0.00000,0.00000,58,-9,47,4,71,24,44,6,ok,2,0,0.002,9,0.59,0.22,9.77,44,0.177,8.21
8.7391,-0.01745,0.09250,1.08036,0.00000,0.00000,0.00000,56,-10,49,4,73,22,44,6,ok,2,0,0.002,9,0.59,0.22,9.77,44,0.190,8.21
8.7617,0.08552,0.06981,1.08036,0.00000,0.00000,0.00000,54,-11,49,3,74,21,45,7,ok,2,0,0.002,9,1.25,0.79,10.50,45,0.000,8.21
8.7649,0.08552,0.06981,1.08036,0.00000,0.00000,0.00000,51,-11,49,5,74,19,46,7,ok,2,0,0.002,9,1.25,0.79,10.50,45,0.013,8.21
8.7775,0.08552,0.06981,1.08036,0.00000,0.00000,0.00000,49,-11,51,6,74,15,47,7,ok,2,0,0.002,9,1.25,0.79,10.50,45,0.026,8.21
8.7977,0.08552,0.06981,1.08036,0.00000,0.00000,0.00000,46,-11,51,6,74,12,48,7,ok,2,0,0.002,9,1.25,0.79,10.50,45,0.039,8.21
8.8025,0.08552,0.06981,1.08036,0.00000,0.00000,0.00000,44,-10,53,6,73,10,49,7,ok,2,0,0.002,9,1.25,0.79,10.50,45,0.051,8.21
8.8152,0.08552,0.06981,1.08036,0.00000,0.00000,0.00000,41,-10,53,6,72,7,49,8,ok,0,0,0.002,9,1.25,0.79,10.50,45,0.064,8.21
8.8377,0.08552,0.06981,1.08036,0.00000,0.00000,0.00000,38,-10,55,6,72,5,50,7,ok,0,0,0.002,9,1.25,0.79,10.50,45,0.076,8.21
8.8409,0.08552,0.06981,1.08036,0.00000,0.00000,0.00000,36,-9,56,6,71,4,51,8,ok,0,0,0.002,9,1.25,0.79,10.50,45,0.089,8.21
8.8535,0.08552,0.06981,1.08036,0.00000,0.00000,0.00000,32,-8,57,6,69,1,52,7,ok,0,0,0.002,9,1.25,0.79,10.50,45,0.102,8.21
8.8737,0.08552,0.06981,1.08036,0.00000,0.00000,0.00000,30,-7,57,7,66,2,52,7,ok,0,0,0.002,9,1.25,0.79,10.50,45,0.115,8.21
8.8785,0.08552,0.06981,1.08036,0.00000,0.00000,0.00000,26,-6,57,7,65,0,53,7,ok,0,0,0.002,9,1.25,0.79,10.50,45,0.127,8.21
8.8912,0.08552,0.06981,1.08036,0.00000,0.00000,0.00000,23,-4,58,8,63,-2,54,8,ok,0,0,0.002,9,1.25,0.79,10.50,45,0.139,8.21
8.9137,0.08552,0.06981,1.08036,0.00000,0.00000,0.00000,19,-2,59,9,61,-3,55,8,ok,0,0,0.002,9,1.25,0.79,10.50,45,0.152,8.21
8.9169,0.08552,0.06981,1.08036,0.00000,0.00000,0.00000,19,-2,60,11,60,-5,55,7,ok,0,0,0.002,9,1.25,0.79,10.50,45,0.165,8.21
8.9294,0.08552,0.06981,1.08036,0.00000,0.00000,0.00000,18,-1,60,10,58,-5,57,5,ok,0,0,0.002,9,1.25,0.79,10.50,45,0.178,8.21
8.9497,0.08552,0.06981,1.08036,0.00000,0.00000,0.00000,16,1,61,11,56,-6,57,7,ok,0,0,0.002,9,1.25,0.79,10.50,45,0.191,8.21
8.9547,0.07330,-0.02094,1.10654,0.00000,0.00000,0.00000,14,4,61,11,54,-7,58,7,ok,0,0,0.002,9,0.82,0.04,9.36,46,0.000,8.21
8.9672,0.07330,-0.02094,1.10654,0.00000,0.00000,0.00000,12,8,61,12,51,-6,59,8,ok,0,0,0.002,9,0.82,0.04,9.36,46,0.013,8.21
8.9897,0.07330,-0.02094,1.10654,0.00000,0.00000,0.00000,11,10,61,12,48,-5,59,8,ok,0,0,0.002,9,0.82,0.04,9.36,46,0.025,8.21
8.9928,0.07330,-0.02094,1.10654,0.00000,0.00000,0.00000,13,11,62,13,46,-5,60,9,ok,0,0,0.002,9,0.82,0.04,9.36,46,0.038,8.21
9.0054,0.07330,-0.02094,1.10654,0.00000,0.00000,0.00000,14,10,61,13,43,-4,60,9,ok,0,0,0.002,9,0.82,0.04,9.36,46,0.051,8.21
9.0257,0.07330,-0.02094,1.10654,0.00000,0.00000,0.00000,15,9,62,14,40,-4,61,10,ok,0,0,0.002,9,0.82,0.04,9.36,46,0.064,8.21
9.0305,0.07330,-0.02094,1.10654,0.00000,0.00000,0.00000,17,9,62,14,37,-3,61,11,ok,0,0,0.002,9,0.82,0.04,9.36,46,0.076,8.21
9.0430,0.07330,-0.02094,1.10654,0.00000,0.00000,0.00000,18,8,63,15,34,-3,62,12,ok,0,0,0.002,9,0.82,0.04,9.36,46,0.089,8.21
9.0657,0.07330,-0.02094,1.10654,0.00000,0.00000,0.00000,20,7,63,15,31,-1,61,12,ok,0,0,0.002,9,0.82,0.04,9.36,46,0.101,8.21
9.0690,0.07330,-0.02094,1.10654,0.00000,0.00000,0.00000,21,7,63,17,29,0,62,13,ok,0,0,0.002,9,0.82,0.04,9.36,46,0.114,8.21
9.0815,0.07330,-0.02094,1.10654,0.00000,0.00000,0.00000,23,6,64,18,27,2,62,14,ok,0,0,0.002,9,0.82,0.04,9.36,46,0.127,8.21
9.1017,0.07330,-0.02094,1.10654,0.00000,0.00000,0.00000,24,5,64,19,25,5,63,14,ok,0,0,0.002,9,0.82,0.04,9.36,46,0.140,8.21
9.1065,0.07330,-0.02094,1.10654,0.00000,0.00000,0.00000,25,5,64,20,24,8,63,16,ok,0,0,0.002,9,0.82,0.04,9.36,46,0.152,8.21
9.1191,0.07330,-0.02094,1.10654,0.00000,0.00000,0.00000,26,4,64,21,23,12,63,17,ok,0,0,0.002,9,0.82,0.04,9.36,46,0.165,8.21
9.1417,0.07330,-0.02094,1.10654,0.00000,0.00000,0.00000,27,4,64,22,22,15,64,17,ok,0,0,0.002,9,0.82,0.04,9.36,46,0.177,8.21
9.1450,0.07330,-0.02094,1.10654,0.00000,0.00000,0.00000,28,3,64,25,24,14,64,18,ok,0,0,0.002,9,0.82,0.04,9.36,46,0.190,8.21
9.1577,-0.08378,0.11868,1.10654,0.00000,0.00000,0.00000,29,3,64,27,24,14,64,19,ok,0,0,0.002,9,1.65,-1.16,10.52,47,0.000,8.21
9.1777,-0.08378,0.11868,1.10654,0.00000,0.00000,0.00000,30,2,65,26,24,11,64,20,ok,0,0,0.002,9,1.65,-1.16,10.52,47,0.013,8.21
9.1825,-0.08378,0.11868,1.10654,0.00000,0.00000,0.00000,31,2,68,23,25,10,65,21,ok,0,0,0.002,9,1.65,-1.16,10.52,47,0.025,8.21
9.1951,-0.08378,0.11868,1.10654,0.00000,0.00000,0.00000,32,1,70,20,26,10,65,22,ok,0,0,0.002,9,1.65,-1.16,10.52,47,0.038,8.21
9.2177,-0.08378,0.11868,1.10654,0.00000,0.00000,0.00000,34,0,70,16,28,10,65,23,ok,0,0,0.002,9,1.65,-1.16,10.52,47,0.050,8.21
9.2209,-0.08378,0.11868,1.10654,0.00000,0.00000,0.00000,35,0,70,14,29,8,65,25,ok,0,0,0.002,9,1.65,-1.16,10.52,47,0.063,8.21
9.2334,-0.08378,0.11868,1.10654,0.00000,0.00000,0.00000,36,0,70,13,32,9,66,26,ok,0,0,0.002,9,1.65,-1.16,10.52,47,0.076,8.21
9.2537,-0.08378,0.11868,1.10654,0.00000,0.00000,0.00000,37,0,70,10,33,9,65,28,ok,0,0,0.002,9,1.65,-1.16,10.52,47,0.089,8.21
9.2585,-0.08378,0.11868,1.10654,0.00000,0.00000,0.00000,39,1,69,7,35,9,64,30,ok,0,0,0.002,9,1.65,-1.16,10.52,47,0.101,8.21
9.2710,-0.08378,0.11868,1.10654,0.00000,0.00000,0.00000,40,1,68,4,36,8,65,31,ok,0,0,0.002,9,1.65,-1.16,10.52,47,0.114,8.21
9.2937,-0.08378,0.11868,1.10654,0.00000,0.00000,0.00000,41,1,67,1,37,9,64,33,ok,0,0,0.002,9,1.65,-1.16,10.52,47,0.126,8.21
9.2970,-0.08378,0.11868,1.10654,0.00000,0.00000,0.00000,43,1,66,-1,38,8,64,34,ok,0,0,0.002,9,1.65,-1.16,10.52,47,0.140,8.21
9.3097,-0.08378,0.11868,1.10654,0.00000,0.00000,0.00000,44,2,64,-3,39,8,64,35,ok,0,0,0.002,9,1.65,-1.16,10.52,47,0.152,8.21
9.3297,-0.08378,0.11868,1.10654,0.00000,0.00000,0.00000,44,2,62,-4,41,7,65,35,ok,0,0,0.002,9,1.65,-1.16,10.52,47,0.165,8.21
9.3345,-0.08378,0.11868,1.10654,0.00000,0.00000,0.00000,46,2,60,-6,42,7,66,34,ok,0,0,0.003,9,1.65,-1.16,10.52,47,0.177,8.21
9.3473,-0.08378,0.11868,1.10654,0.00000,0.00000,0.00000,47,3,59,-8,43,7,68,32,ok,0,0,0.003,9,1.65,-1.16,10.52,47,0.190,8.21
9.3697,-0.02967,0.06981,1.14319,0.00000,0.00000,0.00000,48,3,57,-8,44,7,70,27,ok,0,0,0.003,9,0.19,-0.88,7.80,48,0.000,8.21
9.3731,-0.02967,0.06981,1.14319,0.00000,0.00000,0.00000,49,3,55,-10,45,7,71,23,ok,0,0,0.003,9,0.19,-0.88,7.80,48,0.013,8.21
9.3855,-0.02967,0.06981,1.14319,0.00000,0.00000,0.00000,50,3,53,-10,46,7,73,20,ok,0,0,0.003,9,0.19,-0.88,7.80,48,0.026,8.21
9.4058,-0.02967,0.06981,1.14319,0.00000,0.00000,0.00000,50,5,51,-11,47,7,73,20,ok,0,0,0.003,9,0.19,-0.88,7.80,48,0.038,8.21
9.4105,-0.02967,0.06981,1.14319,0.00000,0.00000,0.00000,51,6,48,-11,48,8,73,18,ok,0,0,0.003,9,0.19,-0.88,7.80,48,0.051,8.21
9.4231,-0.02967,0.06981,1.14319,0.00000,0.00000,0.00000,52,5,46,-11,49,8,73,14,ok,0,0,0.003,9,0.19,-0.88,7.80,48,0.063,8.21
9.4457,-0.02967,0.06981,1.14319,0.00000,0.00000,0.00000,53,6,44,-10,49,8,72,12,ok,0,0,0.003,9,0.19,-0.88,7.80,48,0.076,8.21
9.4491,-0.02967,0.06981,1.14319,0.00000,0.00000,0.00000,53,7,41,-11,50,8,72,10,ok,0,0,0.003,9,0.19,-0.88,7.80,48,0.089,8.21
9.4614,-0.02967,0.06981,1.14319,0.00000,0.00000,0.00000,56,7,39,-11,51,8,71,6,ok,0,0,0.003,9,0.19,-0.88,7.80,48,0.102,8.21
9.4817,-0.02967,0.06981,1.14319,0.00000,0.00000,0.00000,56,7,36,-10,52,7,71,5,ok,0,0,0.003,9,0.19,-0.88,7.80,48,0.114,8.21
9.4867,-0.02967,0.06981,1.14319,0.00000,0.00000,0.00000,57,7,33,-9,52,8,70,3,ok,0,0,0.003,9,0.19,-0.88,7.80,48,0.127,8.21
9.4991,-0.02967,0.06981,1.14319,0.00000,0.00000,0.00000,57,8,30,-8,53,8,68,1,ok,0,0,0.003,9,0.19,-0.88,7.80,48,0.139,8.21
9.5217,-0.02967,0.06981,1.14319,0.00000,0.00000,0.00000,58,8,27,-6,54,9,66,1,ok,0,0,0.003,9,0.19,-0.88,7.80,48,0.152,8.21
9.5249,-0.02967,0.06981,1.14319,0.00000,0.00000,0.00000,59,8,24,-5,55,9,65,-1,ok,0,0,0.003,9,0.19,-0.88,7.80,48,0.165,8.21
9.5375,-0.02967,0.06981,1.14319,0.00000,0.00000,0.00000,60,9,20,-2,55,8,64,-3,ok,0,0,0.003,9,0.19,-0.88,7.80,48,0.178,8.21
9.5577,-0.02967,0.06981,1.14319,0.00000,0.00000,0.00000,60,9,19,-1,58,6,62,-4,ok,0,0,0.003,9,0.19,-0.88,7.80,48,0.190,8.21
9.5627,-0.05061,0.02443,1.15715,0.00000,0.00000,0.00000,60,9,18,1,58,8,60,-5,ok,0,0,0.003,9,0.08,-0.24,9.11,49,0.000,8.21
9.5752,-0.05061,0.02443,1.15715,0.00000,0.00000,0.00000,61,10,16,3,59,8,58,-5,ok,2,0,0.003,9,0.08,-0.24,9.11,49,0.013,8.21
9.5977,-0.05061,0.02443,1.15715,0.00000,0.00000,0.00000,61,10,14,6,59,9,56,-6,ok,2,0,0.003,9,0.08,-0.24,9.11,49,0.025,8.21
9.6009,-0.05061,0.02443,1.15715,0.00000,0.00000,0.00000,61,11,13,9,59,9,54,-7,ok,2,0,0.003,9,0.08,-0.24,9.11,49,0.038,8.21
9.6135,-0.05061,0.02443,1.15715,0.00000,0.00000,0.00000,61,11,12,12,60,10,51,-6,ok,2,0,0.003,9,0.08,-0.24,9.11,49,0.051,8.21
9.6378,-0.05061,0.02443,1.15715,0.00000,0.00000,0.00000,61,12,14,12,60,10,48,-5,ok,2,0,0.003,9,0.08,-0.24,9.11,49,0.064,8.21
9.6410,-0.05061,0.02443,1.15715,0.00000,0.00000,0.00000,61,13,15,11,61,11,46,-5,ok,2,0,0.003,9,0.08,-0.24,9.11,49,0.079,8.21
9.6539,-0.05061,0.02443,1.15715,0.00000,0.00000,0.00000,62,13,17,10,61,11,43,-5,ok,2,0,0.003,9,0.08,-0.24,9.11,49,0.091,8.21
9.6737,-0.05061,0.02443,1.15715,0.00000,0.00000,0.00000,62,14,19,9,61,12,41,-5,ok,2,0,0.003,9,0.08,-0.24,9.11,49,0.104,8.21
9.6786,-0.05061,0.02443,1.15715,0.00000,0.00000,0.00000,62,15,19,9,61,13,37,-3,ok,2,0,0.003,10,0.08,-0.24,9.11,49,0.116,8.21
9.6911,-0.05061,0.02443,1.15715,0.00000,0.00000,0.00000,63,16,21,8,61,13,35,-3,ok,2,0,0.003,10,0.08,-0.24,9.11,49,0.129,8.21
9.7137,-0.05061,0.02443,1.15715,0.00000,0.00000,0.00000,63,17,22,7,62,14,31,-1,ok,2,0,0.003,10,0.08,-0.24,9.11,49,0.141,8.21
9.7169,-0.05061,0.02443,1.15715,0.00000,0.00000,0.00000,64,19,23,6,63,14,30,0,ok,2,0,0.003,10,0.08,-0.24,9.11,49,0.154,8.21
9.7298,-0.05061,0.02443,1.15715,0.00000,0.00000,0.00000,64,20,24,5,63,15,28,1,ok,2,0,0.003,10,0.08,-0.24,9.11,49,0.167,8.21
9.7497,-0.05061,0.02443,1.15715,0.00000,0.00000,0.00000,65,21,24,5,63,16,26,4,ok,2,0,0.003,10,0.08,-0.24,9.11,49,0.180,8.21
9.7546,-0.05061,0.02443,1.15715,0.00000,0.00000,0.00000,65,22,25,4,63,17,25,7,ok,2,0,0.003,10,0.08,-0.24,9.11,49,0.192,8.21
9.7673,-0.05061,0.14137,1.22173,0.00000,0.00000,0.00000,65,23,26,3,64,18,23,11,ok,2,0,0.003,10,0.27,-1.14,9.79,50,0.000,8.21
9.7898,-0.05061,0.14137,1.22173,0.00000,0.00000,0.00000,64,26,27,3,63,19,23,13,ok,2,0,0.003,10,0.27,-1.14,9.79,50,0.013,8.21
9.7929,-0.05061,0.14137,1.22173,0.00000,0.00000,0.00000,64,27,28,2,63,20,25,12,ok,2,0,0.003,10,0.27,-1.14,9.79,50,0.026,8.21
9.8058,-0.05061,0.14137,1.22173,0.00000,0.00000,0.00000,65,25,29,2,64,21,25,12,ok,2,0,0.003,10,0.27,-1.14,9.79,50,0.039,8.21
9.8257,-0.05061,0.14137,1.22173,0.00000,0.00000,0.00000,67,21,29,2,65,22,25,10,ok,2,0,0.003,10,0.27,-1.14,9.79,50,0.051,8.21
9.8306,-0.05061,0.14137,1.22173,0.00000,0.00000,0.00000,69,18,30,2,64,23,27,9,ok,2,0,0.003,10,0.27,-1.14,9.79,50,0.064,8.21
9.8430,-0.05061,0.14137,1.22173,0.00000,0.00000,0.00000,70,13,32,2,64,25,28,10,ok,2,0,0.003,10,0.27,-1.14,9.79,50,0.076,8.21
9.8657,-0.05061,0.14137,1.22173,0.00000,0.00000,0.00000,70,11,33,2,65,25,29,9,ok,2,0,0.003,10,0.27,-1.14,9.79,50,0.089,8.21
9.8688,-0.05061,0.14137,1.22173,0.00000,0.00000,0.00000,70,10,35,2,64,28,30,9,ok,2,0,0.003,10,0.27,-1.14,9.79,50,0.102,8.21
9.8816,-0.05061,0.14137,1.22173,0.00000,0.00000,0.00000,70,7,36,2,64,29,33,9,ok,2,0,0.003,10,0.27,-1.14,9.79,50,0.115,8.21
9.9017,-0.05061,0.14137,1.22173,0.00000,0.00000,0.00000,69,4,38,3,64,30,33,9,ok,2,0,0.003,10,0.27,-1.14,9.79,50,0.127,8.21
9.9066,-0.05061,0.14137,1.22173,0.00000,0.00000,0.00000,68,2,39,3,64,32,35,8,ok,2,0,0.003,10,0.27,-1.14,9.79,50,0.139,8.21
9.9190,-0.05061,0.14137,1.22173,0.00000,0.00000,0.00000,67,-1,41,3,64,34,36,8,ok,2,0,0.003,10,0.27,-1.14,9.79,50,0.152,8.21
9.9417,-0.05061,0.14137,1.22173,0.00000,0.00000,0.00000,66,-3,42,2,64,35,37,8,ok,2,0,0.003,10,0.27,-1.14,9.79,50,0.164,8.21
9.9449,-0.05061,0.14137,1.22173,0.00000,0.00000,0.00000,65,-4,43,2,65,35,39,8,ok,2,0,0.003,10,0.27,-1.14,9.79,50,0.178,8.21
9.9575,-0.05061,0.14137,1.22173,0.00000,0.00000,0.00000,62,-5,43,2,66,35,40,7,ok,2,0,0.003,10,0.27,-1.14,9.79,50,0.191,8.21
9.9777,0.09425,0.05760,1.24267,0.00000,0.00000,0.00000,61,-6,44,3,68,33,41,7,ok,2,0,0.003,10,0.99,1.52,10.22,51,0.000,8.21
9.9825,0.09425,0.05760,1.24267,0.00000,0.00000,0.00000,60,-9,46,2,70,29,42,6,ok,2,0,0.003,10,0.99,1.52,10.22,51,0.012,8.21
9.9950,0.09425,0.05760,1.24267,0.00000,0.00000,0.00000,58,-9,47,3,72,25,43,6,ok,2,0,0.003,10,0.99,1.52,10.22,51,0.025,8.21
10.0177,0.09425,0.05760,1.24267,0.00000,0.00000,0.00000,55,-10,48,3,73,22,44,6,ok,2,0,0.003,10,0.99,1.52,10.22,51,0.038,8.21
10.0210,0.09425,0.05760,1.24267,0.00000,0.00000,0.00000,53,-10,49,3,75,21,45,7,ok,2,0,0.003,10,0.99,1.52,10.22,51,0.051,8.21
10.0416,0.09425,0.05760,1.24267,0.00000,0.00000,0.00000,51,-11,49,5,74,19,46,7,ok,2,0,0.003,10,0.99,1.52,10.22,51,0.064,8.21
10.0537,0.09425,0.05760,1.24267,0.00000,0.00000,0.00000,49,-10,51,5,74,15,47,7,ok,2,0,0.003,10,0.99,1.52,10.22,51,0.076,8.21
10.0586,0.09425,0.05760,1.24267,0.00000,0.00000,0.00000,46,-10,52,5,73,12,48,7,ok,0,0,0.003,10,0.99,1.52,10.22,51,0.089,8.21
10.0712,0.09425,0.05760,1.24267,0.00000,0.00000,0.00000,44,-9,53,5,73,10,49,7,ok,0,0,0.003,10,0.99,1.52,10.22,51,0.101,8.21
10.0937,0.09425,0.05760,1.24267,0.00000,0.00000,0.00000,41,-10,53,6,72,7,50,8,ok,0,0,0.003,10,0.99,1.52,10.22,51,0.114,8.21
10.0969,0.09425,0.05760,1.24267,0.00000,0.00000,0.00000,38,-10,55,6,72,5,50,7,ok,0,0,0.003,10,0.99,1.52,10.22,51,0.127,8.21
10.1096,0.09425,0.05760,1.24267,0.00000,0.00000,0.00000,36,-10,55,6,71,4,51,8,ok,0,0,0.003,10,0.99,1.52,10.22,51,0.140,8.21
10.1297,0.09425,0.05760,1.24267,0.00000,0.00000,0.00000,32,-9,57,7,69,2,52,7,ok,0,0,0.003,10,0.99,1.52,10.22,51,0.152,8.21
10.1347,0.09425,0.05760,1.24267,0.00000,0.00000,0.00000,30,-8,57,8,66,2,52,8,ok,0,0,0.003,10,0.99,1.52,10.22,51,0.165,8.21
10.1470,0.09425,0.05760,1.24267,0.00000,0.00000,0.00000,26,-6,57,8,65,0,53,8,ok,0,0,0.003,10,0.99,1.52,10.22,51,0.177,8.21
10.1697,0.09425,0.05760,1.24267,0.00000,0.00000,0.00000,23,-4,58,8,63,-2,54,8,ok,0,0,0.003,10,0.99,1.52,10.22,51,0.190,8.21
10.1731,0.11694,-0.05411,1.20253,0.00000,0.00000,0.00000,19,-2,59,9,61,-3,55,8,ok,0,0,0.003,10,-0.56,1.45,9.77,52,0.000,8.21
10.1855,0.11694,-0.05411,1.20253,0.00000,0.00000,0.00000,19,-2,60,10,61,-4,55,7,ok,0,0,0.003,10,-0.56,1.45,9.77,52,0.013,8.21
10.2057,0.11694,-0.05411,1.20253,0.00000,0.00000,0.00000,18,-1,60,10,59,-5,57,5,ok,0,0,0.003,10,-0.56,1.45,9.77,52,0.025,8.21
10.2106,0.11694,-0.05411,1.20253,0.00000,0.00000,0.00000,16,1,61,11,56,-6,57,6,ok,0,0,0.003,10,-0.56,1.45,9.77,52,0.038,8.21
10.2232,0.11694,-0.05411,1.20253,0.00000,0.00000,0.00000,14,5,61,10,54,-6,58,7,ok,0,0,0.003,10,-0.56,1.45,9.77,52,0.050,8.21
10.2457,0.11694,-0.05411,1.20253,0.00000,0.00000,0.00000,13,8,61,12,51,-5,59,8,ok,0,0,0.003,10,-0.56,1.45,9.77,52,0.063,8.21
10.2488,0.11694,-0.05411,1.20253,0.00000,0.00000,0.00000,12,11,62,11,48,-5,59,8,ok,0,0,0.003,10,-0.56,1.45,9.77,52,0.076,8.21
10.2616,0.11694,-0.05411,1.20253,0.00000,0.00000,0.00000,14,11,62,12,45,-5,60,9,ok,0,0,0.003,10,-0.56,1.45,9.77,52,0.089,8.21
10.2817,0.11694,-0.05411,1.20253,0.00000,0.00000,0.00000,14,11,62,13,42,-4,60,9,ok,0,0,0.003,10,-0.56,1.45,9.77,52,0.101,8.21
10.2866,0.11694,-0.05411,1.20253,0.00000,0.00000,0.00000,16,10,63,13,40,-4,60,10,ok,0,0,0.003,10,-0.56,1.45,9.77,52,0.114,8.21
10.2992,0.11694,-0.05411,1.20253,0.00000,0.00000,0.00000,18,9,62,14,37,-3,61,11,ok,0,0,0.003,10,-0.56,1.45,9.77,52,0.126,8.21
10.3217,0.11694,-0.05411,1.20253,0.00000,0.00000,0.00000,18,9,63,15,34,-3,61,12,ok,0,0,0.003,10,-0.56,1.45,9.77,52,0.139,8.21
10.3248,0.11694,-0.05411,1.20253,0.00000,0.00000,0.00000,21,8,63,16,31,-1,61,12,ok,0,0,0.003,10,-0.56,1.45,9.77,52,0.152,8.21
10.3376,0.11694,-0.05411,1.20253,0.00000,0.00000,0.00000,21,7,63,17,29,0,62,13,ok,0,0,0.003,10,-0.56,1.45,9.77,52,0.165,8.21
10.3577,0.11694,-0.05411,1.20253,0.00000,0.00000,0.00000,23,6,65,18,27,2,62,14,ok,0,0,0.003,10,-0.56,1.45,9.77,52,0.177,8.21
10.3626,0.11694,-0.05411,1.20253,0.00000,0.00000,0.00000,24,5,65,19,25,5,63,15,ok,0,0,0.003,10,-0.56,1.45,9.77,52,0.190,8.21
10.3752,-0.07156,0.06458,1.23395,0.00000,0.00000,0.00000,25,5,65,20,24,8,63,16,ok,0,0,0.003,10,-0.19,-1.19,8.92,53,0.000,8.21
10.3978,-0.07156,0.06458,1.23395,0.00000,0.00000,0.00000,26,4,65,22,22,11,63,17,ok,0,0,0.003,10,-0.19,-1.19,8.92,53,0.013,8.21
10.4008,-0.07156,0.06458,1.23395,0.00000,0.00000,0.00000,27,3,65,24,21,14,64,17,ok,0,0,0.003,10,-0.19,-1.19,8.92,53,0.026,8.21
10.4136,-0.07156,0.06458,1.23395,0.00000,0.00000,0.00000,28,3,64,27,23,13,64,18,ok,0,0,0.003,10,-0.19,-1.19,8.92,53,0.039,8.21
10.4337,-0.07156,0.06458,1.23395,0.00000,0.00000,0.00000,29,1,63,28,23,13,65,19,ok,0,0,0.003,10,-0.19,-1.19,8.92,53,0.051,8.21
10.4386,-0.07156,0.06458,1.23395,0.00000,0.00000,0.00000,30,1,64,27,24,11,65,20,ok,0,0,0.003,10,-0.19,-1.19,8.92,53,0.064,8.21
10.4512,-0.07156,0.06458,1.23395,0.00000,0.00000,0.00000,30,0,67,24,26,10,65,21,ok,0,0,0.003,10,-0.19,-1.19,8.92,53,0.076,8.21
10.4737,-0.07156,0.06458,1.23395,0.00000,0.00000,0.00000,32,-1,69,20,27,11,65,22,ok,0,0,0.003,10,-0.19,-1.19,8.92,53,0.089,8.21
10.4768,-0.07156,0.06458,1.23395,0.00000,0.00000,0.00000,33,-1,70,16,29,10,65,24,ok,0,0,0.003,10,-0.19,-1.19,8.92,53,0.102,8.21
10.4895,-0.07156,0.06458,1.23395,0.00000,0.00000,0.00000,34,-1,71,14,30,9,65,26,ok,0,0,0.003,10,-0.19,-1.19,8.92,53,0.115,8.21
10.5097,-0.07156,0.06458,1.23395,0.00000,0.00000,0.00000,36,0,70,13,32,9,66,26,ok,0,0,0.003,10,-0.19,-1.19,8.92,53,0.127,8.21
10.5146,-0.07156,0.06458,1.23395,0.00000,0.00000,0.00000,37,1,70,9,32,9,65,28,ok,0,0,0.003,10,-0.19,-1.19,8.92,53,0.139,8.21
10.5271,-0.07156,0.06458,1.23395,0.00000,0.00000,0.00000,39,2,69,6,35,9,64,30,ok,0,0,0.003,10,-0.19,-1.19,8.92,53,0.152,8.21
10.5497,-0.07156,0.06458,1.23395,0.00000,0.00000,0.00000,41,2,69,3,36,8,65,31,ok,0,0,0.003,10,-0.19,-1.19,8.92,53,0.165,8.21
10.5529,-0.07156,0.06458,1.23395,0.00000,0.00000,0.00000,42,2,67,0,37,9,64,33,ok,0,0,0.003,10,-0.19,-1.19,8.92,53,0.178,8.21
10.5660,-0.07156,0.06458,1.23395,0.00000,0.00000,0.00000,43,2,66,-2,38,8,64,34,ok,0,0,0.003,10,-0.19,-1.19,8.92,53,0.191,8.21
10.5857,-0.03665,0.05934,1.26187,0.00000,0.00000,0.00000,45,3,64,-3,39,8,64,35,ok,0,0,0.003,10,-0.12,-1.20,8.58,54,0.000,8.21
10.5906,-0.03665,0.05934,1.26187,0.00000,0.00000,0.00000,45,3,62,-4,41,7,65,35,ok,0,0,0.003,10,-0.12,-1.20,8.58,54,0.012,8.21
10.6030,-0.03665,0.05934,1.26187,0.00000,0.00000,0.00000,46,3,61,-6,42,7,66,34,ok,0,0,0.003,10,-0.12,-1.20,8.58,54,0.025,8.21
10.6258,-0.03665,0.05934,1.26187,0.00000,0.00000,0.00000,47,3,60,-8,43,7,68,32,ok,0,0,0.003,10,-0.12,-1.20,8.58,54,0.038,8.21
10.6289,-0.03665,0.05934,1.26187,0.00000,0.00000,0.00000,49,4,58,-8,44,7,70,27,ok,0,0,0.003,10,-0.12,-1.20,8.58,54,0.051,8.21
10.6416,-0.03665,0.05934,1.26187,0.00000,0.00000,0.00000,50,3,55,-9,45,7,71,23,ok,0,0,0.003,10,-0.12,-1.20,8.58,54,0.063,8.21
10.6617,-0.03665,0.05934,1.26187,0.00000,0.00000,0.00000,50,3,53,-10,46,7,72,20,ok,0,0,0.003,10,-0.12,-1.20,8.58,54,0.076,8.21
10.6666,-0.03665,0.05934,1.26187,0.00000,0.00000,0.00000,50,5,51,-11,47,7,73,20,ok,0,0,0.003,10,-0.12,-1.20,8.58,54,0.088,8.21
10.6791,-0.03665,0.05934,1.26187,0.00000,0.00000,0.00000,52,6,49,-10,47,7,73,18,ok,0,0,0.003,10,-0.12,-1.20,8.58,54,0.101,8.21
10.7017,-0.03665,0.05934,1.26187,0.00000,0.00000,0.00000,52,6,46,-10,49,8,73,14,ok,0,0,0.003,11,-0.12,-1.20,8.58,54,0.113,8.21
10.7049,-0.03665,0.05934,1.26187,0.00000,0.00000,0.00000,53,6,44,-10,49,8,72,12,ok,0,0,0.003,11,-0.12,-1.20,8.58,54,0.127,8.21
10.7176,-0.03665,0.05934,1.26187,0.00000,0.00000,0.00000,53,7,41,-10,50,8,72,10,ok,0,0,0.003,11,-0.12,-1.20,8.58,54,0.139,8.21
10.7377,-0.03665,0.05934,1.26187,0.00000,0.00000,0.00000,56,7,39,-10,50,8,71,6,ok,0,0,0.003,11,-0.12,-1.20,8.58,54,0.152,8.21
10.7426,-0.03665,0.05934,1.26187,0.00000,0.00000,0.00000,56,7,36,-9,52,7,71,5,ok,0,0,0.003,11,-0.12,-1.20,8.58,54,0.164,8.21
10.7550,-0.03665,0.05934,1.26187,0.00000,0.00000,0.00000,57,7,33,-9,52,8,70,3,ok,0,0,0.003,11,-0.12,-1.20,8.58,54,0.177,8.21
10.7777,-0.03665,0.05934,1.26187,0.00000,0.00000,0.00000,57,8,30,-8,52,8,68,1,ok,0,0,0.003,11,-0.12,-1.20,8.58,54,0.189,8.21
10.7811,-0.05760,0.00698,1.30202,0.00000,0.00000,0.00000,58,8,27,-6,53,8,66,1,ok,0,0,0.003,11,0.15,-0.30,9.97,55,0.000,8.21
10.7936,-0.05760,0.00698,1.30202,0.00000,0.00000,0.00000,59,8,24,-5,54,8,65,-1,ok,0,0,0.003,11,0.15,-0.30,9.97,55,0.013,8.21
10.8138,-0.05760,0.00698,1.30202,0.00000,0.00000,0.00000,60,9,20,-2,55,8,64,-3,ok,0,0,0.003,11,0.15,-0.30,9.97,55,0.025,8.21
10.8187,-0.05760,0.00698,1.30202,0.00000,0.00000,0.00000,60,9,19,-1,58,6,62,-4,ok,0,0,0.003,11,0.15,-0.30,9.97,55,0.038,8.21
10.8310,-0.05760,0.00698,1.30202,0.00000,0.00000,0.00000,61,9,18,0,58,8,60,-5,ok,0,0,0.003,11,0.15,-0.30,9.97,55,0.050,8.21
10.8537,-0.05760,0.00698,1.30202,0.00000,0.00000,0.00000,61,10,16,3,58,9,58,-5,ok,0,0,0.003,11,0.15,-0.30,9.97,55,0.063,8.21
10.8568,-0.05760,0.00698,1.30202,0.00000,0.00000,0.00000,61,10,15,6,59,9,56,-6,ok,0,0,0.003,11,0.15,-0.30,9.97,55,0.076,8.21
10.8695,-0.05760,0.00698,1.30202,0.00000,0.00000,0.00000,61,12,13,9,59,9,54,-7,ok,2,0,0.003,11,0.15,-0.30,9.97,55,0.089,8.21
10.8897,-0.05760,0.00698,1.30202,0.00000,0.00000,0.00000,62,12,13,12,60,10,51,-6,ok,2,0,0.003,11,0.15,-0.30,9.97,55,0.101,8.21
10.8945,-0.05760,0.00698,1.30202,0.00000,0.00000,0.00000,62,13,15,12,60,10,48,-5,ok,2,0,0.003,11,0.15,-0.30,9.97,55,0.114,8.21
10.9072,-0.05760,0.00698,1.30202,0.00000,0.00000,0.00000,61,13,15,11,61,11,46,-5,ok,2,0,0.003,11,0.15,-0.30,9.97,55,0.126,8.21
10.9297,-0.05760,0.00698,1.30202,0.00000,0.00000,0.00000,62,14,17,10,61,11,43,-4,ok,2,0,0.003,11,0.15,-0.30,9.97,55,0.139,8.21
10.9328,-0.05760,0.00698,1.30202,0.00000,0.00000,0.00000,62,15,19,9,61,12,41,-5,ok,2,0,0.003,11,0.15,-0.30,9.97,55,0.152,8.21
10.9456,-0.05760,0.00698,1.30202,0.00000,0.00000,0.00000,63,15,19,9,61,13,37,-3,ok,2,0,0.003,11,0.15,-0.30,9.97,55,0.165,8.21
10.9657,-0.05760,0.00698,1.30202,0.00000,0.00000,0.00000,63,16,21,8,61,13,35,-3,ok,2,0,0.003,11,0.15,-0.30,9.97,55,0.177,8.21
10.9709,-0.05760,0.00698,1.30202,0.00000,0.00000,0.00000,63,17,22,7,62,14,31,-1,ok,2,0,0.003,11,0.15,-0.30,9.97,55,0.190,8.21
10.9832,0.00698,0.06981,1.33343,0.00000,0.00000,0.00000,64,19,23,6,62,14,30,0,ok,2,0,0.003,11,2.32,0.84,13.55,56,0.000,8.21
11.0057,0.00698,0.06981,1.33343,0.00000,0.00000,0.00000,64,20,24,5,62,16,27,1,ok,2,0,0.003,11,2.32,0.84,13.55,56,0.013,8.21
11.0088,0.00698,0.06981,1.33343,0.00000,0.00000,0.00000,65,21,24,5,62,17,25,5,ok,2,0,0.003,11,2.32,0.84,13.55,56,0.026,8.21
11.0215,0.00698,0.06981,1.33343,0.00000,0.00000,0.00000,65,22,25,4,63,17,24,7,ok,2,0,0.003,11,2.32,0.84,13.55,56,0.039,8.21
11.0417,0.00698,0.06981,1.33343,0.00000,0.00000,0.00000,65,23,26,3,64,18,23,11,ok,2,0,0.003,11,2.32,0.84,13.55,56,0.051,8.21
11.0465,0.00698,0.06981,1.33343,0.00000,0.00000,0.00000,64,26,27,3,64,19,22,13,ok,2,0,0.003,11,2.32,0.84,13.55,56,0.064,8.21
11.0592,0.00698,0.06981,1.33343,0.00000,0.00000,0.00000,64,27,27,2,64,20,24,12,ok,2,0,0.003,11,2.32,0.84,13.55,56,0.076,8.21
11.0817,0.00698,0.06981,1.33343,0.00000,0.00000,0.00000,65,26,28,2,64,21,25,11,ok,2,0,0.003,11,2.32,0.84,13.55,56,0.089,8.21
11.0848,0.00698,0.06981,1.33343,0.00000,0.00000,0.00000,67,22,29,1,65,22,25,10,ok,2,0,0.003,11,2.32,0.84,13.55,56,0.102,8.21
11.0975,0.00698,0.06981,1.33343,0.00000,0.00000,0.00000,70,18,31,1,64,24,27,9,ok,2,0,0.003,11,2.32,0.84,13.55,56,0.115,8.21
11.1177,0.00698,0.06981,1.33343,0.00000,0.00000,0.00000,70,14,32,2,64,25,28,10,ok,2,0,0.003,11,2.32,0.84,13.55,56,0.127,8.21
11.1225,0.00698,0.06981,1.33343,0.00000,0.00000,0.00000,70,11,33,2,65,26,29,9,ok,2,0,0.003,11,2.32,0.84,13.55,56,0.139,8.21
11.1352,0.00698,0.06981,1.33343,0.00000,0.00000,0.00000,70,11,35,2,64,28,30,8,ok,2,0,0.003,11,2.32,0.84,13.55,56,0.152,8.21
11.1577,0.00698,0.06981,1.33343,0.00000,0.00000,0.00000,70,7,36,2,64,29,32,8,ok,2,0,0.003,11,2.32,0.84,13.55,56,0.165,8.21
11.1608,0.00698,0.06981,1.33343,0.00000,0.00000,0.00000,69,5,38,3,64,31,33,9,ok,2,0,0.003,11,2.32,0.84,13.55,56,0.178,8.21
11.1737,0.00698,0.06981,1.33343,0.00000,0.00000,0.00000,69,2,40,3,64,32,35,8,ok,2,0,0.003,11,2.32,0.84,13.55,56,0.191,8.21
11.1937,0.03665,0.05236,1.41546,0.00000,0.00000,0.00000,68,-1,41,3,64,34,36,8,ok,2,0,0.003,11,1.67,0.37,10.32,57,0.000,8.21
11.1987,0.03665,0.05236,1.41546,0.00000,0.00000,0.00000,66,-3,42,2,64,35,37,8,ok,2,0,0.003,11,1.67,0.37,10.32,57,0.012,8.21
11.2110,0.03665,0.05236,1.41546,0.00000,0.00000,0.00000,65,-4,44,2,64,36,38,7,ok,2,0,0.003,11,1.67,0.37,10.32,57,0.025,8.21
11.2337,0.03665,0.05236,1.41546,0.00000,0.00000,0.00000,63,-5,44,2,66,36,39,7,ok,2,0,0.003,11,1.67,0.37,10.32,57,0.037,8.21
11.2369,0.03665,0.05236,1.41546,0.00000,0.00000,0.00000,62,-6,45,3,67,33,41,6,ok,2,0,0.003,11,1.67,0.37,10.32,57,0.051,8.21
11.2495,0.03665,0.05236,1.41546,0.00000,0.00000,0.00000,61,-8,47,3,69,29,42,6,ok,2,0,0.003,11,1.67,0.37,10.32,57,0.064,8.21
11.2697,0.03665,0.05236,1.41546,0.00000,0.00000,0.00000,58,-9,48,4,71,24,43,6,ok,2,0,0.003,11,1.67,0.37,10.32,57,0.076,8.21
11.2745,0.03665,0.05236,1.41546,0.00000,0.00000,0.00000,56,-10,49,3,73,22,44,6,ok,2,0,0.003,11,1.67,0.37,10.32,57,0.088,8.21
11.2872,0.03665,0.05236,1.41546,0.00000,0.00000,0.00000,54,-10,50,3,73,21,45,7,ok,2,0,0.003,11,1.67,0.37,10.32,57,0.101,8.21
11.3097,0.03665,0.05236,1.41546,0.00000,0.00000,0.00000,52,-11,50,5,73,19,46,7,ok,2,0,0.003,11,1.67,0.37,10.32,57,0.114,8.21
11.3128,0.03665,0.05236,1.41546,0.00000,0.00000,0.00000,49,-11,51,6,73,15,47,7,ok,0,0,0.003,11,1.67,0.37,10.32,57,0.127,8.21
11.3255,0.03665,0.05236,1.41546,0.00000,0.00000,0.00000,47,-11,52,6,73,12,48,7,ok,0,0,0.003,11,1.67,0.37,10.32,57,0.139,8.21
11.3457,0.03665,0.05236,1.41546,0.00000,0.00000,0.00000,44,-11,53,6,72,10,49,7,ok,0,0,0.003,11,1.67,0.37,10.32,57,0.152,8.21
11.3505,0.03665,0.05236,1.41546,0.00000,0.00000,0.00000,41,-11,53,7,72,7,50,8,ok,0,0,0.003,11,1.67,0.37,10.32,57,0.164,8.21
11.3630,0.03665,0.05236,1.41546,0.00000,0.00000,0.00000,38,-11,55,7,71,5,50,7,ok,0,0,0.003,11,1.67,0.37,10.32,57,0.177,8.21
11.3857,0.03665,0.05236,1.41546,0.00000,0.00000,0.00000,36,-10,56,7,70,4,51,8,ok,0,0,0.003,11,1.67,0.37,10.32,57,0.189,8.21
11.3891,0.09948,-0.01745,1.41546,0.00000,0.00000,0.00000,32,-9,57,7,69,1,52,7,ok,0,0,0.003,11,0.19,1.04,9.96,58,0.000,8.21
11.4016,0.09948,-0.01745,1.41546,0.00000,0.00000,0.00000,30,-8,57,8,66,2,52,8,ok,0,0,0.003,11,0.19,1.04,9.96,58,0.013,8.21
11.4218,0.09948,-0.01745,1.41546,0.00000,0.00000,0.00000,26,-6,58,7,65,0,53,8,ok,0,0,0.003,11,0.19,1.04,9.96,58,0.025,8.21
11.4266,0.09948,-0.01745,1.41546,0.00000,0.00000,0.00000,23,-4,58,8,64,-2,54,8,ok,0,0,0.003,11,0.19,1.04,9.96,58,0.038,8.21
11.4390,0.09948,-0.01745,1.41546,0.00000,0.00000,0.00000,20,-1,59,9,62,-3,55,8,ok,0,0,0.003,11,0.19,1.04,9.96,58,0.050,8.21
11.4617,0.09948,-0.01745,1.41546,0.00000,0.00000,0.00000,19,-1,60,10,61,-4,55,7,ok,0,0,0.003,11,0.19,1.04,9.96,58,0.063,8.21
11.4649,0.09948,-0.01745,1.41546,0.00000,0.00000,0.00000,18,0,61,10,58,-5,57,5,ok,0,0,0.003,11,0.19,1.04,9.96,58,0.076,8.21
11.4778,0.09948,-0.01745,1.41546,0.00000,0.00000,0.00000,16,3,61,10,55,-6,57,6,ok,0,0,0.003,11,0.19,1.04,9.96,58,0.089,8.21
11.4977,0.09948,-0.01745,1.41546,0.00000,0.00000,0.00000,15,6,61,10,54,-7,58,7,ok,0,0,0.003,11,0.19,1.04,9.96,58,0.101,8.21
11.5026,0.09948,-0.01745,1.41546,0.00000,0.00000,0.00000,13,9,61,11,51,-6,58,8,ok,0,0,0.003,11,0.19,1.04,9.96,58,0.114,8.21
11.5150,0.09948,-0.01745,1.41546,0.00000,0.00000,0.00000,12,11,62,11,48,-5,59,8,ok,0,0,0.003,11,0.19,1.04,9.96,58,0.126,8.21
11.5377,0.09948,-0.01745,1.41546,0.00000,0.00000,0.00000,14,11,62,12,45,-5,60,9,ok,0,0,0.003,11,0.19,1.04,9.96,58,0.139,8.21
11.5408,0.09948,-0.01745,1.41546,0.00000,0.00000,0.00000,14,11,62,13,42,-4,59,9,ok,0,0,0.003,11,0.19,1.04,9.96,58,0.152,8.21
11.5537,0.09948,-0.01745,1.41546,0.00000,0.00000,0.00000,16,10,63,14,40,-4,60,10,ok,0,0,0.003,11,0.19,1.04,9.96,58,0.165,8.21
11.5737,0.09948,-0.01745,1.41546,0.00000,0.00000,0.00000,18,9,62,14,37,-3,61,11,ok,0,0,0.003,11,0.19,1.04,9.96,58,0.177,8.21
11.5787,0.09948,-0.01745,1.41546,0.00000,0.00000,0.00000,18,8,63,15,34,-3,61,12,ok,0,0,0.003,11,0.19,1.04,9.96,58,0.190,8.21
11.5913,-0.05061,0.03316,1.43292,0.00000,0.00000,0.00000,20,7,63,16,31,-1,61,12,ok,0,0,0.003,11,-0.39,-0.45,9.81,59,0.000,8.21
11.6137,-0.05061,0.03316,1.43292,0.00000,0.00000,0.00000,21,7,63,17,29,0,62,13,ok,0,0,0.003,11,-0.39,-0.45,9.81,59,0.013,8.21
11.6169,-0.05061,0.03316,1.43292,0.00000,0.00000,0.00000,23,6,65,19,27,1,63,14,ok,0,0,0.003,11,-0.39,-0.45,9.81,59,0.026,8.21
11.6298,-0.05061,0.03316,1.43292,0.00000,0.00000,0.00000,24,4,64,20,24,4,64,15,ok,0,0,0.003,11,-0.39,-0.45,9.81,59,0.039,8.21
11.6497,-0.05061,0.03316,1.43292,0.00000,0.00000,0.00000,25,4,64,21,23,7,64,16,ok,0,0,0.003,11,-0.39,-0.45,9.81,59,0.051,8.21
11.6545,-0.05061,0.03316,1.43292,0.00000,0.00000,0.00000,26,3,64,23,22,11,64,17,ok,0,0,0.003,11,-0.39,-0.45,9.81,59,0.064,8.21
11.6670,-0.05061,0.03316,1.43292,0.00000,0.00000,0.00000,26,2,64,24,22,14,64,17,ok,0,0,0.003,11,-0.39,-0.45,9.81,59,0.076,8.21
11.6897,-0.05061,0.03316,1.43292,0.00000,0.00000,0.00000,27,2,63,27,24,14,64,18,ok,0,0,0.003,11,-0.39,-0.45,9.81,59,0.089,8.21
11.6928,-0.05061,0.03316,1.43292,0.00000,0.00000,0.00000,28,1,63,28,24,14,64,19,ok,0,0,0.003,11,-0.39,-0.45,9.81,59,0.102,8.21
11.7057,-0.05061,0.03316,1.43292,0.00000,0.00000,0.00000,29,1,65,26,25,12,64,21,ok,0,0,0.003,12,-0.39,-0.45,9.81,59,0.115,8.21
11.7257,-0.05061,0.03316,1.43292,0.00000,0.00000,0.00000,30,1,67,23,26,11,65,21,ok,0,0,0.003,12,-0.39,-0.45,9.81,59,0.127,8.21
11.7306,-0.05061,0.03316,1.43292,0.00000,0.00000,0.00000,32,1,69,19,27,11,65,22,ok,0,0,0.003,12,-0.39,-0.45,9.81,59,0.139,8.21
11.7430,-0.05061,0.03316,1.43292,0.00000,0.00000,0.00000,34,1,70,15,29,10,65,23,ok,0,0,0.003,12,-0.39,-0.45,9.81,59,0.152,8.21
11.7657,-0.05061,0.03316,1.43292,0.00000,0.00000,0.00000,35,1,71,13,30,9,65,25,ok,0,0,0.003,12,-0.39,-0.45,9.81,59,0.165,8.21
11.7689,-0.05061,0.03316,1.43292,0.00000,0.00000,0.00000,37,2,70,12,32,9,65,26,ok,0,0,0.003,12,-0.39,-0.45,9.81,59,0.178,8.21
11.7819,0.01222,0.07330,1.45386,0.00000,0.00000,0.00000,38,2,70,8,32,9,64,28,ok,0,0,0.003,12,-0.75,0.68,10.10,60,0.000,8.21
11.8017,0.01222,0.07330,1.45386,0.00000,0.00000,0.00000,40,3,69,5,35,9,64,29,ok,0,0,0.003,12,-0.75,0.68,10.10,60,0.013,8.21
11.8066,0.01222,0.07330,1.45386,0.00000,0.00000,0.00000,41,3,69,3,36,9,64,31,ok,0,0,0.003,12,-0.75,0.68,10.10,60,0.025,8.21
11.8192,0.01222,0.07330,1.45386,0.00000,0.00000,0.00000,42,3,67,0,37,9,64,32,ok,0,0,0.003,12,-0.75,0.68,10.10,60,0.038,8.21
11.8417,0.01222,0.07330,1.45386,0.00000,0.00000,0.00000,43,2,66,-2,39,8,63,34,ok,0,0,0.003,12,-0.75,0.68,10.10,60,0.050,8.21
11.8448,0.01222,0.07330,1.45386,0.00000,0.00000,0.00000,45,3,64,-3,40,8,63,35,ok,0,0,0.003,12,-0.75,0.68,10.10,60,0.063,8.21
11.8576,0.01222,0.07330,1.45386,0.00000,0.00000,0.00000,45,3,62,-5,41,7,64,35,ok,0,0,0.003,12,-0.75,0.68,10.10,60,0.076,8.21
11.8777,0.01222,0.07330,1.45386,0.00000,0.00000,0.00000,46,3,61,-6,42,7,65,34,ok,0,0,0.003,12,-0.75,0.68,10.10,60,0.088,8.21
11.8825,0.01222,0.07330,1.45386,0.00000,0.00000,0.00000,47,3,60,-8,43,7,67,32,ok,0,0,0.003,12,-0.75,0.68,10.10,60,0.101,8.21
11.8950,0.01222,0.07330,1.45386,0.00000,0.00000,0.00000,49,4,58,-8,44,7,69,27,ok,0,0,0.003,12,-0.75,0.68,10.10,60,0.113,8.21
11.9177,0.01222,0.07330,1.45386,0.00000,0.00000,0.00000,50,3,55,-9,44,7,71,23,ok,0,0,0.003,12,-0.75,0.68,10.10,60,0.126,8.21
11.9208,0.01222,0.07330,1.45386,0.00000,0.00000,0.00000,50,3,53,-9,46,7,72,20,ok,0,0,0.003,12,-0.75,0.68,10.10,60,0.139,8.21
11.9336,0.01222,0.07330,1.45386,0.00000,0.00000,0.00000,50,5,51,-10,47,7,73,20,ok,0,0,0.003,12,-0.75,0.68,10.10,60,0.152,8.21
11.9537,0.01222,0.07330,1.45386,0.00000,0.00000,0.00000,51,5,49,-10,47,8,73,18,ok,0,0,0.003,12,-0.75,0.68,10.10,60,0.164,8.21
11.9587,0.01222,0.07330,1.45386,0.00000,0.00000,0.00000,52,5,46,-10,49,8,73,14,ok,0,0,0.003,12,-0.75,0.68,10.10,60,0.177,8.21
11.9710,0.01222,0.07330,1.45386,0.00000,0.00000,0.00000,53,6,44,-10,49,8,72,11,ok,0,0,0.003,12,-0.75,0.68,10.10,60,0.189,8.21
11.9937,0.01222,0.07330,1.45386,0.00000,0.00000,0.00000,53,7,41,-10,50,8,72,10,ok,0,0,0.003,12,-0.75,0.68,10.10,60,0.202,8.21
11.9971,-0.07854,-0.00349,1.47131,0.00000,0.00000,0.00000,56,7,39,-10,50,8,71,6,ok,0,0,0.003,12,0.18,-0.97,10.38,61,0.000,8.21
12.0095,-0.07854,-0.00349,1.47131,0.00000,0.00000,0.00000,56,6,36,-9,52,7,71,5,ok,0,0,0.003,12,0.18,-0.97,10.38,61,0.013,8.21
12.0297,-0.07854,-0.00349,1.47131,0.00000,0.00000,0.00000,57,7,33,-9,52,7,70,3,ok,0,0,0.003,12,0.18,-0.97,10.38,61,0.025,8.21
12.0346,-0.07854,-0.00349,1.47131,0.00000,0.00000,0.00000,58,7,30,-7,52,8,69,1,ok,0,0,0.003,12,0.18,-0.97,10.38,61,0.038,8.21
12.0470,-0.07854,-0.00349,1.47131,0.00000,0.00000,0.00000,58,7,27,-6,53,8,67,1,ok,0,0,0.003,12,0.18,-0.97,10.38,61,0.050,8.21
12.0697,-0.07854,-0.00349,1.47131,0.00000,0.00000,0.00000,59,8,24,-4,54,8,66,-1,ok,0,0,0.003,12,0.18,-0.97,10.38,61,0.063,8.21
12.0728,-0.07854,-0.00349,1.47131,0.00000,0.00000,0.00000,60,9,21,-2,55,8,65,-2,ok,0,0,0.003,12,0.18,-0.97,10.38,61,0.076,8.21
12.0855,-0.07854,-0.00349,1.47131,0.00000,0.00000,0.00000,60,9,19,0,57,6,62,-4,ok,0,0,0.003,12,0.18,-0.97,10.38,61,0.089,8.21
12.1057,-0.07854,-0.00349,1.47131,0.00000,0.00000,0.00000,61,9,18,1,58,8,60,-5,ok,0,0,0.003,12,0.18,-0.97,10.38,61,0.101,8.21
12.1106,-0.07854,-0.00349,1.47131,0.00000,0.00000,0.00000,61,10,17,3,59,8,58,-5,ok,0,0,0.003,12,0.18,-0.97,10.38,61,0.114,8.21
12.1230,-0.07854,-0.00349,1.47131,0.00000,0.00000,0.00000,61,10,15,6,59,9,56,-6,ok,0,0,0.003,12,0.18,-0.97,10.38,61,0.126,8.21
12.1457,-0.07854,-0.00349,1.47131,0.00000,0.00000,0.00000,61,12,13,9,59,9,54,-6,ok,0,0,0.003,12,0.18,-0.97,10.38,61,0.139,8.21
12.1490,-0.07854,-0.00349,1.47131,0.00000,0.00000,0.00000,62,12,13,11,60,9,50,-5,ok,0,0,0.003,12,0.18,-0.97,10.38,61,0.152,8.21
12.1616,-0.07854,-0.00349,1.47131,0.00000,0.00000,0.00000,62,13,15,12,60,10,48,-5,ok,0,0,0.003,12,0.18,-0.97,10.38,61,0.165,8.21
12.1817,-0.07854,-0.00349,1.47131,0.00000,0.00000,0.00000,62,14,15,11,61,11,46,-5,ok,0,0,0.003,12,0.18,-0.97,10.38,61,0.177,8.21
12.1865,-0.07854,-0.00349,1.47131,0.00000,0.00000,0.00000,62,14,17,10,61,11,43,-4,ok,2,0,0.003,12,0.18,-0.97,10.38,61,0.190,8.21
12.1993,0.03142,0.06109,1.47306,0.00000,0.00000,0.00000,62,15,19,9,61,12,41,-5,ok,2,0,0.003,12,0.69,0.69,9.39,62,0.000,8.21
12.2217,0.03142,0.06109,1.47306,0.00000,0.00000,0.00000,63,16,19,9,61,13,37,-4,ok,2,0,0.003,12,0.69,0.69,9.39,62,0.013,8.21
12.2250,0.03142,0.06109,1.47306,0.00000,0.00000,0.00000,63,17,21,7,61,13,34,-3,ok,2,0,0.003,12,0.69,0.69,9.39,62,0.026,8.21
12.2376,0.03142,0.06109,1.47306,0.00000,0.00000,0.00000,63,18,21,7,62,15,30,-1,ok,2,0,0.003,12,0.69,0.69,9.39,62,0.039,8.21
12.2577,0.03142,0.06109,1.47306,0.00000,0.00000,0.00000,64,19,23,6,63,14,29,0,ok,2,0,0.003,12,0.69,0.69,9.39,62,0.051,8.21
12.2626,0.03142,0.06109,1.47306,0.00000,0.00000,0.00000,64,21,24,5,63,16,27,1,ok,2,0,0.003,12,0.69,0.69,9.39,62,0.064,8.21
12.2752,0.03142,0.06109,1.47306,0.00000,0.00000,0.00000,65,22,24,4,63,17,25,4,ok,2,0,0.003,12,0.69,0.69,9.39,62,0.076,8.21
12.2977,0.03142,0.06109,1.47306,0.00000,0.00000,0.00000,65,23,25,3,63,17,24,7,ok,2,0,0.003,12,0.69,0.69,9.39,62,0.089,8.21
12.3008,0.03142,0.06109,1.47306,0.00000,0.00000,0.00000,65,24,25,2,64,18,23,10,ok,2,0,0.003,12,0.69,0.69,9.39,62,0.102,8.21
12.3135,0.03142,0.06109,1.47306,0.00000,0.00000,0.00000,64,26,26,2,64,19,22,12,ok,2,0,0.003,12,0.69,0.69,9.39,62,0.115,8.21
