# run_gait log  cmd_fwd=0.100 hz=80.0 fw_balance=off policy_yaw_sign=-1
t,roll,pitch,yaw,gx,gy,gz,j0,j1,j2,j3,j4,j5,j6,j7,guard_state,hottest_j,hottest_tier,hottest_frac,duty_s,ax,ay,az,imu_n,imu_age_s,volt
0.0412,-0.00698,0.00698,0.00000,0.00000,0.00000,0.00000,36,0,57,10,60,-3,54,8,ok,3,0,0.000,0,0.08,-0.00,10.01,9,0.028,nan
0.0465,-0.00698,0.00698,0.00000,0.00000,0.00000,0.00000,34,1,59,10,59,-4,56,6,ok,2,0,0.000,0,0.08,-0.00,10.01,9,0.054,nan
0.0596,-0.00698,0.00698,0.00000,0.00000,0.00000,0.00000,34,4,59,11,56,-5,56,8,ok,4,0,0.000,0,0.08,-0.00,10.01,9,0.067,8.24
0.0811,-0.00698,0.00698,0.00000,0.00000,0.00000,0.00000,32,7,60,12,55,-6,57,8,ok,4,0,0.000,0,0.08,-0.00,10.01,9,0.079,8.24
0.0851,-0.00698,0.00698,0.00000,0.00000,0.00000,0.00000,32,10,60,13,52,-5,57,9,ok,4,0,0.000,0,0.08,-0.00,10.01,9,0.094,8.24
0.0976,-0.00698,0.00698,0.00000,0.00000,0.00000,0.00000,31,12,60,13,50,-5,58,10,ok,4,0,0.000,0,0.08,-0.00,10.01,9,0.106,8.24
0.1211,-0.00698,0.00698,0.00000,0.00000,0.00000,0.00000,32,13,60,14,47,-5,59,11,ok,4,0,0.000,0,0.08,-0.00,10.01,9,0.119,8.24
0.1255,-0.00698,0.00698,0.00000,0.00000,0.00000,0.00000,32,13,60,15,44,-4,59,11,ok,4,0,0.000,0,0.08,-0.00,10.01,9,0.134,8.24
0.1376,-0.00698,0.00698,0.00000,0.00000,0.00000,0.00000,33,12,61,15,42,-4,60,12,ok,4,0,0.000,0,0.08,-0.00,10.01,9,0.146,8.24
0.1611,-0.00698,0.00698,0.00000,0.00000,0.00000,0.00000,34,11,61,16,39,-3,60,12,ok,4,0,0.000,0,0.08,-0.00,10.01,9,0.159,8.24
0.1652,-0.00698,0.00698,0.00000,0.00000,0.00000,0.00000,34,11,61,17,36,-2,61,13,ok,4,0,0.000,0,0.08,-0.00,10.01,9,0.174,8.24
0.1773,-0.00698,0.00698,0.00000,0.00000,0.00000,0.00000,34,9,61,18,32,-1,61,14,ok,4,0,0.000,0,0.08,-0.00,10.01,9,0.186,8.24
0.1969,-0.00698,0.00698,0.00000,0.00000,0.00000,0.00000,34,9,61,19,30,1,62,15,ok,4,0,0.000,0,0.08,-0.00,10.01,9,0.199,8.24
0.2022,-0.00698,-0.09948,-0.00349,0.00000,0.00000,0.00000,36,8,62,20,27,2,62,16,ok,4,0,0.000,0,-0.93,-0.08,9.99,10,0.000,8.24
0.2145,-0.00698,-0.09948,-0.00349,0.00000,0.00000,0.00000,36,7,62,21,25,5,63,16,ok,4,0,0.000,0,-0.93,-0.08,9.99,10,0.013,8.24
0.2370,-0.00698,-0.09948,-0.00349,0.00000,0.00000,0.00000,37,7,62,21,23,8,64,17,ok,4,0,0.000,0,-0.93,-0.08,9.99,10,0.025,8.24
0.2401,-0.00698,-0.09948,-0.00349,0.00000,0.00000,0.00000,38,6,62,22,22,12,64,18,ok,4,0,0.000,0,-0.93,-0.08,9.99,10,0.038,8.24
0.2529,-0.00698,-0.09948,-0.00349,0.00000,0.00000,0.00000,38,6,62,23,21,14,64,18,ok,4,0,0.000,0,-0.93,-0.08,9.99,10,0.051,8.24
0.2729,-0.00698,-0.09948,-0.00349,0.00000,0.00000,0.00000,39,6,61,26,23,14,65,19,ok,4,0,0.000,0,-0.93,-0.08,9.99,10,0.063,8.24
0.2780,-0.00698,-0.09948,-0.00349,0.00000,0.00000,0.00000,40,5,62,28,22,14,65,20,ok,4,0,0.000,0,-0.93,-0.08,9.99,10,0.076,8.24
0.2903,-0.00698,-0.09948,-0.00349,0.00000,0.00000,0.00000,40,5,64,26,23,12,65,21,ok,4,0,0.000,0,-0.93,-0.08,9.99,10,0.088,8.24
0.3130,-0.00698,-0.09948,-0.00349,0.00000,0.00000,0.00000,40,4,67,23,25,11,65,22,ok,4,0,0.000,0,-0.93,-0.08,9.99,10,0.101,8.24
0.3161,-0.00698,-0.09948,-0.00349,0.00000,0.00000,0.00000,42,4,69,19,26,11,65,24,ok,4,0,0.000,0,-0.93,-0.08,9.99,10,0.114,8.24
0.3291,-0.00698,-0.09948,-0.00349,0.00000,0.00000,0.00000,42,4,70,16,27,11,65,25,ok,4,0,0.000,0,-0.93,-0.08,9.99,10,0.127,8.24
0.3489,-0.00698,-0.09948,-0.00349,0.00000,0.00000,0.00000,43,4,71,14,28,10,65,27,ok,4,0,0.000,0,-0.93,-0.08,9.99,10,0.139,8.24
0.3538,-0.00698,-0.09948,-0.00349,0.00000,0.00000,0.00000,44,3,71,13,30,10,65,28,ok,4,0,0.000,0,-0.93,-0.08,9.99,10,0.152,8.24
0.3664,-0.00698,-0.09948,-0.00349,0.00000,0.00000,0.00000,44,3,71,10,30,10,64,30,ok,4,0,0.000,0,-0.93,-0.08,9.99,10,0.164,8.24
0.3890,-0.00698,-0.09948,-0.00349,0.00000,0.00000,0.00000,45,4,71,7,32,10,64,31,ok,4,0,0.000,0,-0.93,-0.08,9.99,10,0.177,8.24
0.3922,-0.00698,-0.09948,-0.00349,0.00000,0.00000,0.00000,46,4,70,4,34,9,65,32,ok,4,0,0.000,0,-0.93,-0.08,9.99,10,0.190,8.24
0.4050,-0.15184,-0.00524,0.05760,0.00000,0.00000,0.00000,46,3,69,1,35,9,64,33,ok,4,0,0.000,0,0.30,-2.23,10.11,11,0.000,8.24
0.4249,-0.15184,-0.00524,0.05760,0.00000,0.00000,0.00000,47,3,68,0,36,8,64,35,ok,4,0,0.000,0,0.30,-2.23,10.11,11,0.013,8.24
0.4300,-0.15184,-0.00524,0.05760,0.00000,0.00000,0.00000,48,3,67,-1,37,7,64,36,ok,4,0,0.000,0,0.30,-2.23,10.11,11,0.025,8.24
0.4425,-0.15184,-0.00524,0.05760,0.00000,0.00000,0.00000,48,3,65,-2,38,6,65,36,ok,4,0,0.000,0,0.30,-2.23,10.11,11,0.038,8.24
0.4650,-0.15184,-0.00524,0.05760,0.00000,0.00000,0.00000,49,3,63,-4,40,6,66,35,ok,4,0,0.000,0,0.30,-2.23,10.11,11,0.050,8.24
0.4681,-0.15184,-0.00524,0.05760,0.00000,0.00000,0.00000,50,3,62,-6,42,6,68,32,ok,4,0,0.000,0,0.30,-2.23,10.11,11,0.063,8.24
0.4813,-0.15184,-0.00524,0.05760,0.00000,0.00000,0.00000,50,3,59,-7,43,6,70,27,ok,4,0,0.000,0,0.30,-2.23,10.11,11,0.076,8.24
0.5009,-0.15184,-0.00524,0.05760,0.00000,0.00000,0.00000,50,3,56,-8,44,6,71,23,ok,4,0,0.000,0,0.30,-2.23,10.11,11,0.088,8.24
0.5058,-0.15184,-0.00524,0.05760,0.00000,0.00000,0.00000,51,3,54,-8,46,6,73,20,ok,4,0,0.000,0,0.30,-2.23,10.11,11,0.101,8.24
0.5183,-0.15184,-0.00524,0.05760,0.00000,0.00000,0.00000,51,5,52,-10,47,6,73,20,ok,4,0,0.000,0,0.30,-2.23,10.11,11,0.114,8.24
0.5410,-0.15184,-0.00524,0.05760,0.00000,0.00000,0.00000,52,5,50,-10,48,7,73,18,ok,4,0,0.000,1,0.30,-2.23,10.11,11,0.126,8.24
0.5443,-0.15184,-0.00524,0.05760,0.00000,0.00000,0.00000,52,5,47,-10,49,7,73,14,ok,4,0,0.000,1,0.30,-2.23,10.11,11,0.139,8.24
0.5568,-0.15184,-0.00524,0.05760,0.00000,0.00000,0.00000,52,6,45,-10,50,7,72,11,ok,4,0,0.000,1,0.30,-2.23,10.11,11,0.152,8.24
0.5770,-0.15184,-0.00524,0.05760,0.00000,0.00000,0.00000,52,7,42,-10,51,7,72,10,ok,4,0,0.000,1,0.30,-2.23,10.11,11,0.165,8.24
0.5843,-0.15184,-0.00524,0.05760,0.00000,0.00000,0.00000,54,7,40,-11,52,7,72,6,ok,4,0,0.000,1,0.30,-2.23,10.11,11,0.177,8.24
0.5946,-0.15184,-0.00524,0.05760,0.00000,0.00000,0.00000,54,7,37,-10,53,6,72,4,ok,4,0,0.000,1,0.30,-2.23,10.11,11,0.189,8.24
0.6170,-0.01745,-0.03491,0.06981,0.00000,0.00000,0.00000,54,7,33,-9,53,7,70,3,ok,4,0,0.000,1,0.46,-0.13,11.28,12,0.000,8.24
0.6204,-0.01745,-0.03491,0.06981,0.00000,0.00000,0.00000,54,8,31,-8,54,8,68,1,ok,4,0,0.000,1,0.46,-0.13,11.28,12,0.013,8.24
0.6328,-0.01745,-0.03491,0.06981,0.00000,0.00000,0.00000,54,9,27,-7,54,8,66,0,ok,4,0,0.000,1,0.46,-0.13,11.28,12,0.026,8.24
0.6529,-0.01745,-0.03491,0.06981,0.00000,0.00000,0.00000,54,10,25,-5,55,8,65,-2,ok,4,0,0.000,1,0.46,-0.13,11.28,12,0.039,8.24
0.6577,-0.01745,-0.03491,0.06981,0.00000,0.00000,0.00000,55,11,21,-3,56,9,64,-3,ok,2,0,0.000,1,0.46,-0.13,11.28,12,0.051,8.24
0.6703,-0.01745,-0.03491,0.06981,0.00000,0.00000,0.00000,56,11,19,-1,58,7,62,-4,ok,2,0,0.000,1,0.46,-0.13,11.28,12,0.064,8.24
0.6930,-0.01745,-0.03491,0.06981,0.00000,0.00000,0.00000,56,11,18,0,58,8,60,-5,ok,2,0,0.000,1,0.46,-0.13,11.28,12,0.076,8.24
0.6961,-0.01745,-0.03491,0.06981,0.00000,0.00000,0.00000,56,12,16,2,59,9,58,-6,ok,2,0,0.000,1,0.46,-0.13,11.28,12,0.089,8.24
0.7087,-0.01745,-0.03491,0.06981,0.00000,0.00000,0.00000,56,12,15,5,59,9,55,-6,ok,2,0,0.000,1,0.46,-0.13,11.28,12,0.102,8.24
0.7289,-0.01745,-0.03491,0.06981,0.00000,0.00000,0.00000,56,13,13,9,59,10,53,-7,ok,2,0,0.000,1,0.46,-0.13,11.28,12,0.115,8.24
0.7339,-0.01745,-0.03491,0.06981,0.00000,0.00000,0.00000,56,13,12,11,60,10,50,-6,ok,2,0,0.000,1,0.46,-0.13,11.28,12,0.127,8.24
0.7465,-0.01745,-0.03491,0.06981,0.00000,0.00000,0.00000,56,13,14,12,60,10,47,-6,ok,2,0,0.000,1,0.46,-0.13,11.28,12,0.140,8.24
0.7690,-0.01745,-0.03491,0.06981,0.00000,0.00000,0.00000,56,14,15,11,60,11,45,-6,ok,2,0,0.000,1,0.46,-0.13,11.28,12,0.152,8.24
0.7721,-0.01745,-0.03491,0.06981,0.00000,0.00000,0.00000,56,14,17,10,61,11,42,-5,ok,2,0,0.000,1,0.46,-0.13,11.28,12,0.165,8.24
0.7847,-0.01745,-0.03491,0.06981,0.00000,0.00000,0.00000,56,15,19,9,61,12,40,-5,ok,2,0,0.000,1,0.46,-0.13,11.28,12,0.178,8.24
0.8050,-0.10647,0.08901,0.03665,0.00000,0.00000,0.00000,57,15,20,9,61,13,37,-4,ok,2,0,0.000,1,1.41,-1.51,9.94,13,0.000,8.24
0.8097,-0.10647,0.08901,0.03665,0.00000,0.00000,0.00000,57,16,21,8,61,13,35,-3,ok,2,0,0.000,1,1.41,-1.51,9.94,13,0.012,8.24
0.8225,-0.10647,0.08901,0.03665,0.00000,0.00000,0.00000,57,17,22,8,61,14,31,-1,ok,2,0,0.000,1,1.41,-1.51,9.94,13,0.025,8.24
0.8449,-0.10647,0.08901,0.03665,0.00000,0.00000,0.00000,58,18,23,7,62,14,30,0,ok,2,0,0.000,1,1.41,-1.51,9.94,13,0.038,8.24
0.8482,-0.10647,0.08901,0.03665,0.00000,0.00000,0.00000,58,19,24,6,62,15,28,1,ok,2,0,0.000,1,1.41,-1.51,9.94,13,0.051,8.24
0.8608,-0.10647,0.08901,0.03665,0.00000,0.00000,0.00000,58,20,24,5,62,16,25,5,ok,2,0,0.000,1,1.41,-1.51,9.94,13,0.064,8.24
0.8809,-0.10647,0.08901,0.03665,0.00000,0.00000,0.00000,58,21,25,5,63,16,24,7,ok,2,0,0.000,1,1.41,-1.51,9.94,13,0.076,8.24
0.8858,-0.10647,0.08901,0.03665,0.00000,0.00000,0.00000,58,22,26,4,64,17,23,11,ok,2,0,0.000,1,1.41,-1.51,9.94,13,0.089,8.24
0.8985,-0.10647,0.08901,0.03665,0.00000,0.00000,0.00000,57,25,27,3,64,19,23,13,ok,2,0,0.000,1,1.41,-1.51,9.94,13,0.101,8.24
0.9210,-0.10647,0.08901,0.03665,0.00000,0.00000,0.00000,57,25,27,2,64,20,25,12,ok,2,0,0.000,1,1.41,-1.51,9.94,13,0.114,8.24
0.9241,-0.10647,0.08901,0.03665,0.00000,0.00000,0.00000,58,24,29,2,64,21,25,12,ok,2,0,0.000,1,1.41,-1.51,9.94,13,0.127,8.24
0.9368,-0.10647,0.08901,0.03665,0.00000,0.00000,0.00000,58,21,30,2,65,22,26,10,ok,2,0,0.000,1,1.41,-1.51,9.94,13,0.140,8.24
0.9569,-0.10647,0.08901,0.03665,0.00000,0.00000,0.00000,60,18,31,1,64,23,27,9,ok,2,0,0.000,1,1.41,-1.51,9.94,13,0.152,8.24
0.9617,-0.10647,0.08901,0.03665,0.00000,0.00000,0.00000,60,13,32,1,64,25,28,10,ok,2,0,0.000,1,1.41,-1.51,9.94,13,0.164,8.24
0.9743,-0.10647,0.08901,0.03665,0.00000,0.00000,0.00000,60,11,33,1,65,25,30,9,ok,2,0,0.000,1,1.41,-1.51,9.94,13,0.177,8.24
0.9970,-0.10647,0.08901,0.03665,0.00000,0.00000,0.00000,60,11,35,2,64,27,31,9,ok,2,0,0.000,1,1.41,-1.51,9.94,13,0.190,8.24
1.0004,-0.10297,0.04712,0.11694,0.00000,0.00000,0.00000,60,7,36,2,64,29,33,9,ok,2,0,0.000,1,-0.53,0.01,8.98,14,0.000,8.24
1.0127,-0.10297,0.04712,0.11694,0.00000,0.00000,0.00000,60,5,38,3,64,30,34,9,ok,2,0,0.000,1,-0.53,0.01,8.98,14,0.013,8.24
1.0329,-0.10297,0.04712,0.11694,0.00000,0.00000,0.00000,60,2,39,3,64,32,35,8,ok,2,0,0.000,1,-0.53,0.01,8.98,14,0.025,8.24
1.0377,-0.10297,0.04712,0.11694,0.00000,0.00000,0.00000,59,0,41,2,64,34,36,8,ok,2,0,0.000,1,-0.53,0.01,8.98,14,0.038,8.24
1.0505,-0.10297,0.04712,0.11694,0.00000,0.00000,0.00000,58,-2,42,2,64,35,37,8,ok,2,0,0.000,1,-0.53,0.01,8.98,14,0.050,8.24
1.0729,-0.10297,0.04712,0.11694,0.00000,0.00000,0.00000,58,-4,44,2,65,35,39,8,ok,2,0,0.000,1,-0.53,0.01,8.98,14,0.063,8.24
1.0761,-0.10297,0.04712,0.11694,0.00000,0.00000,0.00000,56,-5,44,2,66,35,40,8,ok,2,0,0.000,1,-0.53,0.01,8.98,14,0.076,8.24
1.0890,-0.10297,0.04712,0.11694,0.00000,0.00000,0.00000,56,-6,45,3,67,33,41,7,ok,2,0,0.000,1,-0.53,0.01,8.98,14,0.089,8.24
1.1089,-0.10297,0.04712,0.11694,0.00000,0.00000,0.00000,56,-8,46,3,69,28,42,7,ok,2,0,0.000,1,-0.53,0.01,8.98,14,0.101,8.24
1.1139,-0.10297,0.04712,0.11694,0.00000,0.00000,0.00000,54,-9,48,4,71,24,43,7,ok,2,0,0.000,1,-0.53,0.01,8.98,14,0.114,8.24
1.1263,-0.10297,0.04712,0.11694,0.00000,0.00000,0.00000,53,-10,49,3,73,21,44,7,ok,2,0,0.000,1,-0.53,0.01,8.98,14,0.126,8.24
1.1490,-0.10297,0.04712,0.11694,0.00000,0.00000,0.00000,52,-10,49,3,74,20,45,7,ok,2,0,0.000,1,-0.53,0.01,8.98,14,0.139,8.24
1.1522,-0.10297,0.04712,0.11694,0.00000,0.00000,0.00000,51,-11,49,6,74,18,46,7,ok,2,0,0.000,1,-0.53,0.01,8.98,14,0.152,8.24
1.1648,-0.10297,0.04712,0.11694,0.00000,0.00000,0.00000,50,-11,51,6,74,14,47,8,ok,2,0,0.000,1,-0.53,0.01,8.98,14,0.165,8.24
1.1849,-0.10297,0.04712,0.11694,0.00000,0.00000,0.00000,48,-11,52,6,73,11,48,8,ok,2,0,0.000,1,-0.53,0.01,8.98,14,0.177,8.24
1.1900,-0.10297,0.04712,0.11694,0.00000,0.00000,0.00000,47,-10,53,6,73,10,49,8,ok,2,0,0.000,1,-0.53,0.01,8.98,14,0.190,8.24
1.2026,0.00175,0.00524,0.11170,0.00000,0.00000,0.00000,46,-11,53,7,72,6,50,9,ok,2,0,0.000,1,-0.76,-0.56,10.62,15,0.000,8.24
1.2250,0.00175,0.00524,0.11170,0.00000,0.00000,0.00000,44,-11,55,7,72,5,50,8,ok,2,0,0.000,1,-0.76,-0.56,10.62,15,0.013,8.24
1.2281,0.00175,0.00524,0.11170,0.00000,0.00000,0.00000,43,-10,56,7,71,4,51,9,ok,2,0,0.000,1,-0.76,-0.56,10.62,15,0.026,8.24
1.2409,0.00175,0.00524,0.11170,0.00000,0.00000,0.00000,42,-8,57,7,69,1,52,7,ok,2,0,0.000,1,-0.76,-0.56,10.62,15,0.039,8.24
1.2609,0.00175,0.00524,0.11170,0.00000,0.00000,0.00000,40,-7,57,7,67,2,52,8,ok,2,0,0.000,1,-0.76,-0.56,10.62,15,0.051,8.24
1.2658,0.00175,0.00524,0.11170,0.00000,0.00000,0.00000,38,-5,58,7,65,0,52,8,ok,2,0,0.000,1,-0.76,-0.56,10.62,15,0.063,8.24
1.2785,0.00175,0.00524,0.11170,0.00000,0.00000,0.00000,37,-3,58,8,64,-2,54,9,ok,2,0,0.000,1,-0.76,-0.56,10.62,15,0.076,8.24
1.3009,0.00175,0.00524,0.11170,0.00000,0.00000,0.00000,35,0,59,8,61,-4,55,8,ok,2,0,0.000,1,-0.76,-0.56,10.62,15,0.089,8.24
1.3042,0.00175,0.00524,0.11170,0.00000,0.00000,0.00000,34,0,60,10,60,-5,55,8,ok,2,0,0.000,1,-0.76,-0.56,10.62,15,0.102,8.24
1.3168,0.00175,0.00524,0.11170,0.00000,0.00000,0.00000,34,1,61,10,58,-6,57,6,ok,2,0,0.000,1,-0.76,-0.56,10.62,15,0.115,8.24
1.3369,0.00175,0.00524,0.11170,0.00000,0.00000,0.00000,34,3,61,11,56,-6,57,7,ok,2,0,0.000,1,-0.76,-0.56,10.62,15,0.127,8.24
1.3420,0.00175,0.00524,0.11170,0.00000,0.00000,0.00000,32,6,61,10,54,-7,58,8,ok,2,0,0.000,1,-0.76,-0.56,10.62,15,0.140,8.24
1.3545,0.00175,0.00524,0.11170,0.00000,0.00000,0.00000,32,9,61,12,51,-6,59,8,ok,2,0,0.000,1,-0.76,-0.56,10.62,15,0.152,8.24
1.3770,0.00175,0.00524,0.11170,0.00000,0.00000,0.00000,31,11,61,12,48,-6,59,9,ok,2,0,0.000,1,-0.76,-0.56,10.62,15,0.165,8.24
1.3802,0.00175,0.00524,0.11170,0.00000,0.00000,0.00000,32,11,62,13,46,-6,60,10,ok,2,0,0.000,1,-0.76,-0.56,10.62,15,0.178,8.24
1.3928,0.00175,0.00524,0.11170,0.00000,0.00000,0.00000,32,11,61,13,43,-5,60,10,ok,4,0,0.000,1,-0.76,-0.56,10.62,15,0.191,8.24
1.4129,-0.05236,0.01222,0.13963,0.00000,0.00000,0.00000,33,10,62,14,40,-5,60,11,ok,4,0,0.000,1,0.49,-0.50,10.16,16,0.000,8.24
1.4179,-0.05236,0.01222,0.13963,0.00000,0.00000,0.00000,34,9,62,15,37,-4,61,11,ok,4,0,0.000,1,0.49,-0.50,10.16,16,0.013,8.24
1.4303,-0.05236,0.01222,0.13963,0.00000,0.00000,0.00000,34,8,62,15,34,-3,61,13,ok,4,0,0.000,1,0.49,-0.50,10.16,16,0.025,8.24
1.4530,-0.05236,0.01222,0.13963,0.00000,0.00000,0.00000,35,7,63,16,31,-2,61,13,ok,4,0,0.000,1,0.49,-0.50,10.16,16,0.038,8.24
1.4561,-0.05236,0.01222,0.13963,0.00000,0.00000,0.00000,36,7,63,17,29,0,62,14,ok,4,0,0.000,1,0.49,-0.50,10.16,16,0.051,8.24
1.4687,-0.05236,0.01222,0.13963,0.00000,0.00000,0.00000,36,6,64,18,27,1,63,15,ok,4,0,0.000,1,0.49,-0.50,10.16,16,0.064,8.24
1.4890,-0.05236,0.01222,0.13963,0.00000,0.00000,0.00000,37,5,64,19,25,4,63,15,ok,4,0,0.000,1,0.49,-0.50,10.16,16,0.076,8.24
1.4940,-0.05236,0.01222,0.13963,0.00000,0.00000,0.00000,38,4,64,21,24,7,63,16,ok,4,0,0.000,1,0.49,-0.50,10.16,16,0.088,8.24
1.5063,-0.05236,0.01222,0.13963,0.00000,0.00000,0.00000,38,4,64,22,23,11,63,18,ok,4,0,0.000,1,0.49,-0.50,10.16,16,0.101,8.24
1.5290,-0.05236,0.01222,0.13963,0.00000,0.00000,0.00000,38,3,64,23,22,14,64,18,ok,4,0,0.000,1,0.49,-0.50,10.16,16,0.114,8.24
1.5321,-0.05236,0.01222,0.13963,0.00000,0.00000,0.00000,39,3,63,26,24,13,64,19,ok,4,0,0.000,1,0.49,-0.50,10.16,16,0.127,8.24
1.5449,-0.05236,0.01222,0.13963,0.00000,0.00000,0.00000,40,2,63,27,24,13,64,20,ok,4,0,0.000,1,0.49,-0.50,10.16,16,0.140,8.24
1.5649,-0.05236,0.01222,0.13963,0.00000,0.00000,0.00000,40,2,64,26,25,11,64,21,ok,4,0,0.000,2,0.49,-0.50,10.16,16,0.152,8.24
1.5697,-0.05236,0.01222,0.13963,0.00000,0.00000,0.00000,40,2,67,22,26,10,65,21,ok,4,0,0.000,2,0.49,-0.50,10.16,16,0.165,8.24
1.5825,-0.05236,0.01222,0.13963,0.00000,0.00000,0.00000,41,1,69,19,28,10,65,23,ok,4,0,0.000,2,0.49,-0.50,10.16,16,0.177,8.24
1.6090,-0.05236,0.01222,0.13963,0.00000,0.00000,0.00000,42,1,70,15,29,10,64,24,ok,4,0,0.000,2,0.49,-0.50,10.16,16,0.190,8.24
1.6124,-0.12915,-0.02094,0.15708,0.00000,0.00000,0.00000,42,1,71,13,30,9,64,26,ok,4,0,0.000,2,-1.88,-1.98,9.62,17,0.000,8.24
1.6248,-0.12915,-0.02094,0.15708,0.00000,0.00000,0.00000,44,1,70,12,33,9,65,27,ok,4,0,0.000,2,-1.88,-1.98,9.62,17,0.013,8.24
1.6449,-0.12915,-0.02094,0.15708,0.00000,0.00000,0.00000,44,1,70,9,33,9,65,29,ok,4,0,0.000,2,-1.88,-1.98,9.62,17,0.025,8.24
1.6498,-0.12915,-0.02094,0.15708,0.00000,0.00000,0.00000,45,2,69,6,35,9,64,30,ok,4,0,0.000,2,-1.88,-1.98,9.62,17,0.038,8.24
1.6625,-0.12915,-0.02094,0.15708,0.00000,0.00000,0.00000,46,2,69,3,36,8,65,31,ok,4,0,0.000,2,-1.88,-1.98,9.62,17,0.050,8.24
1.6850,-0.12915,-0.02094,0.15708,0.00000,0.00000,0.00000,46,2,67,1,37,8,64,33,ok,4,0,0.000,2,-1.88,-1.98,9.62,17,0.063,8.24
1.6882,-0.12915,-0.02094,0.15708,0.00000,0.00000,0.00000,47,2,66,-1,38,8,64,35,ok,4,0,0.000,2,-1.88,-1.98,9.62,17,0.076,8.24
1.7009,-0.12915,-0.02094,0.15708,0.00000,0.00000,0.00000,48,2,65,-3,39,8,63,36,ok,4,0,0.000,2,-1.88,-1.98,9.62,17,0.089,8.24
1.7209,-0.12915,-0.02094,0.15708,0.00000,0.00000,0.00000,48,2,62,-4,41,7,64,36,ok,4,0,0.000,2,-1.88,-1.98,9.62,17,0.101,8.24
1.7258,-0.12915,-0.02094,0.15708,0.00000,0.00000,0.00000,48,3,61,-5,42,7,65,35,ok,4,0,0.000,2,-1.88,-1.98,9.62,17,0.114,8.24
1.7384,-0.12915,-0.02094,0.15708,0.00000,0.00000,0.00000,49,3,60,-8,43,7,67,33,ok,4,0,0.000,2,-1.88,-1.98,9.62,17,0.126,8.24
1.7609,-0.12915,-0.02094,0.15708,0.00000,0.00000,0.00000,50,4,58,-8,44,7,69,28,ok,4,0,0.000,2,-1.88,-1.98,9.62,17,0.139,8.24
1.7641,-0.12915,-0.02094,0.15708,0.00000,0.00000,0.00000,50,3,56,-9,45,7,70,24,ok,4,0,0.000,2,-1.88,-1.98,9.62,17,0.152,8.24
1.7768,-0.12915,-0.02094,0.15708,0.00000,0.00000,0.00000,50,3,54,-9,46,7,72,21,ok,4,0,0.000,2,-1.88,-1.98,9.62,17,0.165,8.24
1.7969,-0.12915,-0.02094,0.15708,0.00000,0.00000,0.00000,50,5,51,-10,47,7,72,21,ok,4,0,0.001,2,-1.88,-1.98,9.62,17,0.177,8.24
1.8019,-0.12915,-0.02094,0.15708,0.00000,0.00000,0.00000,51,6,49,-10,47,7,72,19,ok,4,0,0.001,2,-1.88,-1.98,9.62,17,0.190,8.24
1.8145,-0.08552,0.01047,0.18151,0.00000,0.00000,0.00000,52,6,46,-10,48,7,72,15,ok,4,0,0.001,2,-0.01,-1.64,11.26,18,0.000,8.24
1.8370,-0.08552,0.01047,0.18151,0.00000,0.00000,0.00000,52,7,44,-10,49,7,72,13,ok,4,0,0.001,2,-0.01,-1.64,11.26,18,0.013,8.24
1.8401,-0.08552,0.01047,0.18151,0.00000,0.00000,0.00000,52,7,42,-10,50,7,71,11,ok,4,0,0.001,2,-0.01,-1.64,11.26,18,0.026,8.24
1.8530,-0.08552,0.01047,0.18151,0.00000,0.00000,0.00000,54,8,39,-10,51,7,70,7,ok,4,0,0.001,2,-0.01,-1.64,11.26,18,0.039,8.24
1.8729,-0.08552,0.01047,0.18151,0.00000,0.00000,0.00000,54,8,37,-9,52,6,70,6,ok,2,0,0.001,2,-0.01,-1.64,11.26,18,0.051,8.24
1.8778,-0.08552,0.01047,0.18151,0.00000,0.00000,0.00000,54,8,33,-9,52,7,69,4,ok,2,0,0.001,2,-0.01,-1.64,11.26,18,0.064,8.24
1.8903,-0.08552,0.01047,0.18151,0.00000,0.00000,0.00000,54,9,31,-8,53,7,67,2,ok,2,0,0.001,2,-0.01,-1.64,11.26,18,0.076,8.24
1.9130,-0.08552,0.01047,0.18151,0.00000,0.00000,0.00000,54,9,27,-7,54,8,66,2,ok,2,0,0.001,2,-0.01,-1.64,11.26,18,0.089,8.24
1.9162,-0.08552,0.01047,0.18151,0.00000,0.00000,0.00000,54,9,24,-5,55,8,65,0,ok,2,0,0.001,2,-0.01,-1.64,11.26,18,0.102,8.24
1.9288,-0.08552,0.01047,0.18151,0.00000,0.00000,0.00000,55,10,21,-2,56,8,64,-2,ok,2,0,0.001,2,-0.01,-1.64,11.26,18,0.115,8.24
1.9490,-0.08552,0.01047,0.18151,0.00000,0.00000,0.00000,56,10,19,-1,58,6,62,-3,ok,2,0,0.001,2,-0.01,-1.64,11.26,18,0.127,8.24
1.9542,-0.08552,0.01047,0.18151,0.00000,0.00000,0.00000,56,10,18,0,58,7,59,-4,ok,2,0,0.001,2,-0.01,-1.64,11.26,18,0.140,8.24
1.9663,-0.08552,0.01047,0.18151,0.00000,0.00000,0.00000,56,10,16,3,59,8,58,-4,ok,2,0,0.001,2,-0.01,-1.64,11.26,18,0.152,8.24
1.9890,-0.08552,0.01047,0.18151,0.00000,0.00000,0.00000,56,11,15,6,59,8,55,-5,ok,2,0,0.001,2,-0.01,-1.64,11.26,18,0.165,8.24
1.9921,-0.08552,0.01047,0.18151,0.00000,0.00000,0.00000,56,12,13,9,59,9,53,-6,ok,2,0,0.001,2,-0.01,-1.64,11.26,18,0.178,8.24
2.0049,-0.08552,0.01047,0.18151,0.00000,0.00000,0.00000,56,12,13,12,60,9,50,-5,ok,2,0,0.001,2,-0.01,-1.64,11.26,18,0.191,8.24
2.0249,0.01222,0.04189,0.14486,0.00000,0.00000,0.00000,56,13,14,12,60,9,48,-5,ok,2,0,0.001,2,0.55,0.68,9.97,19,0.000,8.24
2.0298,0.01222,0.04189,0.14486,0.00000,0.00000,0.00000,56,14,15,11,61,11,45,-5,ok,2,0,0.001,2,0.55,0.68,9.97,19,0.013,8.24
2.0425,0.01222,0.04189,0.14486,0.00000,0.00000,0.00000,56,14,17,10,61,11,42,-4,ok,2,0,0.001,2,0.55,0.68,9.97,19,0.025,8.24
2.0649,0.01222,0.04189,0.14486,0.00000,0.00000,0.00000,56,15,18,9,61,12,40,-4,ok,2,0,0.001,2,0.55,0.68,9.97,19,0.038,8.24
2.0681,0.01222,0.04189,0.14486,0.00000,0.00000,0.00000,56,16,19,8,62,12,36,-3,ok,2,0,0.001,2,0.55,0.68,9.97,19,0.051,8.24
2.0807,0.01222,0.04189,0.14486,0.00000,0.00000,0.00000,56,17,21,7,62,13,34,-3,ok,2,0,0.001,2,0.55,0.68,9.97,19,0.064,8.24
2.1009,0.01222,0.04189,0.14486,0.00000,0.00000,0.00000,56,18,21,7,62,14,30,-1,ok,2,0,0.001,2,0.55,0.68,9.97,19,0.076,8.24
2.1058,0.01222,0.04189,0.14486,0.00000,0.00000,0.00000,58,19,23,6,63,14,29,0,ok,2,0,0.001,2,0.55,0.68,9.97,19,0.088,8.24
2.1183,0.01222,0.04189,0.14486,0.00000,0.00000,0.00000,58,20,24,5,63,15,27,2,ok,2,0,0.001,2,0.55,0.68,9.97,19,0.101,8.24
2.1410,0.01222,0.04189,0.14486,0.00000,0.00000,0.00000,58,21,24,4,63,16,25,5,ok,2,0,0.001,2,0.55,0.68,9.97,19,0.114,8.24
2.1442,0.01222,0.04189,0.14486,0.00000,0.00000,0.00000,58,22,25,4,63,17,24,7,ok,2,0,0.001,2,0.55,0.68,9.97,19,0.127,8.24
2.1570,0.01222,0.04189,0.14486,0.00000,0.00000,0.00000,58,23,26,3,64,17,23,11,ok,2,0,0.001,2,0.55,0.68,9.97,19,0.140,8.24
2.1769,0.01222,0.04189,0.14486,0.00000,0.00000,0.00000,57,26,27,3,64,19,22,13,ok,2,0,0.001,2,0.55,0.68,9.97,19,0.152,8.24
2.1818,0.01222,0.04189,0.14486,0.00000,0.00000,0.00000,57,26,28,2,64,20,24,12,ok,2,0,0.001,2,0.55,0.68,9.97,19,0.165,8.24
2.1945,0.01222,0.04189,0.14486,0.00000,0.00000,0.00000,58,25,29,2,64,21,25,12,ok,2,0,0.001,2,0.55,0.68,9.97,19,0.177,8.24
2.2170,0.01222,0.04189,0.14486,0.00000,0.00000,0.00000,58,21,30,2,65,22,25,10,ok,2,0,0.001,2,0.55,0.68,9.97,19,0.190,8.24
2.2204,-0.09425,0.04887,0.15359,0.00000,0.00000,0.00000,60,18,31,1,64,23,27,9,ok,2,0,0.001,2,1.72,-3.96,10.88,20,0.000,8.24
2.2328,-0.09425,0.04887,0.15359,0.00000,0.00000,0.00000,60,13,32,2,64,24,28,10,ok,2,0,0.001,2,1.72,-3.96,10.88,20,0.013,8.24
2.2529,-0.09425,0.04887,0.15359,0.00000,0.00000,0.00000,60,11,34,2,65,25,29,9,ok,2,0,0.001,2,1.72,-3.96,10.88,20,0.025,8.24
2.2580,-0.09425,0.04887,0.15359,0.00000,0.00000,0.00000,60,10,35,2,64,27,31,9,ok,2,0,0.001,2,1.72,-3.96,10.88,20,0.038,8.24
2.2704,-0.09425,0.04887,0.15359,0.00000,0.00000,0.00000,60,7,37,2,63,28,33,9,ok,2,0,0.001,2,1.72,-3.96,10.88,20,0.050,8.24
2.2930,-0.09425,0.04887,0.15359,0.00000,0.00000,0.00000,60,4,38,3,64,30,33,9,ok,2,0,0.001,2,1.72,-3.96,10.88,20,0.063,8.24
2.2961,-0.09425,0.04887,0.15359,0.00000,0.00000,0.00000,60,1,40,3,64,32,35,9,ok,2,0,0.001,2,1.72,-3.96,10.88,20,0.076,8.24
2.3093,-0.09425,0.04887,0.15359,0.00000,0.00000,0.00000,59,-1,41,3,64,33,36,9,ok,2,0,0.001,2,1.72,-3.96,10.88,20,0.089,8.24
2.3289,-0.09425,0.04887,0.15359,0.00000,0.00000,0.00000,58,-3,42,3,64,35,37,9,ok,2,0,0.001,2,1.72,-3.96,10.88,20,0.101,8.24
2.3338,-0.09425,0.04887,0.15359,0.00000,0.00000,0.00000,58,-4,44,3,64,35,38,8,ok,2,0,0.001,2,1.72,-3.96,10.88,20,0.114,8.24
2.3463,-0.09425,0.04887,0.15359,0.00000,0.00000,0.00000,56,-5,44,3,66,35,39,8,ok,2,0,0.001,2,1.72,-3.96,10.88,20,0.126,8.24
2.3689,-0.09425,0.04887,0.15359,0.00000,0.00000,0.00000,56,-6,45,3,67,33,41,7,ok,2,0,0.001,2,1.72,-3.96,10.88,20,0.139,8.24
2.3723,-0.09425,0.04887,0.15359,0.00000,0.00000,0.00000,56,-8,46,3,69,28,42,7,ok,2,0,0.001,2,1.72,-3.96,10.88,20,0.152,8.24
2.3847,-0.09425,0.04887,0.15359,0.00000,0.00000,0.00000,54,-9,48,4,71,24,43,7,ok,2,0,0.001,2,1.72,-3.96,10.88,20,0.165,8.24
2.4049,-0.09425,0.04887,0.15359,0.00000,0.00000,0.00000,54,-10,49,4,73,21,44,7,ok,2,0,0.001,2,1.72,-3.96,10.88,20,0.177,8.24
2.4100,-0.09425,0.04887,0.15359,0.00000,0.00000,0.00000,52,-10,49,4,74,20,45,8,ok,2,0,0.001,2,1.72,-3.96,10.88,20,0.190,8.24
2.4226,0.03491,0.04712,0.10123,0.00000,0.00000,0.00000,51,-11,49,6,74,18,46,8,ok,2,0,0.001,2,0.07,0.33,10.04,21,0.000,8.24
2.4450,0.03491,0.04712,0.10123,0.00000,0.00000,0.00000,50,-11,51,6,74,15,47,8,ok,2,0,0.001,2,0.07,0.33,10.04,21,0.013,8.24
2.4482,0.03491,0.04712,0.10123,0.00000,0.00000,0.00000,48,-11,51,5,74,12,48,8,ok,2,0,0.001,2,0.07,0.33,10.04,21,0.026,8.24
2.4611,0.03491,0.04712,0.10123,0.00000,0.00000,0.00000,47,-10,53,6,73,10,49,8,ok,2,0,0.001,2,0.07,0.33,10.04,21,0.039,8.24
2.4809,0.03491,0.04712,0.10123,0.00000,0.00000,0.00000,46,-10,53,6,73,7,49,9,ok,2,0,0.001,2,0.07,0.33,10.04,21,0.051,8.24
2.4858,0.03491,0.04712,0.10123,0.00000,0.00000,0.00000,44,-10,55,6,72,5,49,8,ok,2,0,0.001,2,0.07,0.33,10.04,21,0.064,8.24
2.4983,0.03491,0.04712,0.10123,0.00000,0.00000,0.00000,43,-9,56,6,71,4,51,9,ok,2,0,0.001,2,0.07,0.33,10.04,21,0.076,8.24
2.5210,0.03491,0.04712,0.10123,0.00000,0.00000,0.00000,42,-8,57,6,69,1,51,7,ok,2,0,0.001,2,0.07,0.33,10.04,21,0.089,8.24
2.5242,0.03491,0.04712,0.10123,0.00000,0.00000,0.00000,40,-7,57,7,66,1,52,8,ok,2,0,0.001,2,0.07,0.33,10.04,21,0.102,8.24
2.5368,0.03491,0.04712,0.10123,0.00000,0.00000,0.00000,38,-5,57,7,65,-1,52,8,ok,2,0,0.001,2,0.07,0.33,10.04,21,0.115,8.24
2.5569,0.03491,0.04712,0.10123,0.00000,0.00000,0.00000,37,-3,58,8,64,-2,54,9,ok,2,0,0.001,2,0.07,0.33,10.04,21,0.127,8.24
2.5622,0.03491,0.04712,0.10123,0.00000,0.00000,0.00000,35,-1,59,9,62,-4,55,8,ok,2,0,0.001,3,0.07,0.33,10.04,21,0.140,8.24
2.5743,0.03491,0.04712,0.10123,0.00000,0.00000,0.00000,34,-2,60,10,61,-5,55,8,ok,2,0,0.001,3,0.07,0.33,10.04,21,0.152,8.24
2.5970,0.03491,0.04712,0.10123,0.00000,0.00000,0.00000,34,-1,60,10,59,-5,57,6,ok,2,0,0.001,3,0.07,0.33,10.04,21,0.165,8.24
2.6003,0.03491,0.04712,0.10123,0.00000,0.00000,0.00000,33,2,61,11,56,-6,57,7,ok,2,0,0.001,3,0.07,0.33,10.04,21,0.178,8.24
2.6129,0.03491,0.04712,0.10123,0.00000,0.00000,0.00000,32,5,61,11,54,-7,58,8,ok,2,0,0.001,3,0.07,0.33,10.04,21,0.191,8.24
2.6330,0.03491,0.04712,0.10123,0.00000,0.00000,0.00000,32,8,61,12,51,-6,58,8,ok,2,0,0.001,3,0.07,0.33,10.04,21,0.203,8.24
2.6380,-0.00698,0.02443,0.13090,0.00000,0.00000,0.00000,31,10,61,12,48,-6,59,9,ok,2,0,0.001,3,-0.00,-0.99,7.97,22,0.000,8.24
2.6503,-0.00698,0.02443,0.13090,0.00000,0.00000,0.00000,32,11,61,13,46,-6,60,10,ok,2,0,0.001,3,-0.00,-0.99,7.97,22,0.013,8.24
2.6730,-0.00698,0.02443,0.13090,0.00000,0.00000,0.00000,32,10,61,14,43,-5,60,10,ok,2,0,0.001,3,-0.00,-0.99,7.97,22,0.025,8.24
2.6761,-0.00698,0.02443,0.13090,0.00000,0.00000,0.00000,33,9,62,14,40,-5,61,11,ok,2,0,0.001,3,-0.00,-0.99,7.97,22,0.038,8.24
2.6888,-0.00698,0.02443,0.13090,0.00000,0.00000,0.00000,34,8,62,15,37,-4,61,12,ok,2,0,0.001,3,-0.00,-0.99,7.97,22,0.051,8.24
2.7089,-0.00698,0.02443,0.13090,0.00000,0.00000,0.00000,34,8,62,15,35,-3,62,13,ok,2,0,0.001,3,-0.00,-0.99,7.97,22,0.064,8.24
2.7137,-0.00698,0.02443,0.13090,0.00000,0.00000,0.00000,35,7,63,16,31,-2,62,13,ok,4,0,0.001,3,-0.00,-0.99,7.97,22,0.076,8.24
2.7265,-0.00698,0.02443,0.13090,0.00000,0.00000,0.00000,36,7,63,17,30,0,62,14,ok,4,0,0.001,3,-0.00,-0.99,7.97,22,0.088,8.24
2.7490,-0.00698,0.02443,0.13090,0.00000,0.00000,0.00000,36,6,64,18,28,1,63,15,ok,4,0,0.001,3,-0.00,-0.99,7.97,22,0.101,8.24
2.7521,-0.00698,0.02443,0.13090,0.00000,0.00000,0.00000,37,5,64,19,26,4,63,15,ok,4,0,0.001,3,-0.00,-0.99,7.97,22,0.114,8.24
2.7647,-0.00698,0.02443,0.13090,0.00000,0.00000,0.00000,37,4,64,20,24,8,63,16,ok,4,0,0.001,3,-0.00,-0.99,7.97,22,0.127,8.24
2.7849,-0.00698,0.02443,0.13090,0.00000,0.00000,0.00000,38,4,64,22,23,11,63,17,ok,4,0,0.001,3,-0.00,-0.99,7.97,22,0.139,8.24
2.7898,-0.00698,0.02443,0.13090,0.00000,0.00000,0.00000,38,4,64,23,22,14,64,18,ok,4,0,0.001,3,-0.00,-0.99,7.97,22,0.152,8.24
2.8023,-0.00698,0.02443,0.13090,0.00000,0.00000,0.00000,39,3,63,25,24,13,64,19,ok,4,0,0.001,3,-0.00,-0.99,7.97,22,0.165,8.24
2.8249,-0.00698,0.02443,0.13090,0.00000,0.00000,0.00000,40,2,63,27,24,13,64,19,ok,4,0,0.001,3,-0.00,-0.99,7.97,22,0.177,8.24
2.8284,-0.00698,0.02443,0.13090,0.00000,0.00000,0.00000,40,2,64,25,25,11,64,21,ok,4,0,0.001,3,-0.00,-0.99,7.97,22,0.190,8.24
2.8410,-0.06109,0.02443,0.12915,0.00000,0.00000,0.00000,40,2,67,22,27,11,65,21,ok,4,0,0.001,3,-0.08,-0.77,9.65,23,0.000,8.24
2.8609,-0.06109,0.02443,0.12915,0.00000,0.00000,0.00000,41,1,69,19,28,10,65,23,ok,4,0,0.001,3,-0.08,-0.77,9.65,23,0.013,8.24
2.8657,-0.06109,0.02443,0.12915,0.00000,0.00000,0.00000,42,1,70,15,29,10,64,24,ok,4,0,0.001,3,-0.08,-0.77,9.65,23,0.025,8.24
2.8783,-0.06109,0.02443,0.12915,0.00000,0.00000,0.00000,42,1,71,13,30,9,64,26,ok,4,0,0.001,3,-0.08,-0.77,9.65,23,0.038,8.24
2.9010,-0.06109,0.02443,0.12915,0.00000,0.00000,0.00000,44,1,70,12,32,9,65,26,ok,4,0,0.001,3,-0.08,-0.77,9.65,23,0.050,8.24
2.9041,-0.06109,0.02443,0.12915,0.00000,0.00000,0.00000,44,1,70,9,33,9,64,29,ok,4,0,0.001,3,-0.08,-0.77,9.65,23,0.063,8.24
2.9169,-0.06109,0.02443,0.12915,0.00000,0.00000,0.00000,45,2,69,6,35,9,64,30,ok,4,0,0.001,3,-0.08,-0.77,9.65,23,0.076,8.24
2.9369,-0.06109,0.02443,0.12915,0.00000,0.00000,0.00000,46,2,69,3,36,8,64,31,ok,4,0,0.001,3,-0.08,-0.77,9.65,23,0.089,8.24
2.9417,-0.06109,0.02443,0.12915,0.00000,0.00000,0.00000,46,2,67,1,37,9,64,33,ok,4,0,0.001,3,-0.08,-0.77,9.65,23,0.101,8.24
2.9545,-0.06109,0.02443,0.12915,0.00000,0.00000,0.00000,47,2,66,-1,39,8,64,34,ok,4,0,0.001,3,-0.08,-0.77,9.65,23,0.114,8.24
2.9769,-0.06109,0.02443,0.12915,0.00000,0.00000,0.00000,48,2,64,-3,40,8,63,36,ok,4,0,0.001,3,-0.08,-0.77,9.65,23,0.126,8.24
2.9802,-0.06109,0.02443,0.12915,0.00000,0.00000,0.00000,48,2,62,-4,41,7,64,36,ok,4,0,0.001,3,-0.08,-0.77,9.65,23,0.139,8.24
2.9927,-0.06109,0.02443,0.12915,0.00000,0.00000,0.00000,48,3,61,-6,42,7,65,35,ok,4,0,0.001,3,-0.08,-0.77,9.65,23,0.152,8.24
3.0129,-0.06109,0.02443,0.12915,0.00000,0.00000,0.00000,49,3,60,-8,43,7,67,33,ok,4,0,0.001,3,-0.08,-0.77,9.65,23,0.165,8.24
3.0177,-0.06109,0.02443,0.12915,0.00000,0.00000,0.00000,50,3,58,-8,44,7,69,27,ok,4,0,0.001,3,-0.08,-0.77,9.65,23,0.177,8.24
3.0306,-0.06109,0.02443,0.12915,0.00000,0.00000,0.00000,50,3,55,-9,45,7,71,24,ok,4,0,0.001,3,-0.08,-0.77,9.65,23,0.189,8.24
3.0530,-0.13439,0.04538,0.19373,0.00000,0.00000,0.00000,50,3,53,-9,46,7,72,21,ok,4,0,0.001,3,-1.54,-0.79,10.65,24,0.000,8.24
3.0562,-0.13439,0.04538,0.19373,0.00000,0.00000,0.00000,50,5,51,-10,47,7,73,21,ok,4,0,0.001,3,-1.54,-0.79,10.65,24,0.013,8.24
3.0690,-0.13439,0.04538,0.19373,0.00000,0.00000,0.00000,51,6,49,-10,47,7,73,18,ok,2,0,0.001,3,-1.54,-0.79,10.65,24,0.026,8.24
3.0889,-0.13439,0.04538,0.19373,0.00000,0.00000,0.00000,52,5,46,-10,48,7,73,15,ok,2,0,0.001,3,-1.54,-0.79,10.65,24,0.039,8.24
3.0938,-0.13439,0.04538,0.19373,0.00000,0.00000,0.00000,52,6,44,-9,49,7,72,12,ok,2,0,0.001,3,-1.54,-0.79,10.65,24,0.051,8.24
3.1064,-0.13439,0.04538,0.19373,0.00000,0.00000,0.00000,52,6,41,-9,50,7,72,11,ok,2,0,0.001,3,-1.54,-0.79,10.65,24,0.064,8.24
3.1290,-0.13439,0.04538,0.19373,0.00000,0.00000,0.00000,53,6,39,-10,51,7,71,7,ok,2,0,0.001,3,-1.54,-0.79,10.65,24,0.076,8.24
3.1321,-0.13439,0.04538,0.19373,0.00000,0.00000,0.00000,53,6,36,-9,52,6,71,6,ok,2,0,0.001,3,-1.54,-0.79,10.65,24,0.089,8.24
3.1448,-0.13439,0.04538,0.19373,0.00000,0.00000,0.00000,54,7,33,-8,52,7,70,4,ok,2,0,0.001,3,-1.54,-0.79,10.65,24,0.102,8.24
3.1650,-0.13439,0.04538,0.19373,0.00000,0.00000,0.00000,54,7,30,-7,53,7,68,2,ok,2,0,0.001,3,-1.54,-0.79,10.65,24,0.115,8.24
3.1699,-0.13439,0.04538,0.19373,0.00000,0.00000,0.00000,54,7,27,-6,54,8,66,2,ok,2,0,0.001,3,-1.54,-0.79,10.65,24,0.127,8.24
3.1823,-0.13439,0.04538,0.19373,0.00000,0.00000,0.00000,54,8,24,-4,55,8,65,0,ok,2,0,0.001,3,-1.54,-0.79,10.65,24,0.139,8.24
3.2050,-0.13439,0.04538,0.19373,0.00000,0.00000,0.00000,55,10,20,-2,56,8,64,-2,ok,2,0,0.001,3,-1.54,-0.79,10.65,24,0.152,8.24
3.2083,-0.13439,0.04538,0.19373,0.00000,0.00000,0.00000,55,10,19,-1,58,6,62,-3,ok,2,0,0.001,3,-1.54,-0.79,10.65,24,0.165,8.24
3.2210,-0.13439,0.04538,0.19373,0.00000,0.00000,0.00000,56,10,18,0,58,7,60,-4,ok,2,0,0.001,3,-1.54,-0.79,10.65,24,0.178,8.24
3.2409,-0.13439,0.04538,0.19373,0.00000,0.00000,0.00000,56,10,16,3,59,8,58,-4,ok,2,0,0.001,3,-1.54,-0.79,10.65,24,0.191,8.24
3.2460,-0.01222,0.02793,0.14137,0.00000,0.00000,0.00000,56,11,14,6,59,8,55,-5,ok,2,0,0.001,3,1.29,-0.29,9.09,25,0.000,8.24
3.2584,-0.01222,0.02793,0.14137,0.00000,0.00000,0.00000,56,12,13,9,60,9,53,-6,ok,2,0,0.001,3,1.29,-0.29,9.09,25,0.013,8.24
3.2809,-0.01222,0.02793,0.14137,0.00000,0.00000,0.00000,56,12,12,11,60,10,50,-5,ok,2,0,0.001,3,1.29,-0.29,9.09,25,0.025,8.24
3.2843,-0.01222,0.02793,0.14137,0.00000,0.00000,0.00000,56,13,14,12,61,10,47,-5,ok,2,0,0.001,3,1.29,-0.29,9.09,25,0.038,8.24
3.2967,-0.01222,0.02793,0.14137,0.00000,0.00000,0.00000,56,14,15,11,61,11,45,-5,ok,2,0,0.001,3,1.29,-0.29,9.09,25,0.051,8.24
3.3169,-0.01222,0.02793,0.14137,0.00000,0.00000,0.00000,56,14,16,10,62,11,42,-4,ok,2,0,0.001,3,1.29,-0.29,9.09,25,0.064,8.24
3.3219,-0.01222,0.02793,0.14137,0.00000,0.00000,0.00000,56,16,18,9,62,12,40,-4,ok,2,0,0.001,3,1.29,-0.29,9.09,25,0.076,8.24
3.3345,-0.01222,0.02793,0.14137,0.00000,0.00000,0.00000,56,16,19,8,61,12,37,-3,ok,2,0,0.001,3,1.29,-0.29,9.09,25,0.088,8.24
3.3570,-0.01222,0.02793,0.14137,0.00000,0.00000,0.00000,56,17,21,7,62,13,35,-3,ok,2,0,0.001,3,1.29,-0.29,9.09,25,0.101,8.24
3.3602,-0.01222,0.02793,0.14137,0.00000,0.00000,0.00000,56,18,21,7,62,14,31,-1,ok,2,0,0.001,3,1.29,-0.29,9.09,25,0.114,8.24
3.3731,-0.01222,0.02793,0.14137,0.00000,0.00000,0.00000,58,19,23,6,63,14,30,0,ok,2,0,0.001,3,1.29,-0.29,9.09,25,0.127,8.24
3.3929,-0.01222,0.02793,0.14137,0.00000,0.00000,0.00000,58,20,24,5,63,15,27,2,ok,2,0,0.001,3,1.29,-0.29,9.09,25,0.140,8.24
3.3978,-0.01222,0.02793,0.14137,0.00000,0.00000,0.00000,58,21,24,5,63,16,25,5,ok,2,0,0.001,3,1.29,-0.29,9.09,25,0.152,8.24
3.4106,-0.01222,0.02793,0.14137,0.00000,0.00000,0.00000,58,22,25,4,63,17,24,7,ok,2,0,0.001,3,1.29,-0.29,9.09,25,0.165,8.24
3.4330,-0.01222,0.02793,0.14137,0.00000,0.00000,0.00000,58,23,26,3,64,17,23,11,ok,2,0,0.001,3,1.29,-0.29,9.09,25,0.177,8.24
3.4365,-0.01222,0.02793,0.14137,0.00000,0.00000,0.00000,57,26,27,3,64,19,22,13,ok,2,0,0.001,3,1.29,-0.29,9.09,25,0.191,8.24
3.4491,-0.12392,0.10647,0.15184,0.00000,0.00000,0.00000,57,26,28,2,64,20,24,12,ok,2,0,0.001,3,-0.47,-1.89,10.99,26,0.000,8.24
3.4689,-0.12392,0.10647,0.15184,0.00000,0.00000,0.00000,58,25,29,2,64,20,25,12,ok,2,0,0.001,3,-0.47,-1.89,10.99,26,0.012,8.24
3.4741,-0.12392,0.10647,0.15184,0.00000,0.00000,0.00000,59,21,30,2,64,21,26,10,ok,2,0,0.001,3,-0.47,-1.89,10.99,26,0.025,8.24
3.4866,-0.12392,0.10647,0.15184,0.00000,0.00000,0.00000,60,17,31,2,64,23,27,10,ok,2,0,0.001,3,-0.47,-1.89,10.99,26,0.037,8.24
3.5090,-0.12392,0.10647,0.15184,0.00000,0.00000,0.00000,60,12,32,3,64,24,28,10,ok,2,0,0.001,3,-0.47,-1.89,10.99,26,0.050,8.24
3.5121,-0.12392,0.10647,0.15184,0.00000,0.00000,0.00000,60,10,33,3,65,25,29,10,ok,2,0,0.001,3,-0.47,-1.89,10.99,26,0.063,8.24
3.5249,-0.12392,0.10647,0.15184,0.00000,0.00000,0.00000,60,10,35,3,64,27,31,9,ok,2,0,0.001,3,-0.47,-1.89,10.99,26,0.076,8.24
3.5449,-0.12392,0.10647,0.15184,0.00000,0.00000,0.00000,60,6,36,3,64,28,33,9,ok,2,0,0.001,3,-0.47,-1.89,10.99,26,0.088,8.24
3.5498,-0.12392,0.10647,0.15184,0.00000,0.00000,0.00000,60,3,38,4,64,30,33,10,ok,2,0,0.001,3,-0.47,-1.89,10.99,26,0.101,8.24
3.5625,-0.12392,0.10647,0.15184,0.00000,0.00000,0.00000,59,1,39,4,64,32,35,9,ok,2,0,0.001,3,-0.47,-1.89,10.99,26,0.113,8.24
3.5849,-0.12392,0.10647,0.15184,0.00000,0.00000,0.00000,59,-1,41,3,64,33,36,9,ok,2,0,0.001,4,-0.47,-1.89,10.99,26,0.126,8.24
3.5882,-0.12392,0.10647,0.15184,0.00000,0.00000,0.00000,58,-3,42,3,64,34,37,9,ok,2,0,0.001,4,-0.47,-1.89,10.99,26,0.139,8.24
3.6007,-0.12392,0.10647,0.15184,0.00000,0.00000,0.00000,58,-4,43,3,65,35,38,8,ok,2,0,0.001,4,-0.47,-1.89,10.99,26,0.152,8.24
3.6209,-0.12392,0.10647,0.15184,0.00000,0.00000,0.00000,56,-5,43,3,66,35,40,8,ok,2,0,0.001,4,-0.47,-1.89,10.99,26,0.164,8.24
3.6283,-0.12392,0.10647,0.15184,0.00000,0.00000,0.00000,56,-6,45,3,68,32,41,7,ok,2,0,0.001,4,-0.47,-1.89,10.99,26,0.177,8.24
3.6386,-0.12392,0.10647,0.15184,0.00000,0.00000,0.00000,56,-8,46,3,70,28,42,7,ok,2,0,0.001,4,-0.47,-1.89,10.99,26,0.189,8.24
3.6610,-0.01047,0.01571,0.19024,0.00000,0.00000,0.00000,54,-9,47,4,72,24,44,7,ok,2,0,0.001,4,0.29,0.39,11.69,27,0.000,8.24
3.6642,-0.01047,0.01571,0.19024,0.00000,0.00000,0.00000,53,-10,48,3,74,21,44,7,ok,2,0,0.001,4,0.29,0.39,11.69,27,0.013,8.24
3.6768,-0.01047,0.01571,0.19024,0.00000,0.00000,0.00000,52,-10,49,3,75,21,45,7,ok,2,0,0.001,4,0.29,0.39,11.69,27,0.026,8.24
3.6969,-0.01047,0.01571,0.19024,0.00000,0.00000,0.00000,50,-11,49,5,75,18,46,7,ok,2,0,0.001,4,0.29,0.39,11.69,27,0.039,8.24
3.7019,-0.01047,0.01571,0.19024,0.00000,0.00000,0.00000,50,-10,51,6,75,15,47,8,ok,2,0,0.001,4,0.29,0.39,11.69,27,0.051,8.24
3.7143,-0.01047,0.01571,0.19024,0.00000,0.00000,0.00000,48,-10,52,5,74,12,48,8,ok,2,0,0.001,4,0.29,0.39,11.69,27,0.064,8.24
3.7369,-0.01047,0.01571,0.19024,0.00000,0.00000,0.00000,47,-10,53,5,73,10,49,8,ok,2,0,0.001,4,0.29,0.39,11.69,27,0.076,8.24
3.7402,-0.01047,0.01571,0.19024,0.00000,0.00000,0.00000,46,-10,53,6,72,6,49,9,ok,2,0,0.001,4,0.29,0.39,11.69,27,0.089,8.24
3.7530,-0.01047,0.01571,0.19024,0.00000,0.00000,0.00000,44,-10,56,6,72,4,50,8,ok,2,0,0.001,4,0.29,0.39,11.69,27,0.102,8.24
3.7729,-0.01047,0.01571,0.19024,0.00000,0.00000,0.00000,43,-9,56,6,71,3,51,9,ok,2,0,0.001,4,0.29,0.39,11.69,27,0.115,8.24
3.7777,-0.01047,0.01571,0.19024,0.00000,0.00000,0.00000,42,-8,57,7,69,1,52,7,ok,2,0,0.001,4,0.29,0.39,11.69,27,0.127,8.24
3.7905,-0.01047,0.01571,0.19024,0.00000,0.00000,0.00000,40,-7,57,8,66,1,52,8,ok,2,0,0.001,4,0.29,0.39,11.69,27,0.139,8.24
3.8129,-0.01047,0.01571,0.19024,0.00000,0.00000,0.00000,38,-6,58,8,65,-1,52,9,ok,2,0,0.001,4,0.29,0.39,11.69,27,0.152,8.24
3.8161,-0.01047,0.01571,0.19024,0.00000,0.00000,0.00000,37,-4,58,8,64,-3,54,9,ok,2,0,0.001,4,0.29,0.39,11.69,27,0.165,8.24
3.8287,-0.01047,0.01571,0.19024,0.00000,0.00000,0.00000,35,-2,59,9,62,-4,55,9,ok,2,0,0.001,4,0.29,0.39,11.69,27,0.178,8.24
3.8489,-0.01047,0.01571,0.19024,0.00000,0.00000,0.00000,34,-2,60,11,61,-5,54,8,ok,2,0,0.001,4,0.29,0.39,11.69,27,0.191,8.24
3.8540,0.01920,-0.00175,0.21642,0.00000,0.00000,0.00000,34,-1,61,10,59,-6,56,6,ok,2,0,0.001,4,0.31,-0.50,10.28,28,0.000,8.24
3.8664,0.01920,-0.00175,0.21642,0.00000,0.00000,0.00000,33,2,61,11,56,-6,57,7,ok,2,0,0.001,4,0.31,-0.50,10.28,28,0.013,8.24
3.8889,0.01920,-0.00175,0.21642,0.00000,0.00000,0.00000,32,5,61,11,54,-7,58,8,ok,2,0,0.001,4,0.31,-0.50,10.28,28,0.025,8.24
3.8922,0.01920,-0.00175,0.21642,0.00000,0.00000,0.00000,32,8,61,12,51,-6,58,9,ok,2,0,0.001,4,0.31,-0.50,10.28,28,0.038,8.24
3.9047,0.01920,-0.00175,0.21642,0.00000,0.00000,0.00000,31,11,61,12,48,-6,59,9,ok,2,0,0.001,4,0.31,-0.50,10.28,28,0.051,8.24
3.9249,0.01920,-0.00175,0.21642,0.00000,0.00000,0.00000,32,11,62,13,46,-6,60,10,ok,2,0,0.001,4,0.31,-0.50,10.28,28,0.064,8.24
3.9298,0.01920,-0.00175,0.21642,0.00000,0.00000,0.00000,32,11,61,13,43,-5,60,10,ok,2,0,0.001,4,0.31,-0.50,10.28,28,0.076,8.24
3.9423,0.01920,-0.00175,0.21642,0.00000,0.00000,0.00000,33,10,62,14,40,-5,60,11,ok,2,0,0.001,4,0.31,-0.50,10.28,28,0.089,8.24
3.9649,0.01920,-0.00175,0.21642,0.00000,0.00000,0.00000,34,9,62,14,38,-4,61,12,ok,2,0,0.001,4,0.31,-0.50,10.28,28,0.101,8.24
3.9682,0.01920,-0.00175,0.21642,0.00000,0.00000,0.00000,34,9,62,15,35,-4,61,13,ok,2,0,0.001,4,0.31,-0.50,10.28,28,0.114,8.24
3.9809,0.01920,-0.00175,0.21642,0.00000,0.00000,0.00000,35,7,63,15,32,-2,61,13,ok,2,0,0.001,4,0.31,-0.50,10.28,28,0.127,8.24
4.0009,0.01920,-0.00175,0.21642,0.00000,0.00000,0.00000,36,7,63,17,30,-1,62,14,ok,2,0,0.001,4,0.31,-0.50,10.28,28,0.140,8.24
4.0057,0.01920,-0.00175,0.21642,0.00000,0.00000,0.00000,36,6,64,18,28,1,62,15,ok,2,0,0.001,4,0.31,-0.50,10.28,28,0.152,8.24
4.0185,0.01920,-0.00175,0.21642,0.00000,0.00000,0.00000,37,5,64,19,26,4,63,15,ok,2,0,0.001,4,0.31,-0.50,10.28,28,0.165,8.24
4.0409,0.01920,-0.00175,0.21642,0.00000,0.00000,0.00000,38,5,64,20,24,7,63,16,ok,2,0,0.001,4,0.31,-0.50,10.28,28,0.177,8.24
4.0441,0.01920,-0.00175,0.21642,0.00000,0.00000,0.00000,38,4,64,21,23,11,63,18,ok,2,0,0.001,4,0.31,-0.50,10.28,28,0.190,8.24
4.0570,-0.15359,-0.01745,0.21642,0.00000,0.00000,0.00000,38,4,64,23,22,14,64,18,ok,2,0,0.001,4,0.87,-0.43,8.41,29,0.000,8.24
4.0769,-0.15359,-0.01745,0.21642,0.00000,0.00000,0.00000,39,3,63,26,24,13,64,19,ok,2,0,0.001,4,0.87,-0.43,8.41,29,0.013,8.24
4.0817,-0.15359,-0.01745,0.21642,0.00000,0.00000,0.00000,40,2,63,28,24,13,65,20,ok,2,0,0.001,4,0.87,-0.43,8.41,29,0.025,8.24
4.0943,-0.15359,-0.01745,0.21642,0.00000,0.00000,0.00000,40,1,65,26,25,11,65,21,ok,2,0,0.001,4,0.87,-0.43,8.41,29,0.038,8.24
4.1170,-0.15359,-0.01745,0.21642,0.00000,0.00000,0.00000,40,1,67,23,26,10,65,22,ok,2,0,0.001,4,0.87,-0.43,8.41,29,0.050,8.24
4.1202,-0.15359,-0.01745,0.21642,0.00000,0.00000,0.00000,41,0,69,20,27,10,66,23,ok,2,0,0.001,4,0.87,-0.43,8.41,29,0.063,8.24
4.1331,-0.15359,-0.01745,0.21642,0.00000,0.00000,0.00000,42,0,71,16,29,9,65,24,ok,2,0,0.001,4,0.87,-0.43,8.41,29,0.076,8.24
4.1529,-0.15359,-0.01745,0.21642,0.00000,0.00000,0.00000,42,0,71,14,30,8,65,26,ok,2,0,0.001,4,0.87,-0.43,8.41,29,0.089,8.24
4.1577,-0.15359,-0.01745,0.21642,0.00000,0.00000,0.00000,44,0,71,13,32,9,65,27,ok,2,0,0.001,4,0.87,-0.43,8.41,29,0.101,8.24
4.1703,-0.15359,-0.01745,0.21642,0.00000,0.00000,0.00000,44,0,71,10,33,8,64,29,ok,2,0,0.001,4,0.87,-0.43,8.41,29,0.114,8.24
4.1929,-0.15359,-0.01745,0.21642,0.00000,0.00000,0.00000,45,2,70,6,35,8,64,31,ok,2,0,0.001,4,0.87,-0.43,8.41,29,0.126,8.24
4.1964,-0.15359,-0.01745,0.21642,0.00000,0.00000,0.00000,46,2,69,3,36,8,64,32,ok,2,0,0.001,4,0.87,-0.43,8.41,29,0.139,8.24
4.2088,-0.15359,-0.01745,0.21642,0.00000,0.00000,0.00000,46,3,67,0,37,8,64,34,ok,2,0,0.001,4,0.87,-0.43,8.41,29,0.152,8.24
4.2289,-0.15359,-0.01745,0.21642,0.00000,0.00000,0.00000,47,2,66,-2,39,7,63,35,ok,2,0,0.001,4,0.87,-0.43,8.41,29,0.165,8.24
4.2340,-0.15359,-0.01745,0.21642,0.00000,0.00000,0.00000,48,3,65,-3,39,7,63,36,ok,2,0,0.001,4,0.87,-0.43,8.41,29,0.177,8.24
4.2465,-0.15359,-0.01745,0.21642,0.00000,0.00000,0.00000,48,3,62,-4,41,6,64,36,ok,2,0,0.001,4,0.87,-0.43,8.41,29,0.190,8.24
4.2690,-0.15359,-0.01745,0.21642,0.00000,0.00000,0.00000,48,3,61,-6,42,6,65,35,ok,2,0,0.001,4,0.87,-0.43,8.41,29,0.202,8.24
4.2724,-0.12741,0.07156,0.22166,0.00000,0.00000,0.00000,49,3,60,-8,43,6,67,33,ok,2,0,0.001,4,-0.36,-0.48,11.40,30,0.000,8.24
4.2849,-0.12741,0.07156,0.22166,0.00000,0.00000,0.00000,50,4,58,-8,44,6,69,28,ok,2,0,0.001,4,-0.36,-0.48,11.40,30,0.013,8.24
4.3049,-0.12741,0.07156,0.22166,0.00000,0.00000,0.00000,50,4,56,-9,44,6,70,24,ok,2,0,0.001,4,-0.36,-0.48,11.40,30,0.025,8.24
4.3098,-0.12741,0.07156,0.22166,0.00000,0.00000,0.00000,50,3,53,-9,46,6,72,21,ok,2,0,0.001,4,-0.36,-0.48,11.40,30,0.038,8.24
4.3224,-0.12741,0.07156,0.22166,0.00000,0.00000,0.00000,50,5,51,-10,47,6,72,21,ok,2,0,0.001,4,-0.36,-0.48,11.40,30,0.050,8.24
4.3449,-0.12741,0.07156,0.22166,0.00000,0.00000,0.00000,51,6,49,-10,48,7,72,19,ok,2,0,0.001,4,-0.36,-0.48,11.40,30,0.063,8.24
4.3481,-0.12741,0.07156,0.22166,0.00000,0.00000,0.00000,52,5,46,-10,49,6,72,15,ok,2,0,0.001,4,-0.36,-0.48,11.40,30,0.076,8.24
4.3610,-0.12741,0.07156,0.22166,0.00000,0.00000,0.00000,52,6,44,-10,49,7,72,13,ok,2,0,0.001,4,-0.36,-0.48,11.40,30,0.089,8.24
4.3810,-0.12741,0.07156,0.22166,0.00000,0.00000,0.00000,52,7,41,-10,50,7,71,11,ok,2,0,0.001,4,-0.36,-0.48,11.40,30,0.101,8.24
4.3860,-0.12741,0.07156,0.22166,0.00000,0.00000,0.00000,53,7,38,-10,51,7,71,8,ok,2,0,0.001,4,-0.36,-0.48,11.40,30,0.114,8.24
4.3983,-0.12741,0.07156,0.22166,0.00000,0.00000,0.00000,53,7,36,-9,52,6,71,6,ok,2,0,0.001,4,-0.36,-0.48,11.40,30,0.126,8.24
4.4210,-0.12741,0.07156,0.22166,0.00000,0.00000,0.00000,54,7,33,-9,52,7,70,4,ok,2,0,0.001,4,-0.36,-0.48,11.40,30,0.139,8.24
4.4243,-0.12741,0.07156,0.22166,0.00000,0.00000,0.00000,54,8,30,-7,53,7,68,2,ok,2,0,0.001,4,-0.36,-0.48,11.40,30,0.152,8.24
4.4369,-0.12741,0.07156,0.22166,0.00000,0.00000,0.00000,54,8,26,-6,54,8,66,2,ok,2,0,0.001,4,-0.36,-0.48,11.40,30,0.165,8.24
4.4570,-0.12741,0.07156,0.22166,0.00000,0.00000,0.00000,54,8,24,-4,55,8,65,0,ok,2,0,0.001,4,-0.36,-0.48,11.40,30,0.177,8.24
4.4620,-0.00175,0.01745,0.19548,0.00000,0.00000,0.00000,55,9,20,-2,56,7,64,-2,ok,2,0,0.001,4,0.93,0.08,9.11,31,0.000,8.24
4.4744,-0.00175,0.01745,0.19548,0.00000,0.00000,0.00000,55,10,18,-1,58,6,62,-3,ok,2,0,0.001,4,0.93,0.08,9.11,31,0.013,8.24
4.4970,-0.00175,0.01745,0.19548,0.00000,0.00000,0.00000,56,9,17,0,59,7,59,-4,ok,2,0,0.001,4,0.93,0.08,9.11,31,0.025,8.24
4.5004,-0.00175,0.01745,0.19548,0.00000,0.00000,0.00000,56,11,16,2,59,8,58,-4,ok,2,0,0.001,4,0.93,0.08,9.11,31,0.038,8.24
4.5128,-0.00175,0.01745,0.19548,0.00000,0.00000,0.00000,56,11,14,5,60,8,55,-5,ok,2,0,0.001,4,0.93,0.08,9.11,31,0.051,8.24
4.5329,-0.00175,0.01745,0.19548,0.00000,0.00000,0.00000,56,13,13,8,60,9,53,-6,ok,2,0,0.001,4,0.93,0.08,9.11,31,0.064,8.24
4.5379,-0.00175,0.01745,0.19548,0.00000,0.00000,0.00000,56,13,12,11,61,9,50,-5,ok,2,0,0.001,4,0.93,0.08,9.11,31,0.076,8.24
4.5503,-0.00175,0.01745,0.19548,0.00000,0.00000,0.00000,56,14,14,11,61,9,48,-5,ok,2,0,0.001,4,0.93,0.08,9.11,31,0.089,8.24
4.5730,-0.00175,0.01745,0.19548,0.00000,0.00000,0.00000,56,14,15,10,61,10,45,-5,ok,2,0,0.001,4,0.93,0.08,9.11,31,0.101,8.24
4.5762,-0.00175,0.01745,0.19548,0.00000,0.00000,0.00000,56,15,16,10,61,10,42,-4,ok,2,0,0.001,4,0.93,0.08,9.11,31,0.114,8.24
4.5893,-0.00175,0.01745,0.19548,0.00000,0.00000,0.00000,56,15,18,9,62,12,40,-4,ok,2,0,0.001,5,0.93,0.08,9.11,31,0.127,8.24
4.6090,-0.00175,0.01745,0.19548,0.00000,0.00000,0.00000,56,16,19,8,62,12,37,-3,ok,2,0,0.001,5,0.93,0.08,9.11,31,0.140,8.24
4.6138,-0.00175,0.01745,0.19548,0.00000,0.00000,0.00000,56,16,21,8,62,13,35,-3,ok,2,0,0.001,5,0.93,0.08,9.11,31,0.152,8.24
4.6271,-0.00175,0.01745,0.19548,0.00000,0.00000,0.00000,56,17,21,7,62,14,31,-1,ok,2,0,0.001,5,0.93,0.08,9.11,31,0.165,8.24
4.6490,-0.00175,0.01745,0.19548,0.00000,0.00000,0.00000,58,18,23,6,63,14,29,0,ok,2,0,0.001,5,0.93,0.08,9.11,31,0.177,8.24
4.6524,-0.00175,0.01745,0.19548,0.00000,0.00000,0.00000,58,20,24,5,63,15,27,2,ok,2,0,0.001,5,0.93,0.08,9.11,31,0.190,8.24
4.6651,-0.08727,0.07505,0.19373,0.00000,0.00000,0.00000,58,21,24,5,63,16,25,5,ok,2,0,0.001,5,-0.13,-2.89,8.65,32,0.000,8.24
4.6850,-0.08727,0.07505,0.19373,0.00000,0.00000,0.00000,58,22,25,4,63,16,24,7,ok,2,0,0.001,5,-0.13,-2.89,8.65,32,0.013,8.24
4.6898,-0.08727,0.07505,0.19373,0.00000,0.00000,0.00000,58,23,26,4,64,17,23,11,ok,2,0,0.001,5,-0.13,-2.89,8.65,32,0.025,8.24
4.7024,-0.08727,0.07505,0.19373,0.00000,0.00000,0.00000,57,25,27,3,64,18,22,13,ok,2,0,0.001,5,-0.13,-2.89,8.65,32,0.038,8.24
4.7250,-0.08727,0.07505,0.19373,0.00000,0.00000,0.00000,57,26,27,3,64,19,25,12,ok,2,0,0.001,5,-0.13,-2.89,8.65,32,0.050,8.24
4.7282,-0.08727,0.07505,0.19373,0.00000,0.00000,0.00000,58,24,28,2,64,20,25,12,ok,2,0,0.001,5,-0.13,-2.89,8.65,32,0.063,8.24
4.7410,-0.08727,0.07505,0.19373,0.00000,0.00000,0.00000,58,21,29,2,65,22,26,10,ok,2,0,0.001,5,-0.13,-2.89,8.65,32,0.076,8.24
4.7609,-0.08727,0.07505,0.19373,0.00000,0.00000,0.00000,60,17,30,2,64,23,27,10,ok,2,0,0.001,5,-0.13,-2.89,8.65,32,0.088,8.24
4.7657,-0.08727,0.07505,0.19373,0.00000,0.00000,0.00000,60,12,32,3,64,25,28,11,ok,2,0,0.001,5,-0.13,-2.89,8.65,32,0.101,8.24
4.7784,-0.08727,0.07505,0.19373,0.00000,0.00000,0.00000,60,10,33,2,65,25,29,10,ok,2,0,0.001,5,-0.13,-2.89,8.65,32,0.114,8.24
4.8010,-0.08727,0.07505,0.19373,0.00000,0.00000,0.00000,60,10,35,2,64,27,30,9,ok,2,0,0.001,5,-0.13,-2.89,8.65,32,0.126,8.24
4.8044,-0.08727,0.07505,0.19373,0.00000,0.00000,0.00000,60,7,36,2,64,28,32,9,ok,2,0,0.001,5,-0.13,-2.89,8.65,32,0.139,8.24
4.8168,-0.08727,0.07505,0.19373,0.00000,0.00000,0.00000,60,5,38,3,64,30,33,10,ok,2,0,0.001,5,-0.13,-2.89,8.65,32,0.152,8.24
4.8369,-0.08727,0.07505,0.19373,0.00000,0.00000,0.00000,60,2,39,3,64,31,35,9,ok,2,0,0.001,5,-0.13,-2.89,8.65,32,0.165,8.24
4.8418,-0.08727,0.07505,0.19373,0.00000,0.00000,0.00000,59,0,41,3,64,33,36,9,ok,2,0,0.001,5,-0.13,-2.89,8.65,32,0.177,8.24
4.8545,-0.08727,0.07505,0.19373,0.00000,0.00000,0.00000,58,-2,42,2,64,34,37,9,ok,2,0,0.001,5,-0.13,-2.89,8.65,32,0.190,8.24
4.8770,-0.08727,0.07505,0.19373,0.00000,0.00000,0.00000,58,-4,44,3,65,35,38,8,ok,2,0,0.001,5,-0.13,-2.89,8.65,32,0.202,8.24
4.8804,-0.03840,-0.00349,0.23562,0.00000,0.00000,0.00000,56,-5,44,3,66,35,39,8,ok,2,0,0.001,5,-0.02,-0.04,10.24,33,0.000,8.24
4.8929,-0.03840,-0.00349,0.23562,0.00000,0.00000,0.00000,56,-6,45,2,68,33,41,7,ok,2,0,0.001,5,-0.02,-0.04,10.24,33,0.013,8.24
4.9129,-0.03840,-0.00349,0.23562,0.00000,0.00000,0.00000,56,-8,46,2,70,28,42,7,ok,2,0,0.001,5,-0.02,-0.04,10.24,33,0.025,8.24
4.9178,-0.03840,-0.00349,0.23562,0.00000,0.00000,0.00000,54,-9,48,3,72,24,43,7,ok,2,0,0.001,5,-0.02,-0.04,10.24,33,0.038,8.24
4.9305,-0.03840,-0.00349,0.23562,0.00000,0.00000,0.00000,54,-10,49,3,73,21,44,7,ok,2,0,0.001,5,-0.02,-0.04,10.24,33,0.050,8.24
4.9529,-0.03840,-0.00349,0.23562,0.00000,0.00000,0.00000,52,-10,49,3,74,20,45,8,ok,2,0,0.001,5,-0.02,-0.04,10.24,33,0.063,8.24
4.9562,-0.03840,-0.00349,0.23562,0.00000,0.00000,0.00000,51,-11,50,5,74,18,46,8,ok,2,0,0.001,5,-0.02,-0.04,10.24,33,0.076,8.24
4.9689,-0.03840,-0.00349,0.23562,0.00000,0.00000,0.00000,50,-10,51,6,74,14,47,8,ok,2,0,0.001,5,-0.02,-0.04,10.24,33,0.089,8.24
4.9889,-0.03840,-0.00349,0.23562,0.00000,0.00000,0.00000,48,-10,52,5,73,11,48,8,ok,2,0,0.001,5,-0.02,-0.04,10.24,33,0.101,8.24
4.9938,-0.03840,-0.00349,0.23562,0.00000,0.00000,0.00000,48,-10,53,6,73,9,49,8,ok,2,0,0.001,5,-0.02,-0.04,10.24,33,0.114,8.24
5.0063,-0.03840,-0.00349,0.23562,0.00000,0.00000,0.00000,46,-10,53,7,72,6,49,9,ok,2,0,0.001,5,-0.02,-0.04,10.24,33,0.126,8.24
5.0329,-0.03840,-0.00349,0.23562,0.00000,0.00000,0.00000,44,-11,56,7,72,5,50,8,ok,2,0,0.001,5,-0.02,-0.04,10.24,33,0.139,8.24
5.0362,-0.03840,-0.00349,0.23562,0.00000,0.00000,0.00000,44,-10,56,7,71,3,51,9,ok,2,0,0.001,5,-0.02,-0.04,10.24,33,0.156,8.24
5.0490,-0.03840,-0.00349,0.23562,0.00000,0.00000,0.00000,42,-8,57,7,69,1,52,8,ok,2,0,0.001,5,-0.02,-0.04,10.24,33,0.169,8.24
5.0689,-0.03840,-0.00349,0.23562,0.00000,0.00000,0.00000,40,-7,57,8,66,1,52,9,ok,2,0,0.001,5,-0.02,-0.04,10.24,33,0.181,8.24
5.0740,-0.03840,-0.00349,0.23562,0.00000,0.00000,0.00000,38,-6,58,8,65,-1,52,9,ok,2,0,0.001,5,-0.02,-0.04,10.24,33,0.194,8.24
5.0866,0.06109,-0.02443,0.22864,0.00000,0.00000,0.00000,37,-4,58,8,64,-3,54,9,ok,2,0,0.001,5,-0.23,0.85,10.00,34,0.000,8.24
5.1090,0.06109,-0.02443,0.22864,0.00000,0.00000,0.00000,35,-1,59,9,62,-4,54,9,ok,2,0,0.001,5,-0.23,0.85,10.00,34,0.012,8.24
5.1124,0.06109,-0.02443,0.22864,0.00000,0.00000,0.00000,34,-1,60,10,61,-5,54,8,ok,2,0,0.001,5,-0.23,0.85,10.00,34,0.026,8.24
5.1248,0.06109,-0.02443,0.22864,0.00000,0.00000,0.00000,34,0,61,10,59,-5,56,6,ok,2,0,0.001,5,-0.23,0.85,10.00,34,0.038,8.24
5.1449,0.06109,-0.02443,0.22864,0.00000,0.00000,0.00000,33,3,61,11,56,-6,56,7,ok,2,0,0.001,5,-0.23,0.85,10.00,34,0.051,8.24
5.1498,0.06109,-0.02443,0.22864,0.00000,0.00000,0.00000,32,6,61,10,54,-7,57,8,ok,2,0,0.001,5,-0.23,0.85,10.00,34,0.063,8.24
5.1625,0.06109,-0.02443,0.22864,0.00000,0.00000,0.00000,32,9,61,11,51,-6,58,9,ok,2,0,0.001,5,-0.23,0.85,10.00,34,0.076,8.24
5.1850,0.06109,-0.02443,0.22864,0.00000,0.00000,0.00000,32,12,62,11,48,-6,59,9,ok,2,0,0.001,5,-0.23,0.85,10.00,34,0.088,8.24
5.1882,0.06109,-0.02443,0.22864,0.00000,0.00000,0.00000,32,12,62,12,46,-6,60,10,ok,2,0,0.001,5,-0.23,0.85,10.00,34,0.102,8.24
5.2009,0.06109,-0.02443,0.22864,0.00000,0.00000,0.00000,32,12,61,13,43,-5,59,10,ok,2,0,0.001,5,-0.23,0.85,10.00,34,0.114,8.24
5.2210,0.06109,-0.02443,0.22864,0.00000,0.00000,0.00000,33,10,62,13,40,-5,60,11,ok,2,0,0.001,5,-0.23,0.85,10.00,34,0.127,8.24
5.2267,0.06109,-0.02443,0.22864,0.00000,0.00000,0.00000,34,9,62,14,37,-4,60,12,ok,2,0,0.001,5,-0.23,0.85,10.00,34,0.139,8.24
5.2384,0.06109,-0.02443,0.22864,0.00000,0.00000,0.00000,34,8,62,15,35,-3,61,13,ok,2,0,0.001,5,-0.23,0.85,10.00,34,0.152,8.24
5.2610,0.06109,-0.02443,0.22864,0.00000,0.00000,0.00000,36,7,63,16,31,-2,61,13,ok,2,0,0.001,5,-0.23,0.85,10.00,34,0.164,8.24
5.2642,0.06109,-0.02443,0.22864,0.00000,0.00000,0.00000,36,7,63,17,30,0,62,14,ok,2,0,0.001,5,-0.23,0.85,10.00,34,0.178,8.24
5.2771,-0.06458,0.03665,0.21991,0.00000,0.00000,0.00000,36,6,64,18,28,1,62,15,ok,2,0,0.001,5,2.02,0.60,11.25,35,0.000,8.24
5.2970,-0.06458,0.03665,0.21991,0.00000,0.00000,0.00000,37,5,64,20,25,4,63,15,ok,2,0,0.001,5,2.02,0.60,11.25,35,0.013,8.24
5.3018,-0.06458,0.03665,0.21991,0.00000,0.00000,0.00000,38,4,64,21,24,7,63,17,ok,2,0,0.001,5,2.02,0.60,11.25,35,0.025,8.24
5.3143,-0.06458,0.03665,0.21991,0.00000,0.00000,0.00000,38,3,64,22,22,10,63,18,ok,2,0,0.001,5,2.02,0.60,11.25,35,0.038,8.24
5.3369,-0.06458,0.03665,0.21991,0.00000,0.00000,0.00000,38,3,64,23,22,13,64,18,ok,2,0,0.001,5,2.02,0.60,11.25,35,0.050,8.24
5.3402,-0.06458,0.03665,0.21991,0.00000,0.00000,0.00000,39,2,63,26,23,13,64,19,ok,2,0,0.001,5,2.02,0.60,11.25,35,0.063,8.24
5.3528,-0.06458,0.03665,0.21991,0.00000,0.00000,0.00000,40,1,63,28,24,13,64,20,ok,2,0,0.001,5,2.02,0.60,11.25,35,0.076,8.24
5.3730,-0.06458,0.03665,0.21991,0.00000,0.00000,0.00000,40,1,64,27,25,11,64,21,ok,2,0,0.001,5,2.02,0.60,11.25,35,0.089,8.24
5.3778,-0.06458,0.03665,0.21991,0.00000,0.00000,0.00000,40,0,67,24,26,10,65,22,ok,2,0,0.001,5,2.02,0.60,11.25,35,0.101,8.24
5.3904,-0.06458,0.03665,0.21991,0.00000,0.00000,0.00000,41,0,69,20,28,10,65,23,ok,2,0,0.001,5,2.02,0.60,11.25,35,0.113,8.24
5.4130,-0.06458,0.03665,0.21991,0.00000,0.00000,0.00000,42,0,70,15,29,10,64,24,ok,2,0,0.001,5,2.02,0.60,11.25,35,0.126,8.24
5.4162,-0.06458,0.03665,0.21991,0.00000,0.00000,0.00000,42,1,71,13,30,9,64,26,ok,2,0,0.001,5,2.02,0.60,11.25,35,0.139,8.24
5.4288,-0.06458,0.03665,0.21991,0.00000,0.00000,0.00000,44,2,70,12,33,9,65,27,ok,2,0,0.001,5,2.02,0.60,11.25,35,0.152,8.24
5.4489,-0.06458,0.03665,0.21991,0.00000,0.00000,0.00000,44,2,70,9,33,9,64,29,ok,2,0,0.001,5,2.02,0.60,11.25,35,0.165,8.24
5.4538,-0.06458,0.03665,0.21991,0.00000,0.00000,0.00000,45,2,69,6,35,8,64,30,ok,2,0,0.001,5,2.02,0.60,11.25,35,0.177,8.24
5.4666,-0.06458,0.03665,0.21991,0.00000,0.00000,0.00000,46,2,68,3,37,8,64,31,ok,2,0,0.001,5,2.02,0.60,11.25,35,0.190,8.24
5.4890,-0.06458,0.03665,0.21991,0.00000,0.00000,0.00000,46,2,67,0,38,8,64,33,ok,2,0,0.001,5,2.02,0.60,11.25,35,0.202,8.24
5.4925,-0.14486,0.02443,0.30543,0.00000,0.00000,0.00000,47,2,66,-2,39,8,64,35,ok,2,0,0.001,5,0.50,-1.56,10.03,36,0.000,8.24
5.5050,-0.14486,0.02443,0.30543,0.00000,0.00000,0.00000,48,2,64,-3,40,7,64,36,ok,2,0,0.001,5,0.50,-1.56,10.03,36,0.013,8.24
5.5249,-0.14486,0.02443,0.30543,0.00000,0.00000,0.00000,48,2,62,-4,41,6,65,36,ok,2,0,0.001,5,0.50,-1.56,10.03,36,0.025,8.24
5.5298,-0.14486,0.02443,0.30543,0.00000,0.00000,0.00000,48,2,61,-5,42,6,66,35,ok,2,0,0.001,5,0.50,-1.56,10.03,36,0.038,8.24
5.5424,-0.14486,0.02443,0.30543,0.00000,0.00000,0.00000,49,2,60,-8,43,6,68,33,ok,2,0,0.001,5,0.50,-1.56,10.03,36,0.050,8.24
5.5650,-0.14486,0.02443,0.30543,0.00000,0.00000,0.00000,50,3,58,-8,44,7,70,28,ok,2,0,0.001,5,0.50,-1.56,10.03,36,0.063,8.24
5.5682,-0.14486,0.02443,0.30543,0.00000,0.00000,0.00000,50,3,55,-9,45,7,71,24,ok,2,0,0.001,5,0.50,-1.56,10.03,36,0.076,8.24
5.5809,-0.14486,0.02443,0.30543,0.00000,0.00000,0.00000,50,2,53,-9,46,7,72,21,ok,2,0,0.001,5,0.50,-1.56,10.03,36,0.089,8.24
5.6009,-0.14486,0.02443,0.30543,0.00000,0.00000,0.00000,50,5,51,-10,47,7,72,21,ok,2,0,0.001,5,0.50,-1.56,10.03,36,0.101,8.24
5.6058,-0.14486,0.02443,0.30543,0.00000,0.00000,0.00000,51,5,49,-10,48,7,72,19,ok,2,0,0.001,6,0.50,-1.56,10.03,36,0.114,8.24
5.6183,-0.14486,0.02443,0.30543,0.00000,0.00000,0.00000,52,5,46,-10,49,7,72,15,ok,2,0,0.001,6,0.50,-1.56,10.03,36,0.126,8.24
5.6410,-0.14486,0.02443,0.30543,0.00000,0.00000,0.00000,52,6,44,-10,49,7,72,12,ok,2,0,0.001,6,0.50,-1.56,10.03,36,0.139,8.24
5.6442,-0.14486,0.02443,0.30543,0.00000,0.00000,0.00000,52,7,41,-10,50,7,71,11,ok,2,0,0.002,6,0.50,-1.56,10.03,36,0.152,8.24
5.6570,-0.14486,0.02443,0.30543,0.00000,0.00000,0.00000,53,7,39,-10,51,7,71,7,ok,2,0,0.002,6,0.50,-1.56,10.03,36,0.165,8.24
5.6769,-0.14486,0.02443,0.30543,0.00000,0.00000,0.00000,54,7,36,-9,52,6,71,6,ok,2,0,0.002,6,0.50,-1.56,10.03,36,0.177,8.24
5.6818,-0.14486,0.02443,0.30543,0.00000,0.00000,0.00000,54,7,33,-9,52,7,70,4,ok,2,0,0.002,6,0.50,-1.56,10.03,36,0.190,8.24
5.6947,-0.05236,0.04363,0.31241,0.00000,0.00000,0.00000,54,8,30,-7,53,7,68,2,ok,2,0,0.002,6,0.52,-0.20,10.49,37,0.000,8.24
5.7169,-0.05236,0.04363,0.31241,0.00000,0.00000,0.00000,54,8,27,-6,54,8,66,2,ok,2,0,0.002,6,0.52,-0.20,10.49,37,0.013,8.24
5.7202,-0.05236,0.04363,0.31241,0.00000,0.00000,0.00000,54,9,24,-5,55,8,64,0,ok,2,0,0.002,6,0.52,-0.20,10.49,37,0.026,8.24
5.7328,-0.05236,0.04363,0.31241,0.00000,0.00000,0.00000,55,10,20,-2,56,8,63,-2,ok,2,0,0.002,6,0.52,-0.20,10.49,37,0.038,8.24
5.7529,-0.05236,0.04363,0.31241,0.00000,0.00000,0.00000,55,10,19,-1,58,6,61,-3,ok,2,0,0.002,6,0.52,-0.20,10.49,37,0.051,8.24
5.7580,-0.05236,0.04363,0.31241,0.00000,0.00000,0.00000,56,10,18,0,58,7,59,-4,ok,2,0,0.002,6,0.52,-0.20,10.49,37,0.063,8.24
5.7703,-0.05236,0.04363,0.31241,0.00000,0.00000,0.00000,56,11,16,2,59,8,58,-4,ok,2,0,0.002,6,0.52,-0.20,10.49,37,0.076,8.24
5.7930,-0.05236,0.04363,0.31241,0.00000,0.00000,0.00000,56,11,14,5,59,8,55,-5,ok,2,0,0.002,6,0.52,-0.20,10.49,37,0.089,8.24
5.7963,-0.05236,0.04363,0.31241,0.00000,0.00000,0.00000,56,12,13,9,60,9,53,-6,ok,2,0,0.002,6,0.52,-0.20,10.49,37,0.102,8.24
5.8088,-0.05236,0.04363,0.31241,0.00000,0.00000,0.00000,56,12,12,11,60,9,50,-5,ok,2,0,0.002,6,0.52,-0.20,10.49,37,0.115,8.24
5.8289,-0.05236,0.04363,0.31241,0.00000,0.00000,0.00000,56,13,14,12,60,9,48,-5,ok,2,0,0.002,6,0.52,-0.20,10.49,37,0.127,8.24
5.8339,-0.05236,0.04363,0.31241,0.00000,0.00000,0.00000,56,13,15,11,61,10,46,-5,ok,2,0,0.002,6,0.52,-0.20,10.49,37,0.140,8.24
5.8466,-0.05236,0.04363,0.31241,0.00000,0.00000,0.00000,56,13,16,10,61,11,42,-4,ok,2,0,0.002,6,0.52,-0.20,10.49,37,0.152,8.24
5.8689,-0.05236,0.04363,0.31241,0.00000,0.00000,0.00000,56,14,18,9,61,12,41,-4,ok,2,0,0.002,6,0.52,-0.20,10.49,37,0.165,8.24
5.8722,-0.05236,0.04363,0.31241,0.00000,0.00000,0.00000,56,15,19,9,61,12,37,-3,ok,2,0,0.002,6,0.52,-0.20,10.49,37,0.178,8.24
5.8853,-0.05236,0.04363,0.31241,0.00000,0.00000,0.00000,56,16,21,8,62,13,35,-3,ok,2,0,0.002,6,0.52,-0.20,10.49,37,0.191,8.24
5.9050,-0.05934,0.07854,0.29845,0.00000,0.00000,0.00000,56,17,21,7,62,14,31,-1,ok,2,0,0.002,6,1.38,-1.16,10.87,38,0.000,8.24
5.9098,-0.05934,0.07854,0.29845,0.00000,0.00000,0.00000,57,18,23,6,63,14,30,0,ok,2,0,0.002,6,1.38,-1.16,10.87,38,0.012,8.24
5.9226,-0.05934,0.07854,0.29845,0.00000,0.00000,0.00000,57,20,24,5,63,15,27,2,ok,2,0,0.002,6,1.38,-1.16,10.87,38,0.025,8.24
5.9450,-0.05934,0.07854,0.29845,0.00000,0.00000,0.00000,58,21,24,5,63,16,25,5,ok,2,0,0.002,6,1.38,-1.16,10.87,38,0.038,8.24
5.9482,-0.05934,0.07854,0.29845,0.00000,0.00000,0.00000,58,22,25,4,63,16,24,7,ok,2,0,0.002,6,1.38,-1.16,10.87,38,0.051,8.24
5.9608,-0.05934,0.07854,0.29845,0.00000,0.00000,0.00000,58,23,25,3,64,17,23,11,ok,2,0,0.002,6,1.38,-1.16,10.87,38,0.063,8.24
5.9809,-0.05934,0.07854,0.29845,0.00000,0.00000,0.00000,57,25,26,3,64,18,22,13,ok,2,0,0.002,6,1.38,-1.16,10.87,38,0.076,8.24
5.9858,-0.05934,0.07854,0.29845,0.00000,0.00000,0.00000,57,26,27,2,64,19,25,12,ok,2,0,0.002,6,1.38,-1.16,10.87,38,0.088,8.24
5.9985,-0.05934,0.07854,0.29845,0.00000,0.00000,0.00000,58,25,28,2,64,21,25,12,ok,2,0,0.002,6,1.38,-1.16,10.87,38,0.101,8.24
6.0209,-0.05934,0.07854,0.29845,0.00000,0.00000,0.00000,58,21,29,2,65,22,26,10,ok,2,0,0.002,6,1.38,-1.16,10.87,38,0.113,8.24
6.0242,-0.05934,0.07854,0.29845,0.00000,0.00000,0.00000,60,18,30,1,64,23,27,10,ok,2,0,0.002,6,1.38,-1.16,10.87,38,0.127,8.24
6.0368,-0.05934,0.07854,0.29845,0.00000,0.00000,0.00000,60,13,32,2,64,25,28,10,ok,2,0,0.002,6,1.38,-1.16,10.87,38,0.139,8.24
6.0569,-0.05934,0.07854,0.29845,0.00000,0.00000,0.00000,60,11,33,2,65,25,29,10,ok,2,0,0.002,6,1.38,-1.16,10.87,38,0.152,8.24
6.0618,-0.05934,0.07854,0.29845,0.00000,0.00000,0.00000,60,10,35,2,64,27,30,9,ok,2,0,0.002,6,1.38,-1.16,10.87,38,0.164,8.24
6.0745,-0.05934,0.07854,0.29845,0.00000,0.00000,0.00000,60,7,36,2,64,29,32,9,ok,2,0,0.002,6,1.38,-1.16,10.87,38,0.177,8.24
6.0970,-0.05934,0.07854,0.29845,0.00000,0.00000,0.00000,60,5,38,3,64,30,33,9,ok,2,0,0.002,6,1.38,-1.16,10.87,38,0.189,8.24
6.1005,-0.12741,0.01047,0.34208,0.00000,0.00000,0.00000,60,2,39,3,64,32,35,9,ok,2,0,0.002,6,-0.69,-0.08,9.14,39,0.000,8.24
6.1130,-0.12741,0.01047,0.34208,0.00000,0.00000,0.00000,59,-1,41,3,64,33,36,9,ok,2,0,0.002,6,-0.69,-0.08,9.14,39,0.013,8.24
6.1370,-0.12741,0.01047,0.34208,0.00000,0.00000,0.00000,58,-3,42,2,64,34,37,9,ok,2,0,0.002,6,-0.69,-0.08,9.14,39,0.025,8.24
6.1401,-0.12741,0.01047,0.34208,0.00000,0.00000,0.00000,58,-4,44,3,65,35,39,8,ok,2,0,0.002,6,-0.69,-0.08,9.14,39,0.040,8.24
6.1529,-0.12741,0.01047,0.34208,0.00000,0.00000,0.00000,56,-5,44,3,66,35,40,8,ok,2,0,0.002,6,-0.69,-0.08,9.14,39,0.053,8.24
6.1729,-0.12741,0.01047,0.34208,0.00000,0.00000,0.00000,56,-7,45,3,68,33,41,7,ok,2,0,0.002,6,-0.69,-0.08,9.14,39,0.065,8.24
6.1778,-0.12741,0.01047,0.34208,0.00000,0.00000,0.00000,56,-9,46,3,70,28,42,7,ok,2,0,0.002,6,-0.69,-0.08,9.14,39,0.078,8.24
6.1905,-0.12741,0.01047,0.34208,0.00000,0.00000,0.00000,54,-9,48,4,71,24,43,7,ok,2,0,0.002,6,-0.69,-0.08,9.14,39,0.090,8.24
6.2129,-0.12741,0.01047,0.34208,0.00000,0.00000,0.00000,54,-10,49,4,73,21,44,7,ok,2,0,0.002,6,-0.69,-0.08,9.14,39,0.103,8.24
6.2161,-0.12741,0.01047,0.34208,0.00000,0.00000,0.00000,52,-11,49,4,74,20,45,8,ok,2,0,0.002,6,-0.69,-0.08,9.14,39,0.116,8.24
6.2288,-0.12741,0.01047,0.34208,0.00000,0.00000,0.00000,51,-11,49,6,74,18,46,8,ok,2,0,0.002,6,-0.69,-0.08,9.14,39,0.129,8.24
6.2489,-0.12741,0.01047,0.34208,0.00000,0.00000,0.00000,50,-11,51,6,74,14,47,8,ok,2,0,0.002,6,-0.69,-0.08,9.14,39,0.141,8.24
6.2538,-0.12741,0.01047,0.34208,0.00000,0.00000,0.00000,48,-11,52,6,73,11,48,8,ok,2,0,0.002,6,-0.69,-0.08,9.14,39,0.154,8.24
6.2662,-0.12741,0.01047,0.34208,0.00000,0.00000,0.00000,48,-10,53,6,73,9,49,9,ok,2,0,0.002,6,-0.69,-0.08,9.14,39,0.166,8.24
6.2890,-0.12741,0.01047,0.34208,0.00000,0.00000,0.00000,46,-10,53,7,72,6,49,9,ok,2,0,0.002,6,-0.69,-0.08,9.14,39,0.179,8.24
6.2924,0.02967,-0.01047,0.36652,0.00000,0.00000,0.00000,44,-11,55,7,72,4,50,9,ok,2,0,0.002,6,0.04,0.10,9.59,40,0.000,8.24
6.3049,0.02967,-0.01047,0.36652,0.00000,0.00000,0.00000,43,-9,56,7,71,4,51,9,ok,2,0,0.002,6,0.04,0.10,9.59,40,0.013,8.24
6.3249,0.02967,-0.01047,0.36652,0.00000,0.00000,0.00000,42,-8,57,7,69,1,51,8,ok,2,0,0.002,6,0.04,0.10,9.59,40,0.025,8.24
6.3299,0.02967,-0.01047,0.36652,0.00000,0.00000,0.00000,40,-7,57,7,67,2,51,9,ok,2,0,0.002,6,0.04,0.10,9.59,40,0.038,8.24
6.3424,0.02967,-0.01047,0.36652,0.00000,0.00000,0.00000,38,-5,58,7,66,-1,52,9,ok,2,0,0.002,6,0.04,0.10,9.59,40,0.050,8.24
6.3650,0.02967,-0.01047,0.36652,0.00000,0.00000,0.00000,37,-3,58,7,64,-2,53,9,ok,2,0,0.002,6,0.04,0.10,9.59,40,0.063,8.24
6.3683,0.02967,-0.01047,0.36652,0.00000,0.00000,0.00000,35,0,59,8,62,-4,54,9,ok,2,0,0.002,6,0.04,0.10,9.59,40,0.076,8.24
6.3809,0.02967,-0.01047,0.36652,0.00000,0.00000,0.00000,35,0,60,9,61,-5,54,8,ok,2,0,0.002,6,0.04,0.10,9.59,40,0.089,8.24
6.4009,0.02967,-0.01047,0.36652,0.00000,0.00000,0.00000,34,1,61,9,59,-6,56,6,ok,2,0,0.002,6,0.04,0.10,9.59,40,0.101,8.24
6.4058,0.02967,-0.01047,0.36652,0.00000,0.00000,0.00000,34,3,61,10,56,-7,57,7,ok,2,0,0.002,6,0.04,0.10,9.59,40,0.114,8.24
6.4183,0.02967,-0.01047,0.36652,0.00000,0.00000,0.00000,32,6,61,10,54,-7,57,8,ok,2,0,0.002,6,0.04,0.10,9.59,40,0.126,8.24
6.4410,0.02967,-0.01047,0.36652,0.00000,0.00000,0.00000,32,9,61,12,51,-7,58,9,ok,2,0,0.002,6,0.04,0.10,9.59,40,0.139,8.24
6.4442,0.02967,-0.01047,0.36652,0.00000,0.00000,0.00000,32,11,61,12,48,-6,59,9,ok,2,0,0.002,6,0.04,0.10,9.59,40,0.152,8.24
6.4568,0.02967,-0.01047,0.36652,0.00000,0.00000,0.00000,32,11,62,13,46,-6,60,10,ok,2,0,0.002,6,0.04,0.10,9.59,40,0.165,8.24
6.4769,0.02967,-0.01047,0.36652,0.00000,0.00000,0.00000,32,11,61,14,43,-5,59,10,ok,2,0,0.002,6,0.04,0.10,9.59,40,0.177,8.24
6.4819,0.02967,-0.01047,0.36652,0.00000,0.00000,0.00000,33,10,62,14,40,-5,60,11,ok,2,0,0.002,6,0.04,0.10,9.59,40,0.190,8.24
6.4946,-0.11868,0.03491,0.37176,0.00000,0.00000,0.00000,34,9,62,14,37,-4,60,12,ok,2,0,0.002,6,-0.02,-1.54,10.12,41,0.000,8.24
6.5170,-0.11868,0.03491,0.37176,0.00000,0.00000,0.00000,34,8,62,16,34,-4,61,13,ok,2,0,0.002,6,-0.02,-1.54,10.12,41,0.013,8.24
6.5202,-0.11868,0.03491,0.37176,0.00000,0.00000,0.00000,36,7,63,16,31,-3,61,13,ok,2,0,0.002,6,-0.02,-1.54,10.12,41,0.026,8.24
6.5328,-0.11868,0.03491,0.37176,0.00000,0.00000,0.00000,36,6,63,17,29,-1,63,14,ok,2,0,0.002,6,-0.02,-1.54,10.12,41,0.039,8.24
6.5529,-0.11868,0.03491,0.37176,0.00000,0.00000,0.00000,36,5,64,19,27,0,63,15,ok,2,0,0.002,6,-0.02,-1.54,10.12,41,0.051,8.24
6.5579,-0.11868,0.03491,0.37176,0.00000,0.00000,0.00000,37,4,64,20,25,4,64,16,ok,2,0,0.002,6,-0.02,-1.54,10.12,41,0.064,8.24
6.5703,-0.11868,0.03491,0.37176,0.00000,0.00000,0.00000,37,3,64,22,24,7,64,17,ok,2,0,0.002,6,-0.02,-1.54,10.12,41,0.076,8.24
6.5930,-0.11868,0.03491,0.37176,0.00000,0.00000,0.00000,38,3,64,23,23,10,63,18,ok,2,0,0.002,6,-0.02,-1.54,10.12,41,0.089,8.24
6.5963,-0.11868,0.03491,0.37176,0.00000,0.00000,0.00000,38,2,64,24,22,14,64,19,ok,2,0,0.002,6,-0.02,-1.54,10.12,41,0.102,8.24
6.6088,-0.11868,0.03491,0.37176,0.00000,0.00000,0.00000,39,2,63,26,24,13,64,20,ok,2,0,0.002,6,-0.02,-1.54,10.12,41,0.115,8.24
6.6289,-0.11868,0.03491,0.37176,0.00000,0.00000,0.00000,39,1,63,27,24,13,65,20,ok,2,0,0.002,7,-0.02,-1.54,10.12,41,0.127,8.24
6.6339,-0.11868,0.03491,0.37176,0.00000,0.00000,0.00000,40,2,64,26,26,11,65,21,ok,2,0,0.002,7,-0.02,-1.54,10.12,41,0.139,8.24
6.6463,-0.11868,0.03491,0.37176,0.00000,0.00000,0.00000,40,2,67,22,27,10,65,22,ok,2,0,0.002,7,-0.02,-1.54,10.12,41,0.152,8.24
6.6690,-0.11868,0.03491,0.37176,0.00000,0.00000,0.00000,41,1,69,19,28,10,65,23,ok,2,0,0.002,7,-0.02,-1.54,10.12,41,0.165,8.24
6.6723,-0.11868,0.03491,0.37176,0.00000,0.00000,0.00000,42,1,70,15,29,10,64,24,ok,2,0,0.002,7,-0.02,-1.54,10.12,41,0.178,8.24
6.6849,-0.11868,0.03491,0.37176,0.00000,0.00000,0.00000,42,1,70,12,30,8,64,26,ok,2,0,0.002,7,-0.02,-1.54,10.12,41,0.191,8.24
6.7050,-0.11868,0.03491,0.37176,0.00000,0.00000,0.00000,44,2,70,12,33,9,65,27,ok,2,0,0.002,7,-0.02,-1.54,10.12,41,0.203,8.24
6.7101,-0.10647,-0.01047,0.39619,0.00000,0.00000,0.00000,44,2,70,8,33,9,64,29,ok,2,0,0.002,7,-1.32,-0.79,10.12,42,0.000,8.24
6.7225,-0.10647,-0.01047,0.39619,0.00000,0.00000,0.00000,45,3,69,5,35,9,64,30,ok,2,0,0.002,7,-1.32,-0.79,10.12,42,0.013,8.24
6.7450,-0.10647,-0.01047,0.39619,0.00000,0.00000,0.00000,46,3,68,3,37,8,64,32,ok,2,0,0.002,7,-1.32,-0.79,10.12,42,0.025,8.24
6.7481,-0.10647,-0.01047,0.39619,0.00000,0.00000,0.00000,46,2,67,0,38,8,64,33,ok,2,0,0.002,7,-1.32,-0.79,10.12,42,0.038,8.24
6.7609,-0.10647,-0.01047,0.39619,0.00000,0.00000,0.00000,47,2,66,-2,39,8,64,35,ok,2,0,0.002,7,-1.32,-0.79,10.12,42,0.051,8.24
6.7810,-0.10647,-0.01047,0.39619,0.00000,0.00000,0.00000,48,3,64,-3,40,8,63,36,ok,2,0,0.002,7,-1.32,-0.79,10.12,42,0.064,8.24
6.7865,-0.10647,-0.01047,0.39619,0.00000,0.00000,0.00000,48,3,62,-5,41,7,64,36,ok,2,0,0.002,7,-1.32,-0.79,10.12,42,0.076,8.24
6.7983,-0.10647,-0.01047,0.39619,0.00000,0.00000,0.00000,48,3,61,-6,42,7,65,35,ok,2,0,0.002,7,-1.32,-0.79,10.12,42,0.089,8.24
6.8210,-0.10647,-0.01047,0.39619,0.00000,0.00000,0.00000,49,3,60,-8,43,6,67,33,ok,2,0,0.002,7,-1.32,-0.79,10.12,42,0.101,8.24
6.8241,-0.10647,-0.01047,0.39619,0.00000,0.00000,0.00000,50,4,58,-8,44,7,69,28,ok,2,0,0.002,7,-1.32,-0.79,10.12,42,0.114,8.24
6.8369,-0.10647,-0.01047,0.39619,0.00000,0.00000,0.00000,50,3,55,-9,45,7,70,24,ok,2,0,0.002,7,-1.32,-0.79,10.12,42,0.127,8.24
6.8569,-0.10647,-0.01047,0.39619,0.00000,0.00000,0.00000,50,3,53,-9,46,7,72,21,ok,2,0,0.002,7,-1.32,-0.79,10.12,42,0.140,8.24
6.8618,-0.10647,-0.01047,0.39619,0.00000,0.00000,0.00000,50,5,51,-10,47,7,72,21,ok,2,0,0.002,7,-1.32,-0.79,10.12,42,0.152,8.24
6.8743,-0.10647,-0.01047,0.39619,0.00000,0.00000,0.00000,51,6,49,-10,47,7,72,19,ok,2,0,0.002,7,-1.32,-0.79,10.12,42,0.165,8.24
6.8970,-0.10647,-0.01047,0.39619,0.00000,0.00000,0.00000,52,6,46,-10,49,7,72,15,ok,2,0,0.002,7,-1.32,-0.79,10.12,42,0.177,8.24
6.9001,-0.10647,-0.01047,0.39619,0.00000,0.00000,0.00000,52,6,44,-10,49,7,72,13,ok,2,0,0.002,7,-1.32,-0.79,10.12,42,0.190,8.24
6.9131,-0.07854,-0.01222,0.38746,0.00000,0.00000,0.00000,52,7,42,-10,50,7,71,11,ok,2,0,0.002,7,0.57,-1.04,10.25,43,0.000,8.24
6.9329,-0.07854,-0.01222,0.38746,0.00000,0.00000,0.00000,54,7,39,-10,51,7,70,7,ok,2,0,0.002,7,0.57,-1.04,10.25,43,0.013,8.24
6.9378,-0.07854,-0.01222,0.38746,0.00000,0.00000,0.00000,54,7,37,-9,52,6,70,6,ok,2,0,0.002,7,0.57,-1.04,10.25,43,0.025,8.24
6.9503,-0.07854,-0.01222,0.38746,0.00000,0.00000,0.00000,54,7,33,-9,52,7,69,4,ok,2,0,0.002,7,0.57,-1.04,10.25,43,0.038,8.24
6.9730,-0.07854,-0.01222,0.38746,0.00000,0.00000,0.00000,54,8,31,-7,53,7,67,2,ok,2,0,0.002,7,0.57,-1.04,10.25,43,0.050,8.24
6.9763,-0.07854,-0.01222,0.38746,0.00000,0.00000,0.00000,54,8,27,-6,54,8,66,2,ok,2,0,0.002,7,0.57,-1.04,10.25,43,0.063,8.24
6.9889,-0.07854,-0.01222,0.38746,0.00000,0.00000,0.00000,55,9,25,-5,55,8,65,0,ok,2,0,0.002,7,0.57,-1.04,10.25,43,0.076,8.24
7.0089,-0.07854,-0.01222,0.38746,0.00000,0.00000,0.00000,55,10,21,-2,56,8,64,-2,ok,2,0,0.002,7,0.57,-1.04,10.25,43,0.089,8.24
7.0139,-0.07854,-0.01222,0.38746,0.00000,0.00000,0.00000,56,10,19,-1,58,6,62,-3,ok,2,0,0.002,7,0.57,-1.04,10.25,43,0.101,8.24
7.0263,-0.07854,-0.01222,0.38746,0.00000,0.00000,0.00000,56,10,18,0,58,7,59,-4,ok,2,0,0.002,7,0.57,-1.04,10.25,43,0.114,8.24
7.0490,-0.07854,-0.01222,0.38746,0.00000,0.00000,0.00000,56,11,16,3,59,8,58,-4,ok,2,0,0.002,7,0.57,-1.04,10.25,43,0.126,8.24
7.0524,-0.07854,-0.01222,0.38746,0.00000,0.00000,0.00000,56,11,15,6,59,8,55,-5,ok,2,0,0.002,7,0.57,-1.04,10.25,43,0.139,8.24
7.0648,-0.07854,-0.01222,0.38746,0.00000,0.00000,0.00000,56,12,13,9,60,9,53,-6,ok,2,0,0.002,7,0.57,-1.04,10.25,43,0.152,8.24
7.0849,-0.07854,-0.01222,0.38746,0.00000,0.00000,0.00000,56,12,13,12,60,9,50,-5,ok,2,0,0.002,7,0.57,-1.04,10.25,43,0.165,8.24
7.0900,-0.07854,-0.01222,0.38746,0.00000,0.00000,0.00000,56,13,14,12,60,9,47,-4,ok,2,0,0.002,7,0.57,-1.04,10.25,43,0.177,8.24
7.1023,-0.07854,-0.01222,0.38746,0.00000,0.00000,0.00000,56,13,15,12,61,10,45,-5,ok,2,0,0.002,7,0.57,-1.04,10.25,43,0.190,8.24
7.1250,-0.07156,0.08378,0.35256,0.00000,0.00000,0.00000,56,14,17,10,61,10,42,-4,ok,2,0,0.002,7,0.59,-0.71,7.99,44,0.000,8.24
7.1281,-0.07156,0.08378,0.35256,0.00000,0.00000,0.00000,56,15,19,10,61,11,40,-4,ok,2,0,0.002,7,0.59,-0.71,7.99,44,0.013,8.24
7.1409,-0.07156,0.08378,0.35256,0.00000,0.00000,0.00000,56,15,19,9,61,12,37,-3,ok,2,0,0.002,7,0.59,-0.71,7.99,44,0.026,8.24
7.1609,-0.07156,0.08378,0.35256,0.00000,0.00000,0.00000,56,16,21,8,61,12,34,-2,ok,2,0,0.002,7,0.59,-0.71,7.99,44,0.039,8.24
7.1659,-0.07156,0.08378,0.35256,0.00000,0.00000,0.00000,56,17,21,8,62,14,31,-1,ok,2,0,0.002,7,0.59,-0.71,7.99,44,0.051,8.24
7.1785,-0.07156,0.08378,0.35256,0.00000,0.00000,0.00000,58,19,23,6,63,13,29,0,ok,2,0,0.002,7,0.59,-0.71,7.99,44,0.064,8.24
7.2010,-0.07156,0.08378,0.35256,0.00000,0.00000,0.00000,57,20,24,5,63,15,27,2,ok,2,0,0.002,7,0.59,-0.71,7.99,44,0.076,8.24
7.2041,-0.07156,0.08378,0.35256,0.00000,0.00000,0.00000,58,21,24,5,63,16,25,5,ok,2,0,0.002,7,0.59,-0.71,7.99,44,0.089,8.24
7.2168,-0.07156,0.08378,0.35256,0.00000,0.00000,0.00000,58,22,25,4,63,16,24,8,ok,2,0,0.002,7,0.59,-0.71,7.99,44,0.102,8.24
7.2369,-0.07156,0.08378,0.35256,0.00000,0.00000,0.00000,58,23,25,3,64,17,23,11,ok,2,0,0.002,7,0.59,-0.71,7.99,44,0.115,8.24
7.2418,-0.07156,0.08378,0.35256,0.00000,0.00000,0.00000,57,25,26,3,64,18,23,13,ok,2,0,0.002,7,0.59,-0.71,7.99,44,0.127,8.24
7.2545,-0.07156,0.08378,0.35256,0.00000,0.00000,0.00000,57,26,27,2,64,19,25,12,ok,2,0,0.002,7,0.59,-0.71,7.99,44,0.140,8.24
7.2770,-0.07156,0.08378,0.35256,0.00000,0.00000,0.00000,58,25,28,2,65,20,25,12,ok,2,0,0.002,7,0.59,-0.71,7.99,44,0.152,8.24
7.2803,-0.07156,0.08378,0.35256,0.00000,0.00000,0.00000,58,21,29,2,65,22,26,10,ok,2,0,0.002,7,0.59,-0.71,7.99,44,0.165,8.24
7.2929,-0.07156,0.08378,0.35256,0.00000,0.00000,0.00000,60,18,30,1,65,23,27,10,ok,2,0,0.002,7,0.59,-0.71,7.99,44,0.178,8.24
7.3130,-0.07156,0.08378,0.35256,0.00000,0.00000,0.00000,60,13,32,2,65,24,28,11,ok,2,0,0.002,7,0.59,-0.71,7.99,44,0.191,8.24
7.3181,-0.12566,0.06632,0.37001,0.00000,0.00000,0.00000,60,11,33,2,65,25,29,10,ok,2,0,0.002,7,-0.54,-0.66,9.85,45,0.000,8.24
7.3306,-0.12566,0.06632,0.37001,0.00000,0.00000,0.00000,60,10,35,2,64,27,31,9,ok,2,0,0.002,7,-0.54,-0.66,9.85,45,0.013,8.24
7.3530,-0.12566,0.06632,0.37001,0.00000,0.00000,0.00000,60,7,36,2,64,28,33,9,ok,2,0,0.002,7,-0.54,-0.66,9.85,45,0.025,8.24
7.3561,-0.12566,0.06632,0.37001,0.00000,0.00000,0.00000,60,4,38,3,64,30,33,9,ok,2,0,0.002,7,-0.54,-0.66,9.85,45,0.038,8.24
7.3688,-0.12566,0.06632,0.37001,0.00000,0.00000,0.00000,60,2,39,3,64,31,35,9,ok,2,0,0.002,7,-0.54,-0.66,9.85,45,0.051,8.24
7.3889,-0.12566,0.06632,0.37001,0.00000,0.00000,0.00000,59,-1,41,3,64,33,36,9,ok,2,0,0.002,7,-0.54,-0.66,9.85,45,0.064,8.24
7.3940,-0.12566,0.06632,0.37001,0.00000,0.00000,0.00000,58,-3,42,2,64,34,37,9,ok,2,0,0.002,7,-0.54,-0.66,9.85,45,0.076,8.24
7.4063,-0.12566,0.06632,0.37001,0.00000,0.00000,0.00000,58,-4,44,3,65,35,38,8,ok,2,0,0.002,7,-0.54,-0.66,9.85,45,0.089,8.24
7.4290,-0.12566,0.06632,0.37001,0.00000,0.00000,0.00000,56,-5,44,3,66,35,39,8,ok,2,0,0.002,7,-0.54,-0.66,9.85,45,0.101,8.24
7.4323,-0.12566,0.06632,0.37001,0.00000,0.00000,0.00000,56,-6,45,3,68,33,41,7,ok,2,0,0.002,7,-0.54,-0.66,9.85,45,0.114,8.24
7.4448,-0.12566,0.06632,0.37001,0.00000,0.00000,0.00000,56,-8,46,3,70,28,42,7,ok,2,0,0.002,7,-0.54,-0.66,9.85,45,0.127,8.24
7.4649,-0.12566,0.06632,0.37001,0.00000,0.00000,0.00000,54,-9,47,4,71,24,43,7,ok,2,0,0.002,7,-0.54,-0.66,9.85,45,0.140,8.24
7.4698,-0.12566,0.06632,0.37001,0.00000,0.00000,0.00000,54,-10,49,4,73,21,44,8,ok,2,0,0.002,7,-0.54,-0.66,9.85,45,0.152,8.24
7.4825,-0.12566,0.06632,0.37001,0.00000,0.00000,0.00000,52,-10,49,3,74,20,45,8,ok,2,0,0.002,7,-0.54,-0.66,9.85,45,0.165,8.24
7.5050,-0.12566,0.06632,0.37001,0.00000,0.00000,0.00000,51,-11,49,6,74,18,46,8,ok,2,0,0.002,7,-0.54,-0.66,9.85,45,0.177,8.24
7.5081,-0.12566,0.06632,0.37001,0.00000,0.00000,0.00000,50,-11,50,6,74,14,47,8,ok,2,0,0.002,7,-0.54,-0.66,9.85,45,0.190,8.24
7.5212,0.01571,0.02269,0.39095,0.00000,0.00000,0.00000,48,-11,51,6,74,11,48,8,ok,2,0,0.002,7,0.41,-0.17,10.25,46,0.000,8.24
7.5409,0.01571,0.02269,0.39095,0.00000,0.00000,0.00000,47,-10,52,6,73,10,49,8,ok,2,0,0.002,7,0.41,-0.17,10.25,46,0.013,8.24
7.5459,0.01571,0.02269,0.39095,0.00000,0.00000,0.00000,46,-11,53,6,73,7,49,9,ok,2,0,0.002,7,0.41,-0.17,10.25,46,0.025,8.24
7.5583,0.01571,0.02269,0.39095,0.00000,0.00000,0.00000,44,-11,55,6,73,5,49,8,ok,2,0,0.002,7,0.41,-0.17,10.25,46,0.038,8.24
7.5810,0.01571,0.02269,0.39095,0.00000,0.00000,0.00000,43,-9,56,6,72,4,51,9,ok,2,0,0.002,7,0.41,-0.17,10.25,46,0.050,8.24
7.5842,0.01571,0.02269,0.39095,0.00000,0.00000,0.00000,42,-8,57,6,70,1,51,8,ok,2,0,0.002,7,0.41,-0.17,10.25,46,0.063,8.24
7.5968,0.01571,0.02269,0.39095,0.00000,0.00000,0.00000,40,-6,57,7,67,1,52,9,ok,2,0,0.002,7,0.41,-0.17,10.25,46,0.076,8.24
7.6169,0.01571,0.02269,0.39095,0.00000,0.00000,0.00000,38,-5,57,6,65,-1,52,9,ok,2,0,0.002,7,0.41,-0.17,10.25,46,0.089,8.24
7.6219,0.01571,0.02269,0.39095,0.00000,0.00000,0.00000,37,-3,58,7,64,-3,54,9,ok,2,0,0.002,7,0.41,-0.17,10.25,46,0.101,8.24
7.6343,0.01571,0.02269,0.39095,0.00000,0.00000,0.00000,35,0,59,8,62,-4,55,8,ok,2,0,0.002,8,0.41,-0.17,10.25,46,0.114,8.24
7.6570,0.01571,0.02269,0.39095,0.00000,0.00000,0.00000,35,-1,60,10,61,-5,54,8,ok,2,0,0.002,8,0.41,-0.17,10.25,46,0.126,8.24
7.6602,0.01571,0.02269,0.39095,0.00000,0.00000,0.00000,34,0,60,10,59,-6,56,6,ok,2,0,0.002,8,0.41,-0.17,10.25,46,0.139,8.24
7.6729,0.01571,0.02269,0.39095,0.00000,0.00000,0.00000,33,2,61,11,56,-7,57,7,ok,2,0,0.002,8,0.41,-0.17,10.25,46,0.152,8.24
7.6930,0.01571,0.02269,0.39095,0.00000,0.00000,0.00000,32,5,61,11,54,-7,58,8,ok,2,0,0.002,8,0.41,-0.17,10.25,46,0.165,8.24
7.6978,0.01571,0.02269,0.39095,0.00000,0.00000,0.00000,32,8,61,12,51,-7,58,9,ok,2,0,0.002,8,0.41,-0.17,10.25,46,0.177,8.24
7.7105,0.01571,0.02269,0.39095,0.00000,0.00000,0.00000,31,10,61,12,48,-6,59,9,ok,2,0,0.002,8,0.41,-0.17,10.25,46,0.189,8.24
7.7330,-0.10123,0.01047,0.39968,0.00000,0.00000,0.00000,32,11,61,13,46,-6,60,10,ok,2,0,0.002,8,0.34,-1.24,9.89,47,0.000,8.24
7.7361,-0.10123,0.01047,0.39968,0.00000,0.00000,0.00000,32,10,61,14,43,-6,60,10,ok,2,0,0.002,8,0.34,-1.24,9.89,47,0.013,8.24
7.7490,-0.10123,0.01047,0.39968,0.00000,0.00000,0.00000,33,9,62,14,40,-6,61,11,ok,2,0,0.002,8,0.34,-1.24,9.89,47,0.026,8.24
7.7689,-0.10123,0.01047,0.39968,0.00000,0.00000,0.00000,34,8,62,15,37,-5,61,12,ok,2,0,0.002,8,0.34,-1.24,9.89,47,0.039,8.24
7.7738,-0.10123,0.01047,0.39968,0.00000,0.00000,0.00000,34,7,62,16,34,-4,62,13,ok,2,0,0.002,8,0.34,-1.24,9.89,47,0.051,8.24
7.7863,-0.10123,0.01047,0.39968,0.00000,0.00000,0.00000,35,6,62,16,31,-2,62,14,ok,2,0,0.002,8,0.34,-1.24,9.89,47,0.064,8.24
7.8089,-0.10123,0.01047,0.39968,0.00000,0.00000,0.00000,36,6,63,18,30,-1,63,14,ok,2,0,0.002,8,0.34,-1.24,9.89,47,0.076,8.24
7.8121,-0.10123,0.01047,0.39968,0.00000,0.00000,0.00000,36,5,64,19,28,1,63,15,ok,2,0,0.002,8,0.34,-1.24,9.89,47,0.089,8.24
7.8250,-0.10123,0.01047,0.39968,0.00000,0.00000,0.00000,37,4,64,20,25,4,63,16,ok,2,0,0.002,8,0.34,-1.24,9.89,47,0.102,8.24
7.8449,-0.10123,0.01047,0.39968,0.00000,0.00000,0.00000,37,4,64,21,24,7,63,17,ok,2,0,0.002,8,0.34,-1.24,9.89,47,0.115,8.24
7.8498,-0.10123,0.01047,0.39968,0.00000,0.00000,0.00000,38,3,64,22,23,10,63,18,ok,2,0,0.002,8,0.34,-1.24,9.89,47,0.127,8.24
7.8623,-0.10123,0.01047,0.39968,0.00000,0.00000,0.00000,38,3,64,23,22,13,64,19,ok,2,0,0.002,8,0.34,-1.24,9.89,47,0.140,8.24
7.8850,-0.10123,0.01047,0.39968,0.00000,0.00000,0.00000,39,3,63,26,24,13,64,19,ok,2,0,0.002,8,0.34,-1.24,9.89,47,0.152,8.24
7.8883,-0.10123,0.01047,0.39968,0.00000,0.00000,0.00000,40,3,63,27,24,13,64,20,ok,2,0,0.002,8,0.34,-1.24,9.89,47,0.165,8.24
7.9008,-0.10123,0.01047,0.39968,0.00000,0.00000,0.00000,40,2,64,26,25,11,64,21,ok,2,0,0.002,8,0.34,-1.24,9.89,47,0.178,8.24
7.9209,-0.10123,0.01047,0.39968,0.00000,0.00000,0.00000,40,2,67,22,27,10,65,22,ok,2,0,0.002,8,0.34,-1.24,9.89,47,0.191,8.24
7.9261,-0.10123,0.01047,0.39968,0.00000,0.00000,0.00000,41,1,69,19,28,10,65,23,ok,2,0,0.002,8,0.34,-1.24,9.89,47,0.203,8.24
7.9385,-0.11519,0.00873,0.38397,0.00000,0.00000,0.00000,42,2,70,15,29,10,64,24,ok,2,0,0.002,8,-0.23,-0.58,9.76,48,0.000,8.24
7.9610,-0.11519,0.00873,0.38397,0.00000,0.00000,0.00000,42,2,70,13,30,8,64,26,ok,2,0,0.002,8,-0.23,-0.58,9.76,48,0.012,8.24
7.9642,-0.11519,0.00873,0.38397,0.00000,0.00000,0.00000,44,2,70,12,33,8,65,27,ok,2,0,0.002,8,-0.23,-0.58,9.76,48,0.026,8.24
7.9769,-0.11519,0.00873,0.38397,0.00000,0.00000,0.00000,44,2,70,8,33,8,64,29,ok,2,0,0.002,8,-0.23,-0.58,9.76,48,0.039,8.24
7.9970,-0.11519,0.00873,0.38397,0.00000,0.00000,0.00000,45,2,69,6,35,8,64,31,ok,2,0,0.002,8,-0.23,-0.58,9.76,48,0.051,8.24
8.0019,-0.11519,0.00873,0.38397,0.00000,0.00000,0.00000,46,2,69,3,37,8,64,32,ok,2,0,0.002,8,-0.23,-0.58,9.76,48,0.064,8.24
8.0144,-0.11519,0.00873,0.38397,0.00000,0.00000,0.00000,46,2,67,0,38,8,64,33,ok,2,0,0.002,8,-0.23,-0.58,9.76,48,0.076,8.24
8.0370,-0.11519,0.00873,0.38397,0.00000,0.00000,0.00000,47,2,66,-2,39,7,63,35,ok,2,0,0.002,8,-0.23,-0.58,9.76,48,0.089,8.24
8.0401,-0.11519,0.00873,0.38397,0.00000,0.00000,0.00000,48,3,64,-3,40,7,63,36,ok,2,0,0.002,8,-0.23,-0.58,9.76,48,0.102,8.24
8.0529,-0.11519,0.00873,0.38397,0.00000,0.00000,0.00000,48,3,62,-4,41,6,64,36,ok,2,0,0.002,8,-0.23,-0.58,9.76,48,0.114,8.24
8.0729,-0.11519,0.00873,0.38397,0.00000,0.00000,0.00000,48,3,61,-6,42,6,65,35,ok,2,0,0.002,8,-0.23,-0.58,9.76,48,0.127,8.24
8.0778,-0.11519,0.00873,0.38397,0.00000,0.00000,0.00000,49,3,60,-8,43,6,67,33,ok,2,0,0.002,8,-0.23,-0.58,9.76,48,0.139,8.24
8.0903,-0.11519,0.00873,0.38397,0.00000,0.00000,0.00000,50,4,58,-8,44,7,69,28,ok,2,0,0.002,8,-0.23,-0.58,9.76,48,0.152,8.24
8.1130,-0.11519,0.00873,0.38397,0.00000,0.00000,0.00000,50,3,55,-9,45,7,70,24,ok,2,0,0.002,8,-0.23,-0.58,9.76,48,0.164,8.24
8.1163,-0.11519,0.00873,0.38397,0.00000,0.00000,0.00000,50,3,53,-9,46,6,72,21,ok,2,0,0.002,8,-0.23,-0.58,9.76,48,0.178,8.24
8.1289,-0.11519,0.00873,0.38397,0.00000,0.00000,0.00000,50,5,51,-10,47,6,72,21,ok,2,0,0.002,8,-0.23,-0.58,9.76,48,0.191,8.24
8.1490,-0.04887,0.00175,0.38921,0.00000,0.00000,0.00000,51,6,49,-10,48,7,72,19,ok,2,0,0.002,8,-1.22,-0.14,9.79,49,0.000,8.24
8.1538,-0.04887,0.00175,0.38921,0.00000,0.00000,0.00000,52,6,46,-10,49,7,72,15,ok,2,0,0.002,8,-1.22,-0.14,9.79,49,0.012,8.24
8.1663,-0.04887,0.00175,0.38921,0.00000,0.00000,0.00000,52,6,44,-10,49,7,71,13,ok,2,0,0.002,8,-1.22,-0.14,9.79,49,0.025,8.24
8.1890,-0.04887,0.00175,0.38921,0.00000,0.00000,0.00000,52,7,41,-10,50,7,71,11,ok,2,0,0.002,8,-1.22,-0.14,9.79,49,0.038,8.24
8.1921,-0.04887,0.00175,0.38921,0.00000,0.00000,0.00000,53,7,39,-11,51,7,70,7,ok,2,0,0.002,8,-1.22,-0.14,9.79,49,0.051,8.24
8.2048,-0.04887,0.00175,0.38921,0.00000,0.00000,0.00000,54,7,37,-10,52,6,70,6,ok,2,0,0.002,8,-1.22,-0.14,9.79,49,0.064,8.24
8.2250,-0.04887,0.00175,0.38921,0.00000,0.00000,0.00000,54,8,33,-9,52,7,69,4,ok,2,0,0.002,8,-1.22,-0.14,9.79,49,0.076,8.24
8.2299,-0.04887,0.00175,0.38921,0.00000,0.00000,0.00000,54,9,31,-8,53,7,68,2,ok,2,0,0.002,8,-1.22,-0.14,9.79,49,0.089,8.24
8.2425,-0.04887,0.00175,0.38921,0.00000,0.00000,0.00000,54,8,27,-7,54,8,66,2,ok,2,0,0.002,8,-1.22,-0.14,9.79,49,0.101,8.24
8.2650,-0.04887,0.00175,0.38921,0.00000,0.00000,0.00000,54,9,24,-5,55,8,65,0,ok,2,0,0.002,8,-1.22,-0.14,9.79,49,0.114,8.24
8.2681,-0.04887,0.00175,0.38921,0.00000,0.00000,0.00000,55,10,21,-2,56,8,64,-2,ok,2,0,0.002,8,-1.22,-0.14,9.79,49,0.127,8.24
8.2808,-0.04887,0.00175,0.38921,0.00000,0.00000,0.00000,56,10,19,-1,58,6,61,-3,ok,2,0,0.002,8,-1.22,-0.14,9.79,49,0.140,8.24
8.3009,-0.04887,0.00175,0.38921,0.00000,0.00000,0.00000,56,10,18,1,58,7,59,-4,ok,2,0,0.002,8,-1.22,-0.14,9.79,49,0.152,8.24
8.3060,-0.04887,0.00175,0.38921,0.00000,0.00000,0.00000,56,10,16,3,59,8,58,-4,ok,2,0,0.002,8,-1.22,-0.14,9.79,49,0.164,8.24
8.3183,-0.04887,0.00175,0.38921,0.00000,0.00000,0.00000,56,11,15,6,59,8,55,-5,ok,2,0,0.002,8,-1.22,-0.14,9.79,49,0.177,8.24
8.3410,-0.04887,0.00175,0.38921,0.00000,0.00000,0.00000,56,12,13,9,60,9,53,-6,ok,2,0,0.002,8,-1.22,-0.14,9.79,49,0.189,8.24
8.3444,0.01222,0.06283,0.34907,0.00000,0.00000,0.00000,56,12,13,12,60,9,50,-5,ok,2,0,0.002,8,-0.43,0.26,9.41,50,0.000,8.24
8.3569,0.01222,0.06283,0.34907,0.00000,0.00000,0.00000,56,13,14,12,60,9,47,-5,ok,2,0,0.002,8,-0.43,0.26,9.41,50,0.013,8.24
8.3769,0.01222,0.06283,0.34907,0.00000,0.00000,0.00000,56,13,15,12,61,10,45,-5,ok,2,0,0.002,8,-0.43,0.26,9.41,50,0.025,8.24
8.3818,0.01222,0.06283,0.34907,0.00000,0.00000,0.00000,56,14,16,10,61,11,42,-4,ok,2,0,0.002,8,-0.43,0.26,9.41,50,0.038,8.24
8.3945,0.01222,0.06283,0.34907,0.00000,0.00000,0.00000,56,15,18,9,62,12,40,-4,ok,2,0,0.002,8,-0.43,0.26,9.41,50,0.050,8.24
8.4170,0.01222,0.06283,0.34907,0.00000,0.00000,0.00000,56,15,19,9,62,12,36,-3,ok,2,0,0.002,8,-0.43,0.26,9.41,50,0.063,8.24
8.4201,0.01222,0.06283,0.34907,0.00000,0.00000,0.00000,56,16,21,7,62,13,34,-3,ok,2,0,0.002,8,-0.43,0.26,9.41,50,0.076,8.24
8.4328,0.01222,0.06283,0.34907,0.00000,0.00000,0.00000,56,17,21,7,62,14,31,-1,ok,2,0,0.002,8,-0.43,0.26,9.41,50,0.089,8.24
8.4529,0.01222,0.06283,0.34907,0.00000,0.00000,0.00000,57,19,23,6,63,14,30,0,ok,2,0,0.002,8,-0.43,0.26,9.41,50,0.101,8.24
8.4578,0.01222,0.06283,0.34907,0.00000,0.00000,0.00000,57,20,24,5,63,15,27,2,ok,2,0,0.002,8,-0.43,0.26,9.41,50,0.114,8.24
8.4705,0.01222,0.06283,0.34907,0.00000,0.00000,0.00000,58,21,24,5,63,16,25,5,ok,2,0,0.002,8,-0.43,0.26,9.41,50,0.126,8.24
8.4930,0.01222,0.06283,0.34907,0.00000,0.00000,0.00000,58,22,25,4,63,17,24,7,ok,2,0,0.002,8,-0.43,0.26,9.41,50,0.139,8.24
8.4962,0.01222,0.06283,0.34907,0.00000,0.00000,0.00000,58,22,25,3,64,17,23,11,ok,2,0,0.002,8,-0.43,0.26,9.41,50,0.152,8.24
8.5088,0.01222,0.06283,0.34907,0.00000,0.00000,0.00000,57,25,27,3,64,18,22,13,ok,2,0,0.002,8,-0.43,0.26,9.41,50,0.165,8.24
8.5290,0.01222,0.06283,0.34907,0.00000,0.00000,0.00000,57,26,27,2,64,20,25,12,ok,2,0,0.002,8,-0.43,0.26,9.41,50,0.177,8.24
8.5341,-0.12043,0.06632,0.39794,0.00000,0.00000,0.00000,58,25,28,2,65,21,25,12,ok,2,0,0.002,8,0.98,-2.15,9.44,51,0.000,8.24
8.5463,-0.12043,0.06632,0.39794,0.00000,0.00000,0.00000,58,21,30,2,65,21,26,10,ok,2,0,0.002,8,0.98,-2.15,9.44,51,0.013,8.24
8.5690,-0.12043,0.06632,0.39794,0.00000,0.00000,0.00000,60,17,31,2,64,23,27,10,ok,2,0,0.002,8,0.98,-2.15,9.44,51,0.025,8.24
8.5721,-0.12043,0.06632,0.39794,0.00000,0.00000,0.00000,60,12,32,2,64,24,28,11,ok,2,0,0.002,8,0.98,-2.15,9.44,51,0.038,8.24
8.5849,-0.12043,0.06632,0.39794,0.00000,0.00000,0.00000,60,10,33,2,65,25,30,10,ok,2,0,0.002,8,0.98,-2.15,9.44,51,0.051,8.24
8.6049,-0.12043,0.06632,0.39794,0.00000,0.00000,0.00000,60,10,35,3,64,27,31,9,ok,2,0,0.002,8,0.98,-2.15,9.44,51,0.064,8.24
8.6098,-0.12043,0.06632,0.39794,0.00000,0.00000,0.00000,60,6,36,3,64,28,33,9,ok,2,0,0.002,8,0.98,-2.15,9.44,51,0.076,8.24
8.6225,-0.12043,0.06632,0.39794,0.00000,0.00000,0.00000,60,3,38,4,64,30,33,10,ok,2,0,0.002,8,0.98,-2.15,9.44,51,0.089,8.24
8.6450,-0.12043,0.06632,0.39794,0.00000,0.00000,0.00000,60,1,39,4,64,32,35,9,ok,2,0,0.002,8,0.98,-2.15,9.44,51,0.101,8.24
8.6482,-0.12043,0.06632,0.39794,0.00000,0.00000,0.00000,59,-2,41,3,64,33,36,9,ok,2,0,0.002,9,0.98,-2.15,9.44,51,0.114,8.24
8.6610,-0.12043,0.06632,0.39794,0.00000,0.00000,0.00000,58,-3,42,3,64,34,37,9,ok,2,0,0.002,9,0.98,-2.15,9.44,51,0.127,8.24
8.6809,-0.12043,0.06632,0.39794,0.00000,0.00000,0.00000,58,-4,44,3,65,35,38,8,ok,2,0,0.002,9,0.98,-2.15,9.44,51,0.140,8.24
8.6858,-0.12043,0.06632,0.39794,0.00000,0.00000,0.00000,56,-5,44,3,66,35,39,8,ok,2,0,0.002,9,0.98,-2.15,9.44,51,0.152,8.24
8.6983,-0.12043,0.06632,0.39794,0.00000,0.00000,0.00000,56,-6,45,3,68,32,41,7,ok,2,0,0.002,9,0.98,-2.15,9.44,51,0.165,8.24
8.7210,-0.12043,0.06632,0.39794,0.00000,0.00000,0.00000,56,-8,46,3,70,28,42,7,ok,2,0,0.002,9,0.98,-2.15,9.44,51,0.177,8.24
8.7241,-0.12043,0.06632,0.39794,0.00000,0.00000,0.00000,54,-9,47,4,71,24,43,7,ok,2,0,0.002,9,0.98,-2.15,9.44,51,0.190,8.24
8.7373,0.01745,0.03491,0.40666,0.00000,0.00000,0.00000,54,-10,49,4,73,21,44,7,ok,2,0,0.002,9,0.36,0.91,9.51,52,0.000,8.24
8.7569,0.01745,0.03491,0.40666,0.00000,0.00000,0.00000,52,-10,49,3,74,21,45,8,ok,2,0,0.002,9,0.36,0.91,9.51,52,0.013,8.24
8.7618,0.01745,0.03491,0.40666,0.00000,0.00000,0.00000,51,-11,49,5,74,18,46,8,ok,2,0,0.002,9,0.36,0.91,9.51,52,0.025,8.24
8.7743,0.01745,0.03491,0.40666,0.00000,0.00000,0.00000,50,-10,51,6,75,15,47,8,ok,2,0,0.002,9,0.36,0.91,9.51,52,0.038,8.24
8.7970,0.01745,0.03491,0.40666,0.00000,0.00000,0.00000,48,-10,52,5,74,12,48,8,ok,2,0,0.002,9,0.36,0.91,9.51,52,0.050,8.24
8.8002,0.01745,0.03491,0.40666,0.00000,0.00000,0.00000,47,-9,53,5,73,10,48,8,ok,2,0,0.002,9,0.36,0.91,9.51,52,0.063,8.24
8.8128,0.01745,0.03491,0.40666,0.00000,0.00000,0.00000,46,-10,53,6,72,6,49,9,ok,2,0,0.002,9,0.36,0.91,9.51,52,0.076,8.24
8.8329,0.01745,0.03491,0.40666,0.00000,0.00000,0.00000,44,-10,55,6,72,5,50,8,ok,2,0,0.002,9,0.36,0.91,9.51,52,0.089,8.24
8.8379,0.01745,0.03491,0.40666,0.00000,0.00000,0.00000,43,-9,56,6,71,3,51,9,ok,2,0,0.002,9,0.36,0.91,9.51,52,0.101,8.24
8.8505,0.01745,0.03491,0.40666,0.00000,0.00000,0.00000,42,-8,57,6,69,1,52,7,ok,2,0,0.002,9,0.36,0.91,9.51,52,0.114,8.24
8.8730,0.01745,0.03491,0.40666,0.00000,0.00000,0.00000,40,-7,57,7,66,1,52,8,ok,2,0,0.002,9,0.36,0.91,9.51,52,0.126,8.24
8.8761,0.01745,0.03491,0.40666,0.00000,0.00000,0.00000,38,-6,57,7,65,-1,52,8,ok,2,0,0.002,9,0.36,0.91,9.51,52,0.139,8.24
8.8889,0.01745,0.03491,0.40666,0.00000,0.00000,0.00000,37,-4,58,8,64,-3,54,9,ok,2,0,0.002,9,0.36,0.91,9.51,52,0.152,8.24
8.9089,0.01745,0.03491,0.40666,0.00000,0.00000,0.00000,35,-2,59,9,62,-4,55,8,ok,2,0,0.002,9,0.36,0.91,9.51,52,0.164,8.24
8.9140,0.01745,0.03491,0.40666,0.00000,0.00000,0.00000,34,-2,60,11,61,-5,55,8,ok,2,0,0.002,9,0.36,0.91,9.51,52,0.177,8.24
8.9263,0.01745,0.03491,0.40666,0.00000,0.00000,0.00000,34,-1,60,10,59,-6,56,6,ok,2,0,0.002,9,0.36,0.91,9.51,52,0.189,8.24
8.9490,0.03142,0.01571,0.44157,0.00000,0.00000,0.00000,33,2,61,11,56,-6,57,7,ok,2,0,0.002,9,0.62,-0.70,10.74,53,0.000,8.24
8.9521,0.03142,0.01571,0.44157,0.00000,0.00000,0.00000,32,5,61,11,54,-7,58,8,ok,2,0,0.002,9,0.62,-0.70,10.74,53,0.013,8.24
8.9650,0.03142,0.01571,0.44157,0.00000,0.00000,0.00000,32,8,61,12,51,-6,58,9,ok,2,0,0.002,9,0.62,-0.70,10.74,53,0.026,8.24
8.9850,0.03142,0.01571,0.44157,0.00000,0.00000,0.00000,31,10,61,12,48,-6,59,9,ok,2,0,0.002,9,0.62,-0.70,10.74,53,0.039,8.24
8.9898,0.03142,0.01571,0.44157,0.00000,0.00000,0.00000,32,11,61,13,46,-6,60,10,ok,2,0,0.002,9,0.62,-0.70,10.74,53,0.051,8.24
9.0023,0.03142,0.01571,0.44157,0.00000,0.00000,0.00000,32,11,61,13,43,-5,60,10,ok,2,0,0.002,9,0.62,-0.70,10.74,53,0.064,8.24
9.0250,0.03142,0.01571,0.44157,0.00000,0.00000,0.00000,33,9,62,14,40,-5,61,11,ok,2,0,0.002,9,0.62,-0.70,10.74,53,0.076,8.24
9.0281,0.03142,0.01571,0.44157,0.00000,0.00000,0.00000,34,9,62,14,38,-4,61,12,ok,2,0,0.002,9,0.62,-0.70,10.74,53,0.089,8.24
9.0408,0.03142,0.01571,0.44157,0.00000,0.00000,0.00000,34,8,62,15,35,-4,61,13,ok,2,0,0.002,9,0.62,-0.70,10.74,53,0.102,8.24
9.0609,0.03142,0.01571,0.44157,0.00000,0.00000,0.00000,35,7,63,16,32,-2,61,13,ok,2,0,0.002,9,0.62,-0.70,10.74,53,0.115,8.24
9.0658,0.03142,0.01571,0.44157,0.00000,0.00000,0.00000,36,7,63,17,30,0,62,14,ok,2,0,0.002,9,0.62,-0.70,10.74,53,0.127,8.24
9.0785,0.03142,0.01571,0.44157,0.00000,0.00000,0.00000,36,6,64,18,28,1,62,15,ok,2,0,0.002,9,0.62,-0.70,10.74,53,0.140,8.24
9.1010,0.03142,0.01571,0.44157,0.00000,0.00000,0.00000,37,5,64,19,26,4,63,15,ok,2,0,0.002,9,0.62,-0.70,10.74,53,0.152,8.24
9.1041,0.03142,0.01571,0.44157,0.00000,0.00000,0.00000,37,4,64,20,24,8,63,16,ok,2,0,0.002,9,0.62,-0.70,10.74,53,0.165,8.24
9.1168,0.03142,0.01571,0.44157,0.00000,0.00000,0.00000,38,4,64,22,23,11,63,18,ok,2,0,0.002,9,0.62,-0.70,10.74,53,0.178,8.24
9.1369,0.03142,0.01571,0.44157,0.00000,0.00000,0.00000,38,3,64,23,22,14,64,18,ok,2,0,0.002,9,0.62,-0.70,10.74,53,0.191,8.24
9.1421,0.03142,0.01571,0.44157,0.00000,0.00000,0.00000,39,3,63,26,24,13,64,19,ok,2,0,0.002,9,0.62,-0.70,10.74,53,0.203,8.24
9.1545,-0.07679,0.02094,0.40317,0.00000,0.00000,0.00000,40,2,63,27,24,13,64,19,ok,2,0,0.002,9,-0.40,0.46,10.60,54,0.000,8.24
9.1770,-0.07679,0.02094,0.40317,0.00000,0.00000,0.00000,40,2,65,26,25,11,64,21,ok,2,0,0.002,9,-0.40,0.46,10.60,54,0.012,8.24
9.1801,-0.07679,0.02094,0.40317,0.00000,0.00000,0.00000,40,1,67,23,26,10,65,21,ok,2,0,0.002,9,-0.40,0.46,10.60,54,0.026,8.24
9.1929,-0.07679,0.02094,0.40317,0.00000,0.00000,0.00000,41,0,69,19,27,10,65,23,ok,2,0,0.002,9,-0.40,0.46,10.60,54,0.039,8.24
9.2129,-0.07679,0.02094,0.40317,0.00000,0.00000,0.00000,42,0,70,15,28,10,65,24,ok,2,0,0.002,9,-0.40,0.46,10.60,54,0.051,8.24
9.2178,-0.07679,0.02094,0.40317,0.00000,0.00000,0.00000,42,0,71,13,30,8,65,26,ok,2,0,0.002,9,-0.40,0.46,10.60,54,0.063,8.24
9.2303,-0.07679,0.02094,0.40317,0.00000,0.00000,0.00000,44,0,70,13,32,9,65,27,ok,2,0,0.002,9,-0.40,0.46,10.60,54,0.076,8.24
9.2530,-0.07679,0.02094,0.40317,0.00000,0.00000,0.00000,44,0,70,9,33,9,64,29,ok,2,0,0.002,9,-0.40,0.46,10.60,54,0.089,8.24
9.2563,-0.07679,0.02094,0.40317,0.00000,0.00000,0.00000,45,1,69,7,35,9,64,30,ok,2,0,0.002,9,-0.40,0.46,10.60,54,0.102,8.24
9.2688,-0.07679,0.02094,0.40317,0.00000,0.00000,0.00000,46,1,69,3,36,8,64,32,ok,2,0,0.002,9,-0.40,0.46,10.60,54,0.114,8.24
9.2889,-0.07679,0.02094,0.40317,0.00000,0.00000,0.00000,46,2,67,1,38,8,64,33,ok,2,0,0.002,9,-0.40,0.46,10.60,54,0.127,8.24
9.2938,-0.07679,0.02094,0.40317,0.00000,0.00000,0.00000,47,2,66,-1,39,8,64,35,ok,2,0,0.002,9,-0.40,0.46,10.60,54,0.139,8.24
9.3065,-0.07679,0.02094,0.40317,0.00000,0.00000,0.00000,48,3,64,-3,40,8,63,36,ok,2,0,0.002,9,-0.40,0.46,10.60,54,0.152,8.24
9.3290,-0.07679,0.02094,0.40317,0.00000,0.00000,0.00000,48,3,62,-4,41,7,64,36,ok,2,0,0.002,9,-0.40,0.46,10.60,54,0.164,8.24
9.3321,-0.07679,0.02094,0.40317,0.00000,0.00000,0.00000,48,3,61,-6,42,6,65,35,ok,2,0,0.002,9,-0.40,0.46,10.60,54,0.178,8.24
9.3448,-0.07679,0.02094,0.40317,0.00000,0.00000,0.00000,49,3,60,-8,43,6,67,33,ok,2,0,0.002,9,-0.40,0.46,10.60,54,0.190,8.24
9.3649,-0.10472,0.04887,0.42237,0.00000,0.00000,0.00000,50,4,58,-8,44,7,69,28,ok,2,0,0.002,9,0.43,-0.63,11.99,55,0.000,8.24
9.3699,-0.10472,0.04887,0.42237,0.00000,0.00000,0.00000,50,3,55,-9,45,7,71,24,ok,2,0,0.002,9,0.43,-0.63,11.99,55,0.012,8.24
9.3825,-0.10472,0.04887,0.42237,0.00000,0.00000,0.00000,50,3,53,-9,46,7,72,21,ok,2,0,0.002,9,0.43,-0.63,11.99,55,0.025,8.24
9.4049,-0.10472,0.04887,0.42237,0.00000,0.00000,0.00000,50,5,51,-10,47,7,72,21,ok,2,0,0.002,9,0.43,-0.63,11.99,55,0.038,8.24
9.4081,-0.10472,0.04887,0.42237,0.00000,0.00000,0.00000,51,6,49,-10,47,7,72,19,ok,2,0,0.002,9,0.43,-0.63,11.99,55,0.051,8.24
9.4210,-0.10472,0.04887,0.42237,0.00000,0.00000,0.00000,52,5,46,-10,49,7,73,15,ok,2,0,0.002,9,0.43,-0.63,11.99,55,0.063,8.24
9.4409,-0.10472,0.04887,0.42237,0.00000,0.00000,0.00000,52,6,44,-9,49,7,72,12,ok,2,0,0.002,9,0.43,-0.63,11.99,55,0.076,8.24
9.4458,-0.10472,0.04887,0.42237,0.00000,0.00000,0.00000,52,6,41,-10,50,7,71,11,ok,2,0,0.002,9,0.43,-0.63,11.99,55,0.088,8.24
9.4583,-0.10472,0.04887,0.42237,0.00000,0.00000,0.00000,53,7,39,-10,51,7,71,7,ok,2,0,0.002,9,0.43,-0.63,11.99,55,0.101,8.24
9.4810,-0.10472,0.04887,0.42237,0.00000,0.00000,0.00000,53,7,36,-9,52,6,71,6,ok,2,0,0.002,9,0.43,-0.63,11.99,55,0.113,8.24
9.4842,-0.10472,0.04887,0.42237,0.00000,0.00000,0.00000,54,7,33,-8,52,7,70,4,ok,2,0,0.002,9,0.43,-0.63,11.99,55,0.127,8.24
9.4970,-0.10472,0.04887,0.42237,0.00000,0.00000,0.00000,54,8,30,-7,53,7,68,2,ok,2,0,0.002,9,0.43,-0.63,11.99,55,0.140,8.24
9.5169,-0.10472,0.04887,0.42237,0.00000,0.00000,0.00000,54,8,27,-6,54,8,66,2,ok,2,0,0.003,9,0.43,-0.63,11.99,55,0.152,8.24
9.5218,-0.10472,0.04887,0.42237,0.00000,0.00000,0.00000,54,8,24,-4,55,8,65,0,ok,2,0,0.003,9,0.43,-0.63,11.99,55,0.164,8.24
9.5343,-0.10472,0.04887,0.42237,0.00000,0.00000,0.00000,55,9,20,-2,56,8,64,-2,ok,2,0,0.003,9,0.43,-0.63,11.99,55,0.177,8.24
9.5570,-0.10472,0.04887,0.42237,0.00000,0.00000,0.00000,55,10,19,-1,58,6,62,-3,ok,2,0,0.003,9,0.43,-0.63,11.99,55,0.190,8.24
9.5605,-0.00000,0.04014,0.37350,0.00000,0.00000,0.00000,56,9,18,1,58,7,60,-4,ok,2,0,0.003,9,0.43,-0.09,8.98,56,0.000,8.24
9.5728,-0.00000,0.04014,0.37350,0.00000,0.00000,0.00000,56,10,16,3,59,8,58,-4,ok,2,0,0.003,9,0.43,-0.09,8.98,56,0.013,8.24
9.5929,-0.00000,0.04014,0.37350,0.00000,0.00000,0.00000,56,11,14,6,59,8,55,-5,ok,2,0,0.003,9,0.43,-0.09,8.98,56,0.025,8.24
9.5979,-0.00000,0.04014,0.37350,0.00000,0.00000,0.00000,56,12,13,9,60,9,53,-6,ok,2,0,0.003,9,0.43,-0.09,8.98,56,0.038,8.24
9.6103,-0.00000,0.04014,0.37350,0.00000,0.00000,0.00000,56,12,12,11,61,9,50,-5,ok,2,0,0.003,9,0.43,-0.09,8.98,56,0.050,8.24
9.6330,-0.00000,0.04014,0.37350,0.00000,0.00000,0.00000,56,13,14,11,61,10,47,-5,ok,2,0,0.003,9,0.43,-0.09,8.98,56,0.063,8.24
9.6363,-0.00000,0.04014,0.37350,0.00000,0.00000,0.00000,56,14,15,11,61,10,45,-5,ok,2,0,0.003,9,0.43,-0.09,8.98,56,0.076,8.24
9.6488,-0.00000,0.04014,0.37350,0.00000,0.00000,0.00000,56,14,16,10,61,11,42,-4,ok,2,0,0.003,9,0.43,-0.09,8.98,56,0.089,8.24
9.6689,-0.00000,0.04014,0.37350,0.00000,0.00000,0.00000,56,15,18,9,61,12,41,-4,ok,2,0,0.003,9,0.43,-0.09,8.98,56,0.101,8.24
9.6739,-0.00000,0.04014,0.37350,0.00000,0.00000,0.00000,56,16,19,8,61,12,37,-3,ok,2,0,0.003,10,0.43,-0.09,8.98,56,0.114,8.24
9.6865,-0.00000,0.04014,0.37350,0.00000,0.00000,0.00000,56,17,21,7,62,13,35,-3,ok,2,0,0.003,10,0.43,-0.09,8.98,56,0.126,8.24
9.7090,-0.00000,0.04014,0.37350,0.00000,0.00000,0.00000,56,17,21,7,62,14,31,-1,ok,2,0,0.003,10,0.43,-0.09,8.98,56,0.139,8.24
9.7121,-0.00000,0.04014,0.37350,0.00000,0.00000,0.00000,57,18,23,6,63,14,30,0,ok,2,0,0.003,10,0.43,-0.09,8.98,56,0.152,8.24
9.7249,-0.00000,0.04014,0.37350,0.00000,0.00000,0.00000,57,20,24,5,63,15,27,2,ok,2,0,0.003,10,0.43,-0.09,8.98,56,0.165,8.24
9.7450,-0.00000,0.04014,0.37350,0.00000,0.00000,0.00000,58,20,24,5,63,16,25,5,ok,2,0,0.003,10,0.43,-0.09,8.98,56,0.177,8.24
9.7499,-0.00000,0.04014,0.37350,0.00000,0.00000,0.00000,58,22,25,4,64,17,24,7,ok,2,0,0.003,10,0.43,-0.09,8.98,56,0.190,8.24
9.7625,-0.08203,0.09076,0.39095,0.00000,0.00000,0.00000,58,23,26,3,64,17,23,11,ok,2,0,0.003,10,1.48,-1.45,10.38,57,0.000,8.24
9.7850,-0.08203,0.09076,0.39095,0.00000,0.00000,0.00000,57,25,27,3,64,18,23,13,ok,2,0,0.003,10,1.48,-1.45,10.38,57,0.012,8.24
9.7883,-0.08203,0.09076,0.39095,0.00000,0.00000,0.00000,57,26,28,2,64,19,25,12,ok,2,0,0.003,10,1.48,-1.45,10.38,57,0.026,8.24
9.8009,-0.08203,0.09076,0.39095,0.00000,0.00000,0.00000,58,24,29,2,64,20,25,12,ok,2,0,0.003,10,1.48,-1.45,10.38,57,0.039,8.24
9.8209,-0.08203,0.09076,0.39095,0.00000,0.00000,0.00000,58,21,30,2,64,22,26,10,ok,2,0,0.003,10,1.48,-1.45,10.38,57,0.051,8.24
9.8258,-0.08203,0.09076,0.39095,0.00000,0.00000,0.00000,60,17,31,2,64,23,27,10,ok,2,0,0.003,10,1.48,-1.45,10.38,57,0.064,8.24
9.8383,-0.08203,0.09076,0.39095,0.00000,0.00000,0.00000,60,12,32,3,64,24,28,10,ok,2,0,0.003,10,1.48,-1.45,10.38,57,0.076,8.24
9.8610,-0.08203,0.09076,0.39095,0.00000,0.00000,0.00000,60,10,33,3,65,25,29,10,ok,2,0,0.003,10,1.48,-1.45,10.38,57,0.089,8.24
9.8641,-0.08203,0.09076,0.39095,0.00000,0.00000,0.00000,60,10,35,3,64,27,30,9,ok,2,0,0.003,10,1.48,-1.45,10.38,57,0.102,8.24
9.8769,-0.08203,0.09076,0.39095,0.00000,0.00000,0.00000,60,6,36,2,64,28,32,9,ok,2,0,0.003,10,1.48,-1.45,10.38,57,0.114,8.24
9.8969,-0.08203,0.09076,0.39095,0.00000,0.00000,0.00000,60,4,38,3,64,30,33,9,ok,2,0,0.003,10,1.48,-1.45,10.38,57,0.127,8.24
9.9018,-0.08203,0.09076,0.39095,0.00000,0.00000,0.00000,60,1,39,3,64,32,35,9,ok,2,0,0.003,10,1.48,-1.45,10.38,57,0.139,8.24
9.9145,-0.08203,0.09076,0.39095,0.00000,0.00000,0.00000,59,-1,41,3,64,33,36,9,ok,2,0,0.003,10,1.48,-1.45,10.38,57,0.152,8.24
9.9370,-0.08203,0.09076,0.39095,0.00000,0.00000,0.00000,58,-3,42,2,64,34,37,9,ok,2,0,0.003,10,1.48,-1.45,10.38,57,0.164,8.24
9.9402,-0.08203,0.09076,0.39095,0.00000,0.00000,0.00000,58,-4,43,3,65,35,38,8,ok,2,0,0.003,10,1.48,-1.45,10.38,57,0.178,8.24
9.9528,-0.08203,0.09076,0.39095,0.00000,0.00000,0.00000,56,-5,44,3,66,35,39,8,ok,2,0,0.003,10,1.48,-1.45,10.38,57,0.191,8.24
9.9729,-0.03840,0.00349,0.41364,0.00000,0.00000,0.00000,56,-6,45,3,68,33,41,7,ok,2,0,0.003,10,1.77,1.16,9.67,58,0.000,8.24
9.9780,-0.03840,0.00349,0.41364,0.00000,0.00000,0.00000,56,-9,46,3,70,28,42,7,ok,2,0,0.003,10,1.77,1.16,9.67,58,0.012,8.24
9.9903,-0.03840,0.00349,0.41364,0.00000,0.00000,0.00000,54,-9,47,4,72,24,43,7,ok,2,0,0.003,10,1.77,1.16,9.67,58,0.025,8.24
10.0130,-0.03840,0.00349,0.41364,0.00000,0.00000,0.00000,53,-10,49,3,73,21,44,7,ok,2,0,0.003,10,1.77,1.16,9.67,58,0.038,8.24
10.0162,-0.03840,0.00349,0.41364,0.00000,0.00000,0.00000,52,-10,49,3,74,21,45,7,ok,2,0,0.003,10,1.77,1.16,9.67,58,0.051,8.24
10.0368,-0.03840,0.00349,0.41364,0.00000,0.00000,0.00000,51,-11,49,5,74,18,46,7,ok,2,0,0.003,10,1.77,1.16,9.67,58,0.064,8.24
10.0489,-0.03840,0.00349,0.41364,0.00000,0.00000,0.00000,50,-11,51,6,74,15,47,8,ok,2,0,0.003,10,1.77,1.16,9.67,58,0.076,8.24
10.0539,-0.03840,0.00349,0.41364,0.00000,0.00000,0.00000,48,-10,52,5,73,12,48,8,ok,2,0,0.003,10,1.77,1.16,9.67,58,0.088,8.24
10.0663,-0.03840,0.00349,0.41364,0.00000,0.00000,0.00000,48,-10,53,6,73,10,49,8,ok,2,0,0.003,10,1.77,1.16,9.67,58,0.101,8.24
10.0890,-0.03840,0.00349,0.41364,0.00000,0.00000,0.00000,46,-10,53,7,72,6,49,9,ok,2,0,0.003,10,1.77,1.16,9.67,58,0.113,8.24
10.0921,-0.03840,0.00349,0.41364,0.00000,0.00000,0.00000,44,-10,55,7,72,5,50,8,ok,2,0,0.003,10,1.77,1.16,9.67,58,0.127,8.24
10.1049,-0.03840,0.00349,0.41364,0.00000,0.00000,0.00000,44,-10,56,7,71,3,51,9,ok,2,0,0.003,10,1.77,1.16,9.67,58,0.139,8.24
10.1249,-0.03840,0.00349,0.41364,0.00000,0.00000,0.00000,42,-9,57,7,69,1,52,8,ok,2,0,0.003,10,1.77,1.16,9.67,58,0.152,8.24
10.1298,-0.03840,0.00349,0.41364,0.00000,0.00000,0.00000,40,-7,57,8,66,1,52,9,ok,2,0,0.003,10,1.77,1.16,9.67,58,0.164,8.24
10.1423,-0.03840,0.00349,0.41364,0.00000,0.00000,0.00000,38,-6,58,8,65,-1,52,9,ok,2,0,0.003,10,1.77,1.16,9.67,58,0.177,8.24
10.1650,-0.03840,0.00349,0.41364,0.00000,0.00000,0.00000,37,-4,58,8,64,-3,54,9,ok,2,0,0.003,10,1.77,1.16,9.67,58,0.189,8.24
10.1685,0.04887,-0.01571,0.46600,0.00000,0.00000,0.00000,35,-2,59,9,61,-4,55,9,ok,2,0,0.003,10,-0.23,0.31,9.92,59,0.000,8.24
10.1809,0.04887,-0.01571,0.46600,0.00000,0.00000,0.00000,34,-1,60,10,61,-5,54,8,ok,2,0,0.003,10,-0.23,0.31,9.92,59,0.013,8.24
10.2009,0.04887,-0.01571,0.46600,0.00000,0.00000,0.00000,34,0,60,10,59,-5,56,6,ok,2,0,0.003,10,-0.23,0.31,9.92,59,0.025,8.24
10.2058,0.04887,-0.01571,0.46600,0.00000,0.00000,0.00000,33,2,61,11,56,-6,56,7,ok,2,0,0.003,10,-0.23,0.31,9.92,59,0.038,8.24
10.2185,0.04887,-0.01571,0.46600,0.00000,0.00000,0.00000,32,6,61,11,54,-7,57,8,ok,2,0,0.003,10,-0.23,0.31,9.92,59,0.050,8.24
10.2410,0.04887,-0.01571,0.46600,0.00000,0.00000,0.00000,32,9,61,12,51,-6,58,9,ok,2,0,0.003,10,-0.23,0.31,9.92,59,0.063,8.24
10.2441,0.04887,-0.01571,0.46600,0.00000,0.00000,0.00000,31,11,62,11,48,-6,58,9,ok,2,0,0.003,10,-0.23,0.31,9.92,59,0.076,8.24
10.2568,0.04887,-0.01571,0.46600,0.00000,0.00000,0.00000,32,12,62,12,46,-6,59,10,ok,2,0,0.003,10,-0.23,0.31,9.92,59,0.089,8.24
10.2769,0.04887,-0.01571,0.46600,0.00000,0.00000,0.00000,32,12,61,13,43,-5,59,10,ok,2,0,0.003,10,-0.23,0.31,9.92,59,0.101,8.24
10.2819,0.04887,-0.01571,0.46600,0.00000,0.00000,0.00000,33,10,62,13,40,-5,60,11,ok,2,0,0.003,10,-0.23,0.31,9.92,59,0.114,8.24
10.2945,0.04887,-0.01571,0.46600,0.00000,0.00000,0.00000,34,9,62,14,37,-4,60,12,ok,2,0,0.003,10,-0.23,0.31,9.92,59,0.126,8.24
10.3170,0.04887,-0.01571,0.46600,0.00000,0.00000,0.00000,34,9,62,15,35,-3,61,13,ok,2,0,0.003,10,-0.23,0.31,9.92,59,0.139,8.24
10.3201,0.04887,-0.01571,0.46600,0.00000,0.00000,0.00000,36,7,63,16,32,-2,61,13,ok,2,0,0.003,10,-0.23,0.31,9.92,59,0.152,8.24
10.3329,0.04887,-0.01571,0.46600,0.00000,0.00000,0.00000,36,7,63,17,30,0,62,14,ok,2,0,0.003,10,-0.23,0.31,9.92,59,0.165,8.24
10.3529,0.04887,-0.01571,0.46600,0.00000,0.00000,0.00000,36,6,64,18,28,1,62,15,ok,2,0,0.003,10,-0.23,0.31,9.92,59,0.177,8.24
10.3578,0.04887,-0.01571,0.46600,0.00000,0.00000,0.00000,37,5,64,19,25,5,63,15,ok,2,0,0.003,10,-0.23,0.31,9.92,59,0.190,8.24
10.3705,0.04887,-0.01571,0.46600,0.00000,0.00000,0.00000,38,5,64,20,24,8,63,16,ok,2,0,0.003,10,-0.23,0.31,9.92,59,0.202,8.24
10.3930,-0.04887,0.01920,0.46251,0.00000,0.00000,0.00000,38,4,64,22,23,11,63,18,ok,2,0,0.003,10,1.27,1.44,8.82,60,0.000,8.24
10.3961,-0.04887,0.01920,0.46251,0.00000,0.00000,0.00000,38,3,64,23,22,14,64,18,ok,2,0,0.003,10,1.27,1.44,8.82,60,0.013,8.24
10.4088,-0.04887,0.01920,0.46251,0.00000,0.00000,0.00000,39,3,63,26,24,13,64,19,ok,2,0,0.003,10,1.27,1.44,8.82,60,0.026,8.24
10.4289,-0.04887,0.01920,0.46251,0.00000,0.00000,0.00000,40,2,63,27,24,13,64,20,ok,2,0,0.003,10,1.27,1.44,8.82,60,0.039,8.24
10.4340,-0.04887,0.01920,0.46251,0.00000,0.00000,0.00000,40,2,64,26,25,11,64,21,ok,2,0,0.003,10,1.27,1.44,8.82,60,0.051,8.24
10.4463,-0.04887,0.01920,0.46251,0.00000,0.00000,0.00000,40,1,67,23,26,10,65,22,ok,2,0,0.003,10,1.27,1.44,8.82,60,0.064,8.24
10.4729,-0.04887,0.01920,0.46251,0.00000,0.00000,0.00000,41,0,69,20,27,10,65,23,ok,2,0,0.003,10,1.27,1.44,8.82,60,0.076,8.24
10.4763,-0.04887,0.01920,0.46251,0.00000,0.00000,0.00000,42,0,70,16,29,10,64,24,ok,2,0,0.003,10,1.27,1.44,8.82,60,0.093,8.24
10.4888,-0.04887,0.01920,0.46251,0.00000,0.00000,0.00000,42,0,71,13,30,9,64,26,ok,2,0,0.003,10,1.27,1.44,8.82,60,0.106,8.24
10.5089,-0.04887,0.01920,0.46251,0.00000,0.00000,0.00000,44,0,70,13,32,9,65,27,ok,2,0,0.003,10,1.27,1.44,8.82,60,0.119,8.24
10.5138,-0.04887,0.01920,0.46251,0.00000,0.00000,0.00000,44,1,70,9,33,9,64,29,ok,2,0,0.003,10,1.27,1.44,8.82,60,0.131,8.24
10.5264,-0.04887,0.01920,0.46251,0.00000,0.00000,0.00000,45,2,69,6,35,9,64,30,ok,2,0,0.003,10,1.27,1.44,8.82,60,0.144,8.24
10.5489,-0.04887,0.01920,0.46251,0.00000,0.00000,0.00000,46,2,69,3,36,8,64,31,ok,2,0,0.003,10,1.27,1.44,8.82,60,0.156,8.24
10.5521,-0.04887,0.01920,0.46251,0.00000,0.00000,0.00000,46,2,67,0,38,8,64,33,ok,2,0,0.003,10,1.27,1.44,8.82,60,0.169,8.24
10.5648,-0.04887,0.01920,0.46251,0.00000,0.00000,0.00000,47,2,66,-2,39,8,63,35,ok,2,0,0.003,10,1.27,1.44,8.82,60,0.182,8.24
10.5849,-0.04887,0.01920,0.46251,0.00000,0.00000,0.00000,48,3,64,-3,40,8,63,36,ok,2,0,0.003,10,1.27,1.44,8.82,60,0.194,8.24
10.5901,-0.14137,0.03665,0.56025,0.00000,0.00000,0.00000,48,3,62,-4,41,7,64,36,ok,2,0,0.003,10,0.35,-1.91,8.78,61,0.000,8.24
10.6023,-0.14137,0.03665,0.56025,0.00000,0.00000,0.00000,48,3,61,-5,42,6,66,35,ok,2,0,0.003,10,0.35,-1.91,8.78,61,0.013,8.24
10.6249,-0.14137,0.03665,0.56025,0.00000,0.00000,0.00000,49,3,60,-8,43,6,68,33,ok,2,0,0.003,10,0.35,-1.91,8.78,61,0.025,8.24
10.6281,-0.14137,0.03665,0.56025,0.00000,0.00000,0.00000,50,3,58,-8,44,6,70,27,ok,2,0,0.003,10,0.35,-1.91,8.78,61,0.038,8.24
10.6408,-0.14137,0.03665,0.56025,0.00000,0.00000,0.00000,50,3,55,-9,44,6,71,24,ok,2,0,0.003,10,0.35,-1.91,8.78,61,0.051,8.24
10.6609,-0.14137,0.03665,0.56025,0.00000,0.00000,0.00000,50,2,53,-9,46,6,73,21,ok,2,0,0.003,10,0.35,-1.91,8.78,61,0.064,8.24
10.6660,-0.14137,0.03665,0.56025,0.00000,0.00000,0.00000,50,4,51,-10,47,7,73,21,ok,2,0,0.003,10,0.35,-1.91,8.78,61,0.076,8.24
10.6783,-0.14137,0.03665,0.56025,0.00000,0.00000,0.00000,51,5,49,-9,48,7,73,19,ok,2,0,0.003,10,0.35,-1.91,8.78,61,0.089,8.24
10.7010,-0.14137,0.03665,0.56025,0.00000,0.00000,0.00000,52,5,46,-9,49,7,73,15,ok,2,0,0.003,11,0.35,-1.91,8.78,61,0.101,8.24
10.7041,-0.14137,0.03665,0.56025,0.00000,0.00000,0.00000,52,5,44,-9,49,7,72,13,ok,2,0,0.003,11,0.35,-1.91,8.78,61,0.114,8.24
10.7168,-0.14137,0.03665,0.56025,0.00000,0.00000,0.00000,52,6,41,-10,50,7,72,11,ok,2,0,0.003,11,0.35,-1.91,8.78,61,0.127,8.24
10.7410,-0.14137,0.03665,0.56025,0.00000,0.00000,0.00000,53,7,39,-10,51,7,71,7,ok,2,0,0.003,11,0.35,-1.91,8.78,61,0.140,8.24
10.7442,-0.14137,0.03665,0.56025,0.00000,0.00000,0.00000,54,7,36,-9,52,6,71,6,ok,2,0,0.003,11,0.35,-1.91,8.78,61,0.154,8.24
10.7568,-0.14137,0.03665,0.56025,0.00000,0.00000,0.00000,54,7,33,-9,52,7,70,4,ok,2,0,0.003,11,0.35,-1.91,8.78,61,0.167,8.24
10.7769,-0.14137,0.03665,0.56025,0.00000,0.00000,0.00000,54,8,30,-7,53,7,68,2,ok,2,0,0.003,11,0.35,-1.91,8.78,61,0.180,8.24
10.7820,-0.14137,0.03665,0.56025,0.00000,0.00000,0.00000,54,8,27,-6,54,8,66,2,ok,2,0,0.003,11,0.35,-1.91,8.78,61,0.192,8.24
10.7947,-0.02269,0.01920,0.55327,0.00000,0.00000,0.00000,54,9,24,-5,55,8,65,0,ok,2,0,0.003,11,0.39,0.06,11.29,62,0.000,8.24
10.8170,-0.02269,0.01920,0.55327,0.00000,0.00000,0.00000,55,10,20,-3,56,8,64,-2,ok,2,0,0.003,11,0.39,0.06,11.29,62,0.012,8.24
10.8204,-0.02269,0.01920,0.55327,0.00000,0.00000,0.00000,55,10,19,-1,58,6,61,-3,ok,2,0,0.003,11,0.39,0.06,11.29,62,0.026,8.24
10.8328,-0.02269,0.01920,0.55327,0.00000,0.00000,0.00000,56,10,18,0,59,7,59,-4,ok,2,0,0.003,11,0.39,0.06,11.29,62,0.038,8.24
10.8529,-0.02269,0.01920,0.55327,0.00000,0.00000,0.00000,56,11,16,2,59,8,57,-4,ok,2,0,0.003,11,0.39,0.06,11.29,62,0.051,8.24
10.8578,-0.02269,0.01920,0.55327,0.00000,0.00000,0.00000,56,11,15,5,60,8,55,-5,ok,2,0,0.003,11,0.39,0.06,11.29,62,0.063,8.24
10.8705,-0.02269,0.01920,0.55327,0.00000,0.00000,0.00000,56,13,13,8,60,9,53,-6,ok,2,0,0.003,11,0.39,0.06,11.29,62,0.076,8.24
10.8930,-0.02269,0.01920,0.55327,0.00000,0.00000,0.00000,56,13,12,11,60,9,50,-5,ok,2,0,0.003,11,0.39,0.06,11.29,62,0.088,8.24
10.8962,-0.02269,0.01920,0.55327,0.00000,0.00000,0.00000,56,14,14,11,60,9,48,-5,ok,2,0,0.003,11,0.39,0.06,11.29,62,0.102,8.24
10.9088,-0.02269,0.01920,0.55327,0.00000,0.00000,0.00000,56,14,15,11,61,10,45,-5,ok,2,0,0.003,11,0.39,0.06,11.29,62,0.115,8.24
10.9290,-0.02269,0.01920,0.55327,0.00000,0.00000,0.00000,56,14,16,10,61,11,42,-4,ok,2,0,0.003,11,0.39,0.06,11.29,62,0.127,8.24
10.9339,-0.02269,0.01920,0.55327,0.00000,0.00000,0.00000,56,15,18,9,61,12,40,-4,ok,2,0,0.003,11,0.39,0.06,11.29,62,0.140,8.24
10.9464,-0.02269,0.01920,0.55327,0.00000,0.00000,0.00000,56,15,19,9,61,12,37,-3,ok,2,0,0.003,11,0.39,0.06,11.29,62,0.152,8.24
10.9690,-0.02269,0.01920,0.55327,0.00000,0.00000,0.00000,56,16,21,8,62,13,35,-3,ok,2,0,0.003,11,0.39,0.06,11.29,62,0.165,8.24
10.9722,-0.02269,0.01920,0.55327,0.00000,0.00000,0.00000,56,17,21,7,62,14,31,-1,ok,2,0,0.003,11,0.39,0.06,11.29,62,0.178,8.24
10.9851,-0.02269,0.01920,0.55327,0.00000,0.00000,0.00000,58,19,23,6,63,14,30,0,ok,2,0,0.003,11,0.39,0.06,11.29,62,0.190,8.24
11.0050,0.09774,-0.00349,0.54629,0.00000,0.00000,0.00000,58,20,24,5,63,15,27,2,ok,2,0,0.003,11,-0.49,1.02,9.59,63,0.000,8.24
11.0098,0.09774,-0.00349,0.54629,0.00000,0.00000,0.00000,58,21,24,4,63,17,25,5,ok,2,0,0.003,11,-0.49,1.02,9.59,63,0.012,8.24
11.0223,0.09774,-0.00349,0.54629,0.00000,0.00000,0.00000,58,22,25,4,64,17,24,7,ok,2,0,0.003,11,-0.49,1.02,9.59,63,0.025,8.24
11.0449,0.09774,-0.00349,0.54629,0.00000,0.00000,0.00000,58,23,26,3,64,18,22,11,ok,2,0,0.003,11,-0.49,1.02,9.59,63,0.037,8.24
11.0482,0.09774,-0.00349,0.54629,0.00000,0.00000,0.00000,57,26,27,2,64,19,22,13,ok,2,0,0.003,11,-0.49,1.02,9.59,63,0.051,8.24
11.0608,0.09774,-0.00349,0.54629,0.00000,0.00000,0.00000,57,27,28,1,64,20,24,12,ok,2,0,0.003,11,-0.49,1.02,9.59,63,0.064,8.24
11.0809,0.09774,-0.00349,0.54629,0.00000,0.00000,0.00000,58,26,29,1,64,21,24,11,ok,2,0,0.003,11,-0.49,1.02,9.59,63,0.076,8.24
11.0858,0.09774,-0.00349,0.54629,0.00000,0.00000,0.00000,59,23,30,1,65,22,25,10,ok,2,0,0.003,11,-0.49,1.02,9.59,63,0.089,8.24
11.0984,0.09774,-0.00349,0.54629,0.00000,0.00000,0.00000,60,19,31,0,64,23,26,9,ok,2,0,0.003,11,-0.49,1.02,9.59,63,0.101,8.24
11.1209,0.09774,-0.00349,0.54629,0.00000,0.00000,0.00000,60,14,33,1,64,25,27,10,ok,2,0,0.003,11,-0.49,1.02,9.59,63,0.114,8.24
11.1241,0.09774,-0.00349,0.54629,0.00000,0.00000,0.00000,60,12,34,1,65,26,29,9,ok,2,0,0.003,11,-0.49,1.02,9.59,63,0.127,8.24
11.1368,0.09774,-0.00349,0.54629,0.00000,0.00000,0.00000,60,11,36,1,64,28,30,9,ok,2,0,0.003,11,-0.49,1.02,9.59,63,0.139,8.24
11.1569,0.09774,-0.00349,0.54629,0.00000,0.00000,0.00000,60,8,37,2,64,29,32,9,ok,2,0,0.003,11,-0.49,1.02,9.59,63,0.152,8.24
11.1618,0.09774,-0.00349,0.54629,0.00000,0.00000,0.00000,60,5,39,3,64,31,32,9,ok,2,0,0.003,11,-0.49,1.02,9.59,63,0.164,8.24
11.1743,0.09774,-0.00349,0.54629,0.00000,0.00000,0.00000,60,2,40,3,64,32,34,8,ok,2,0,0.003,11,-0.49,1.02,9.59,63,0.177,8.24
11.1970,0.09774,-0.00349,0.54629,0.00000,0.00000,0.00000,59,0,42,3,64,34,35,8,ok,2,0,0.003,11,-0.49,1.02,9.59,63,0.189,8.24
11.2005,-0.08727,0.01396,0.56200,0.00000,0.00000,0.00000,58,-2,43,2,64,35,36,8,ok,2,0,0.003,11,0.99,-1.87,9.31,64,0.000,8.24
11.2128,-0.08727,0.01396,0.56200,0.00000,0.00000,0.00000,58,-4,44,3,64,35,38,8,ok,2,0,0.003,11,0.99,-1.87,9.31,64,0.013,8.24
11.2332,-0.08727,0.01396,0.56200,0.00000,0.00000,0.00000,57,-5,45,3,65,35,39,8,ok,2,0,0.003,11,0.99,-1.87,9.31,64,0.025,8.24
11.2378,-0.08727,0.01396,0.56200,0.00000,0.00000,0.00000,56,-7,46,4,67,33,41,7,ok,2,0,0.003,11,0.99,-1.87,9.31,64,0.038,8.24
11.2504,-0.08727,0.01396,0.56200,0.00000,0.00000,0.00000,56,-9,47,4,68,28,42,7,ok,2,0,0.003,11,0.99,-1.87,9.31,64,0.050,8.24
11.2730,-0.08727,0.01396,0.56200,0.00000,0.00000,0.00000,54,-10,48,5,70,24,44,7,ok,2,0,0.003,11,0.99,-1.87,9.31,64,0.063,8.24
11.2763,-0.08727,0.01396,0.56200,0.00000,0.00000,0.00000,54,-11,49,5,72,21,44,7,ok,2,0,0.003,11,0.99,-1.87,9.31,64,0.076,8.24
11.2890,-0.08727,0.01396,0.56200,0.00000,0.00000,0.00000,52,-12,50,5,73,20,45,7,ok,2,0,0.003,11,0.99,-1.87,9.31,64,0.089,8.24
11.3089,-0.08727,0.01396,0.56200,0.00000,0.00000,0.00000,51,-13,50,7,73,18,46,8,ok,2,0,0.003,11,0.99,-1.87,9.31,64,0.101,8.24
11.3138,-0.08727,0.01396,0.56200,0.00000,0.00000,0.00000,50,-12,51,7,73,15,47,8,ok,2,0,0.003,11,0.99,-1.87,9.31,64,0.114,8.24
11.3264,-0.08727,0.01396,0.56200,0.00000,0.00000,0.00000,48,-12,52,7,73,11,48,8,ok,2,0,0.003,11,0.99,-1.87,9.31,64,0.126,8.24
11.3490,-0.08727,0.01396,0.56200,0.00000,0.00000,0.00000,47,-11,53,7,72,10,49,8,ok,2,0,0.003,11,0.99,-1.87,9.31,64,0.139,8.24
11.3524,-0.08727,0.01396,0.56200,0.00000,0.00000,0.00000,46,-11,53,7,72,6,49,9,ok,2,0,0.003,11,0.99,-1.87,9.31,64,0.152,8.24
11.3648,-0.08727,0.01396,0.56200,0.00000,0.00000,0.00000,44,-11,55,7,72,4,50,8,ok,2,0,0.003,11,0.99,-1.87,9.31,64,0.165,8.24
11.3890,-0.08727,0.01396,0.56200,0.00000,0.00000,0.00000,44,-10,56,7,70,3,51,9,ok,2,0,0.003,11,0.99,-1.87,9.31,64,0.177,8.24
11.3924,0.03840,-0.02618,0.57247,0.00000,0.00000,0.00000,42,-8,57,7,69,1,52,8,ok,2,0,0.003,11,-0.22,0.39,9.66,65,0.000,8.24
11.4049,0.03840,-0.02618,0.57247,0.00000,0.00000,0.00000,40,-7,57,7,66,2,52,9,ok,2,0,0.003,11,-0.22,0.39,9.66,65,0.013,8.24
11.4249,0.03840,-0.02618,0.57247,0.00000,0.00000,0.00000,38,-5,57,7,65,0,52,9,ok,2,0,0.003,11,-0.22,0.39,9.66,65,0.025,8.24
11.4298,0.03840,-0.02618,0.57247,0.00000,0.00000,0.00000,37,-3,58,8,64,-2,54,9,ok,2,0,0.003,11,-0.22,0.39,9.66,65,0.038,8.24
11.4425,0.03840,-0.02618,0.57247,0.00000,0.00000,0.00000,35,-1,59,8,62,-4,54,9,ok,2,0,0.003,11,-0.22,0.39,9.66,65,0.050,8.24
11.4650,0.03840,-0.02618,0.57247,0.00000,0.00000,0.00000,35,0,60,10,61,-5,54,8,ok,2,0,0.003,11,-0.22,0.39,9.66,65,0.063,8.24
11.4681,0.03840,-0.02618,0.57247,0.00000,0.00000,0.00000,34,1,61,9,59,-5,56,6,ok,2,0,0.003,11,-0.22,0.39,9.66,65,0.076,8.24
11.4808,0.03840,-0.02618,0.57247,0.00000,0.00000,0.00000,34,3,61,10,56,-6,57,7,ok,2,0,0.003,11,-0.22,0.39,9.66,65,0.089,8.24
11.5009,0.03840,-0.02618,0.57247,0.00000,0.00000,0.00000,32,6,61,10,54,-7,58,8,ok,2,0,0.003,11,-0.22,0.39,9.66,65,0.101,8.24
11.5058,0.03840,-0.02618,0.57247,0.00000,0.00000,0.00000,32,10,61,11,51,-6,58,8,ok,2,0,0.003,11,-0.22,0.39,9.66,65,0.114,8.24
11.5183,0.03840,-0.02618,0.57247,0.00000,0.00000,0.00000,32,12,61,11,48,-6,58,8,ok,2,0,0.003,11,-0.22,0.39,9.66,65,0.126,8.24
11.5409,0.03840,-0.02618,0.57247,0.00000,0.00000,0.00000,32,12,62,12,46,-6,59,10,ok,2,0,0.003,11,-0.22,0.39,9.66,65,0.139,8.24
11.5441,0.03840,-0.02618,0.57247,0.00000,0.00000,0.00000,32,11,62,13,43,-5,59,10,ok,2,0,0.003,11,-0.22,0.39,9.66,65,0.152,8.24
11.5568,0.03840,-0.02618,0.57247,0.00000,0.00000,0.00000,33,10,62,14,40,-5,60,11,ok,2,0,0.003,11,-0.22,0.39,9.66,65,0.165,8.24
11.5770,0.03840,-0.02618,0.57247,0.00000,0.00000,0.00000,34,9,62,14,37,-4,60,12,ok,2,0,0.003,11,-0.22,0.39,9.66,65,0.177,8.24
11.5821,0.03840,-0.02618,0.57247,0.00000,0.00000,0.00000,34,8,63,15,34,-3,61,13,ok,2,0,0.003,11,-0.22,0.39,9.66,65,0.190,8.24
11.5946,0.02094,0.09250,0.61087,0.00000,0.00000,0.00000,36,7,63,16,31,-2,61,13,ok,2,0,0.003,11,2.76,0.85,10.82,66,0.000,8.24
11.6170,0.02094,0.09250,0.61087,0.00000,0.00000,0.00000,36,7,63,17,29,0,62,14,ok,2,0,0.003,11,2.76,0.85,10.82,66,0.013,8.24
11.6201,0.02094,0.09250,0.61087,0.00000,0.00000,0.00000,36,6,64,18,27,1,62,15,ok,2,0,0.003,11,2.76,0.85,10.82,66,0.026,8.24
11.6328,0.02094,0.09250,0.61087,0.00000,0.00000,0.00000,37,5,64,20,25,4,63,15,ok,2,0,0.003,11,2.76,0.85,10.82,66,0.039,8.24
11.6530,0.02094,0.09250,0.61087,0.00000,0.00000,0.00000,38,4,64,21,24,7,63,16,ok,2,0,0.003,11,2.76,0.85,10.82,66,0.051,8.24
11.6580,0.02094,0.09250,0.61087,0.00000,0.00000,0.00000,38,4,64,22,23,11,63,17,ok,2,0,0.003,11,2.76,0.85,10.82,66,0.064,8.24
11.6703,0.02094,0.09250,0.61087,0.00000,0.00000,0.00000,38,3,64,23,22,14,63,18,ok,2,0,0.003,11,2.76,0.85,10.82,66,0.076,8.24
11.6929,0.02094,0.09250,0.61087,0.00000,0.00000,0.00000,38,3,63,26,24,13,64,19,ok,2,0,0.003,11,2.76,0.85,10.82,66,0.089,8.24
11.6961,0.02094,0.09250,0.61087,0.00000,0.00000,0.00000,39,2,63,27,24,13,64,20,ok,2,0,0.003,11,2.76,0.85,10.82,66,0.102,8.24
11.7088,0.02094,0.09250,0.61087,0.00000,0.00000,0.00000,40,2,64,26,25,11,64,21,ok,2,0,0.003,12,2.76,0.85,10.82,66,0.115,8.24
11.7289,0.02094,0.09250,0.61087,0.00000,0.00000,0.00000,40,1,67,23,27,11,65,21,ok,2,0,0.003,12,2.76,0.85,10.82,66,0.127,8.24
11.7338,0.02094,0.09250,0.61087,0.00000,0.00000,0.00000,40,1,69,19,28,11,65,22,ok,2,0,0.003,12,2.76,0.85,10.82,66,0.139,8.24
11.7465,0.02094,0.09250,0.61087,0.00000,0.00000,0.00000,42,1,70,14,29,10,65,23,ok,2,0,0.003,12,2.76,0.85,10.82,66,0.152,8.24
11.7690,0.02094,0.09250,0.61087,0.00000,0.00000,0.00000,42,1,70,12,30,9,65,25,ok,2,0,0.003,12,2.76,0.85,10.82,66,0.165,8.24
11.7721,0.02094,0.09250,0.61087,0.00000,0.00000,0.00000,44,1,70,12,33,9,65,26,ok,2,0,0.003,12,2.76,0.85,10.82,66,0.178,8.24
11.7851,0.02094,0.09250,0.61087,0.00000,0.00000,0.00000,44,1,70,8,33,9,64,28,ok,2,0,0.003,12,2.76,0.85,10.82,66,0.191,8.24
11.8049,-0.12043,-0.01396,0.55327,0.00000,0.00000,0.00000,44,2,69,5,35,9,64,30,ok,2,0,0.003,12,-0.11,-2.20,10.12,67,0.000,8.24
11.8099,-0.12043,-0.01396,0.55327,0.00000,0.00000,0.00000,46,2,68,3,37,8,65,31,ok,2,0,0.003,12,-0.11,-2.20,10.12,67,0.012,8.24
11.8225,-0.12043,-0.01396,0.55327,0.00000,0.00000,0.00000,46,2,67,0,38,8,65,33,ok,2,0,0.003,12,-0.11,-2.20,10.12,67,0.025,8.24
11.8449,-0.12043,-0.01396,0.55327,0.00000,0.00000,0.00000,46,1,66,-2,39,8,65,34,ok,2,0,0.003,12,-0.11,-2.20,10.12,67,0.038,8.24
11.8481,-0.12043,-0.01396,0.55327,0.00000,0.00000,0.00000,48,1,64,-3,39,8,64,35,ok,2,0,0.003,12,-0.11,-2.20,10.12,67,0.051,8.24
11.8609,-0.12043,-0.01396,0.55327,0.00000,0.00000,0.00000,48,1,62,-4,40,7,65,36,ok,2,0,0.003,12,-0.11,-2.20,10.12,67,0.064,8.24
11.8809,-0.12043,-0.01396,0.55327,0.00000,0.00000,0.00000,48,2,61,-5,42,7,66,35,ok,2,0,0.003,12,-0.11,-2.20,10.12,67,0.076,8.24
11.8858,-0.12043,-0.01396,0.55327,0.00000,0.00000,0.00000,49,2,60,-7,43,7,68,32,ok,2,0,0.003,12,-0.11,-2.20,10.12,67,0.088,8.24
11.8984,-0.12043,-0.01396,0.55327,0.00000,0.00000,0.00000,50,2,58,-7,44,7,70,27,ok,2,0,0.003,12,-0.11,-2.20,10.12,67,0.101,8.24
11.9210,-0.12043,-0.01396,0.55327,0.00000,0.00000,0.00000,50,2,56,-9,45,7,71,24,ok,2,0,0.003,12,-0.11,-2.20,10.12,67,0.113,8.24
11.9241,-0.12043,-0.01396,0.55327,0.00000,0.00000,0.00000,50,2,54,-9,46,7,72,21,ok,2,0,0.003,12,-0.11,-2.20,10.12,67,0.127,8.24
11.9368,-0.12043,-0.01396,0.55327,0.00000,0.00000,0.00000,50,5,51,-10,47,7,72,21,ok,2,0,0.003,12,-0.11,-2.20,10.12,67,0.140,8.24
11.9569,-0.12043,-0.01396,0.55327,0.00000,0.00000,0.00000,51,6,49,-10,47,7,72,19,ok,2,0,0.003,12,-0.11,-2.20,10.12,67,0.152,8.24
11.9620,-0.12043,-0.01396,0.55327,0.00000,0.00000,0.00000,52,6,46,-10,48,7,72,15,ok,2,0,0.003,12,-0.11,-2.20,10.12,67,0.164,8.24
11.9743,-0.12043,-0.01396,0.55327,0.00000,0.00000,0.00000,52,6,44,-10,49,7,72,12,ok,2,0,0.003,12,-0.11,-2.20,10.12,67,0.177,8.24
11.9970,-0.04014,0.02618,0.56898,0.00000,0.00000,0.00000,52,7,42,-10,50,7,71,11,ok,2,0,0.003,12,-1.33,-0.02,9.92,68,0.000,8.24
12.0002,-0.04014,0.02618,0.56898,0.00000,0.00000,0.00000,53,8,39,-10,51,7,70,7,ok,2,0,0.003,12,-1.33,-0.02,9.92,68,0.013,8.24
12.0128,-0.04014,0.02618,0.56898,0.00000,0.00000,0.00000,54,8,37,-9,52,7,70,6,ok,2,0,0.003,12,-1.33,-0.02,9.92,68,0.026,8.24
12.0330,-0.04014,0.02618,0.56898,0.00000,0.00000,0.00000,54,8,33,-9,52,7,69,4,ok,2,0,0.003,12,-1.33,-0.02,9.92,68,0.039,8.24
12.0379,-0.04014,0.02618,0.56898,0.00000,0.00000,0.00000,54,9,31,-8,53,8,67,2,ok,2,0,0.003,12,-1.33,-0.02,9.92,68,0.051,8.24
12.0503,-0.04014,0.02618,0.56898,0.00000,0.00000,0.00000,54,9,27,-7,54,8,65,2,ok,2,0,0.003,12,-1.33,-0.02,9.92,68,0.064,8.24
12.0730,-0.04014,0.02618,0.56898,0.00000,0.00000,0.00000,54,9,24,-5,55,8,64,0,ok,2,0,0.003,12,-1.33,-0.02,9.92,68,0.076,8.24
12.0761,-0.04014,0.02618,0.56898,0.00000,0.00000,0.00000,55,10,21,-3,56,8,64,-2,ok,2,0,0.003,12,-1.33,-0.02,9.92,68,0.089,8.24
12.0890,-0.04014,0.02618,0.56898,0.00000,0.00000,0.00000,55,10,19,-1,58,6,62,-3,ok,2,0,0.003,12,-1.33,-0.02,9.92,68,0.102,8.24
12.1089,-0.04014,0.02618,0.56898,0.00000,0.00000,0.00000,56,10,18,0,58,7,59,-4,ok,2,0,0.003,12,-1.33,-0.02,9.92,68,0.115,8.24
12.1139,-0.04014,0.02618,0.56898,0.00000,0.00000,0.00000,56,11,16,3,59,8,58,-5,ok,2,0,0.003,12,-1.33,-0.02,9.92,68,0.127,8.24
12.1263,-0.04014,0.02618,0.56898,0.00000,0.00000,0.00000,56,11,15,6,59,8,55,-6,ok,2,0,0.003,12,-1.33,-0.02,9.92,68,0.140,8.24
12.1489,-0.04014,0.02618,0.56898,0.00000,0.00000,0.00000,56,12,13,9,60,9,53,-6,ok,2,0,0.003,12,-1.33,-0.02,9.92,68,0.152,8.24
12.1523,-0.04014,0.02618,0.56898,0.00000,0.00000,0.00000,56,12,13,11,60,9,50,-5,ok,2,0,0.003,12,-1.33,-0.02,9.92,68,0.165,8.24
12.1649,-0.04014,0.02618,0.56898,0.00000,0.00000,0.00000,56,13,14,12,60,10,48,-5,ok,2,0,0.003,12,-1.33,-0.02,9.92,68,0.178,8.24
12.1849,-0.04014,0.02618,0.56898,0.00000,0.00000,0.00000,56,13,15,11,61,11,46,-5,ok,2,0,0.003,12,-1.33,-0.02,9.92,68,0.191,8.24
12.1900,-0.04014,0.02618,0.56898,0.00000,0.00000,0.00000,56,14,17,10,61,11,42,-4,ok,2,0,0.003,12,-1.33,-0.02,9.92,68,0.203,8.24
12.2026,0.10123,0.01745,0.55152,0.00000,0.00000,0.00000,56,15,19,9,61,12,41,-4,ok,2,0,0.003,12,0.91,1.52,10.98,69,0.000,8.24
12.2250,0.10123,0.01745,0.55152,0.00000,0.00000,0.00000,56,15,19,8,61,13,37,-3,ok,2,0,0.003,12,0.91,1.52,10.98,69,0.013,8.24
12.2283,0.10123,0.01745,0.55152,0.00000,0.00000,0.00000,56,16,21,7,62,14,34,-3,ok,2,0,0.003,12,0.91,1.52,10.98,69,0.026,8.24
12.2409,0.10123,0.01745,0.55152,0.00000,0.00000,0.00000,56,18,21,7,62,15,30,-1,ok,2,0,0.003,12,0.91,1.52,10.98,69,0.039,8.24
