# run_gait log  cmd_fwd=0.100 hz=80.0 fw_balance=off policy_yaw_sign=-1
t,roll,pitch,yaw,gx,gy,gz,j0,j1,j2,j3,j4,j5,j6,j7,guard_state,hottest_j,hottest_tier,hottest_frac,duty_s,ax,ay,az,imu_n,imu_age_s,volt
0.0373,-0.02269,0.01745,0.00000,0.00000,0.00000,0.00000,36,0,57,10,60,-3,54,8,ok,3,0,0.000,0,0.19,-0.20,9.99,9,0.000,nan
0.0421,-0.02269,0.01745,0.00000,0.00000,0.00000,0.00000,34,1,59,10,59,-4,56,6,ok,2,0,0.000,0,0.19,-0.20,9.99,9,0.022,nan
0.0550,-0.02269,0.01745,0.00000,0.00000,0.00000,0.00000,34,4,59,11,56,-5,56,8,ok,4,0,0.000,0,0.19,-0.20,9.99,9,0.034,8.23
0.0773,-0.02269,0.01745,0.00000,0.00000,0.00000,0.00000,33,6,60,12,55,-6,57,8,ok,4,0,0.000,0,0.19,-0.20,9.99,9,0.047,8.23
0.0819,-0.02269,0.01745,0.00000,0.00000,0.00000,0.00000,32,10,59,13,52,-5,57,9,ok,4,0,0.000,0,0.19,-0.20,9.99,9,0.062,8.23
0.0943,-0.02269,0.01745,0.00000,0.00000,0.00000,0.00000,31,12,60,13,50,-5,58,10,ok,4,0,0.000,0,0.19,-0.20,9.99,9,0.074,8.23
0.1173,-0.02269,0.01745,0.00000,0.00000,0.00000,0.00000,32,13,60,14,47,-5,59,11,ok,4,0,0.000,0,0.19,-0.20,9.99,9,0.087,8.23
0.1221,-0.02269,0.01745,0.00000,0.00000,0.00000,0.00000,32,13,60,15,44,-4,59,11,ok,4,0,0.000,0,0.19,-0.20,9.99,9,0.102,8.23
0.1333,-0.02269,0.01745,0.00000,0.00000,0.00000,0.00000,33,12,61,15,42,-4,60,12,ok,4,0,0.000,0,0.19,-0.20,9.99,9,0.114,8.23
0.1532,-0.02269,0.01745,0.00000,0.00000,0.00000,0.00000,34,11,60,16,39,-3,60,12,ok,4,0,0.000,0,0.19,-0.20,9.99,9,0.127,8.23
0.1584,-0.02269,0.01745,0.00000,0.00000,0.00000,0.00000,34,11,61,17,36,-2,61,13,ok,4,0,0.000,0,0.19,-0.20,9.99,9,0.139,8.23
0.1707,-0.02269,0.01745,0.00000,0.00000,0.00000,0.00000,34,9,61,18,32,-1,61,14,ok,4,0,0.000,0,0.19,-0.20,9.99,9,0.152,8.23
0.1972,-0.02269,0.01745,0.00000,0.00000,0.00000,0.00000,34,9,61,19,30,0,62,15,ok,4,0,0.000,0,0.19,-0.20,9.99,9,0.164,8.23
0.2005,-0.02269,0.01745,0.00000,0.00000,0.00000,0.00000,36,8,62,20,27,2,62,16,ok,4,0,0.000,0,0.19,-0.20,9.99,9,0.182,8.23
0.2133,-0.02269,0.01745,0.00000,0.00000,0.00000,0.00000,36,7,62,21,25,5,63,16,ok,4,0,0.000,0,0.19,-0.20,9.99,9,0.194,8.23
0.2331,-0.02793,-0.10472,0.00524,0.00000,0.00000,0.00000,37,7,62,21,23,8,64,17,ok,4,0,0.000,0,0.52,0.19,10.83,10,0.000,8.23
0.2380,-0.02793,-0.10472,0.00524,0.00000,0.00000,0.00000,38,6,62,22,22,11,64,18,ok,4,0,0.000,0,0.52,0.19,10.83,10,0.012,8.23
0.2507,-0.02793,-0.10472,0.00524,0.00000,0.00000,0.00000,38,6,62,23,21,14,65,18,ok,4,0,0.000,0,0.52,0.19,10.83,10,0.025,8.23
0.2733,-0.02793,-0.10472,0.00524,0.00000,0.00000,0.00000,39,5,61,26,23,14,65,19,ok,4,0,0.000,0,0.52,0.19,10.83,10,0.038,8.23
0.2764,-0.02793,-0.10472,0.00524,0.00000,0.00000,0.00000,39,5,62,28,23,14,65,20,ok,4,0,0.000,0,0.52,0.19,10.83,10,0.051,8.23
0.2891,-0.02793,-0.10472,0.00524,0.00000,0.00000,0.00000,40,4,63,26,24,12,65,21,ok,4,0,0.000,0,0.52,0.19,10.83,10,0.064,8.23
0.3092,-0.02793,-0.10472,0.00524,0.00000,0.00000,0.00000,40,4,66,23,25,11,66,23,ok,4,0,0.000,0,0.52,0.19,10.83,10,0.076,8.23
0.3141,-0.02793,-0.10472,0.00524,0.00000,0.00000,0.00000,42,4,69,19,26,11,66,24,ok,4,0,0.000,0,0.52,0.19,10.83,10,0.089,8.23
0.3267,-0.02793,-0.10472,0.00524,0.00000,0.00000,0.00000,42,4,71,16,27,11,65,25,ok,4,0,0.000,0,0.52,0.19,10.83,10,0.101,8.23
0.3492,-0.02793,-0.10472,0.00524,0.00000,0.00000,0.00000,43,4,71,14,28,9,65,27,ok,4,0,0.000,0,0.52,0.19,10.83,10,0.114,8.23
0.3523,-0.02793,-0.10472,0.00524,0.00000,0.00000,0.00000,44,3,71,13,31,10,66,27,ok,4,0,0.000,0,0.52,0.19,10.83,10,0.127,8.23
0.3652,-0.02793,-0.10472,0.00524,0.00000,0.00000,0.00000,44,3,71,10,31,10,64,30,ok,4,0,0.000,0,0.52,0.19,10.83,10,0.139,8.23
0.3851,-0.02793,-0.10472,0.00524,0.00000,0.00000,0.00000,45,4,71,7,32,10,64,31,ok,4,0,0.000,0,0.52,0.19,10.83,10,0.152,8.23
0.3900,-0.02793,-0.10472,0.00524,0.00000,0.00000,0.00000,46,4,70,4,34,9,65,32,ok,4,0,0.000,0,0.52,0.19,10.83,10,0.164,8.23
0.4025,-0.02793,-0.10472,0.00524,0.00000,0.00000,0.00000,46,3,69,1,35,9,64,33,ok,4,0,0.000,0,0.52,0.19,10.83,10,0.177,8.23
0.4252,-0.02793,-0.10472,0.00524,0.00000,0.00000,0.00000,47,3,68,0,36,8,64,35,ok,4,0,0.000,0,0.52,0.19,10.83,10,0.189,8.23
0.4286,-0.13788,-0.00175,0.05411,0.00000,0.00000,0.00000,48,3,67,-2,38,8,63,36,ok,4,0,0.000,0,-0.07,-1.27,8.63,11,0.000,8.23
0.4410,-0.13788,-0.00175,0.05411,0.00000,0.00000,0.00000,48,3,65,-2,39,6,65,36,ok,4,0,0.000,0,-0.07,-1.27,8.63,11,0.013,8.23
0.4611,-0.13788,-0.00175,0.05411,0.00000,0.00000,0.00000,49,4,63,-4,40,6,66,35,ok,4,0,0.000,0,-0.07,-1.27,8.63,11,0.025,8.23
0.4660,-0.13788,-0.00175,0.05411,0.00000,0.00000,0.00000,50,4,62,-6,42,6,68,32,ok,4,0,0.000,0,-0.07,-1.27,8.63,11,0.038,8.23
0.4787,-0.13788,-0.00175,0.05411,0.00000,0.00000,0.00000,50,4,59,-7,43,6,70,27,ok,4,0,0.000,0,-0.07,-1.27,8.63,11,0.050,8.23
0.5012,-0.13788,-0.00175,0.05411,0.00000,0.00000,0.00000,51,4,57,-8,44,6,71,23,ok,4,0,0.000,0,-0.07,-1.27,8.63,11,0.063,8.23
0.5043,-0.13788,-0.00175,0.05411,0.00000,0.00000,0.00000,51,3,54,-9,46,6,73,20,ok,4,0,0.000,0,-0.07,-1.27,8.63,11,0.076,8.23
0.5170,-0.13788,-0.00175,0.05411,0.00000,0.00000,0.00000,51,5,52,-10,47,6,73,20,ok,4,0,0.000,0,-0.07,-1.27,8.63,11,0.089,8.23
0.5372,-0.13788,-0.00175,0.05411,0.00000,0.00000,0.00000,52,5,49,-9,48,7,73,18,ok,4,0,0.000,1,-0.07,-1.27,8.63,11,0.101,8.23
0.5422,-0.13788,-0.00175,0.05411,0.00000,0.00000,0.00000,52,5,47,-10,49,7,73,14,ok,4,0,0.000,1,-0.07,-1.27,8.63,11,0.114,8.23
0.5544,-0.13788,-0.00175,0.05411,0.00000,0.00000,0.00000,52,6,45,-10,50,7,72,12,ok,4,0,0.000,1,-0.07,-1.27,8.63,11,0.126,8.23
0.5773,-0.13788,-0.00175,0.05411,0.00000,0.00000,0.00000,52,7,42,-10,51,7,72,10,ok,4,0,0.000,1,-0.07,-1.27,8.63,11,0.139,8.23
0.5810,-0.13788,-0.00175,0.05411,0.00000,0.00000,0.00000,54,7,40,-11,52,7,72,6,ok,4,0,0.000,1,-0.07,-1.27,8.63,11,0.152,8.23
0.5934,-0.13788,-0.00175,0.05411,0.00000,0.00000,0.00000,54,7,37,-10,53,6,71,4,ok,4,0,0.000,1,-0.07,-1.27,8.63,11,0.165,8.23
0.6172,-0.13788,-0.00175,0.05411,0.00000,0.00000,0.00000,54,7,33,-9,53,7,70,3,ok,4,0,0.000,1,-0.07,-1.27,8.63,11,0.177,8.23
0.6205,-0.13788,-0.00175,0.05411,0.00000,0.00000,0.00000,54,8,31,-8,53,7,69,1,ok,4,0,0.000,1,-0.07,-1.27,8.63,11,0.192,8.23
0.6333,-0.04014,-0.00524,0.06632,0.00000,0.00000,0.00000,54,8,27,-6,54,8,66,0,ok,2,0,0.000,1,0.09,-0.16,8.88,12,0.000,8.23
0.6531,-0.04014,-0.00524,0.06632,0.00000,0.00000,0.00000,55,9,24,-5,55,8,65,-2,ok,2,0,0.000,1,0.09,-0.16,8.88,12,0.012,8.23
0.6579,-0.04014,-0.00524,0.06632,0.00000,0.00000,0.00000,55,10,20,-2,56,9,64,-3,ok,2,0,0.000,1,0.09,-0.16,8.88,12,0.025,8.23
0.6705,-0.04014,-0.00524,0.06632,0.00000,0.00000,0.00000,56,11,19,-1,58,7,62,-4,ok,2,0,0.000,1,0.09,-0.16,8.88,12,0.038,8.23
0.6932,-0.04014,-0.00524,0.06632,0.00000,0.00000,0.00000,56,10,18,0,58,8,60,-5,ok,2,0,0.000,1,0.09,-0.16,8.88,12,0.050,8.23
0.6963,-0.04014,-0.00524,0.06632,0.00000,0.00000,0.00000,56,11,16,3,59,9,58,-6,ok,2,0,0.000,1,0.09,-0.16,8.88,12,0.063,8.23
0.7090,-0.04014,-0.00524,0.06632,0.00000,0.00000,0.00000,56,11,14,6,59,9,55,-6,ok,2,0,0.000,1,0.09,-0.16,8.88,12,0.076,8.23
0.7291,-0.04014,-0.00524,0.06632,0.00000,0.00000,0.00000,56,13,13,9,60,10,53,-7,ok,2,0,0.000,1,0.09,-0.16,8.88,12,0.088,8.23
0.7340,-0.04014,-0.00524,0.06632,0.00000,0.00000,0.00000,56,13,12,11,60,10,50,-6,ok,2,0,0.000,1,0.09,-0.16,8.88,12,0.101,8.23
0.7467,-0.04014,-0.00524,0.06632,0.00000,0.00000,0.00000,56,14,14,12,60,10,48,-6,ok,2,0,0.000,1,0.09,-0.16,8.88,12,0.113,8.23
0.7692,-0.04014,-0.00524,0.06632,0.00000,0.00000,0.00000,56,14,15,11,60,11,45,-6,ok,2,0,0.000,1,0.09,-0.16,8.88,12,0.126,8.23
0.7723,-0.04014,-0.00524,0.06632,0.00000,0.00000,0.00000,56,14,16,10,61,11,42,-5,ok,2,0,0.000,1,0.09,-0.16,8.88,12,0.139,8.23
0.7851,-0.04014,-0.00524,0.06632,0.00000,0.00000,0.00000,56,15,19,9,61,12,40,-5,ok,2,0,0.000,1,0.09,-0.16,8.88,12,0.152,8.23
0.8051,-0.04014,-0.00524,0.06632,0.00000,0.00000,0.00000,56,15,19,9,61,13,37,-4,ok,2,0,0.000,1,0.09,-0.16,8.88,12,0.164,8.23
0.8099,-0.04014,-0.00524,0.06632,0.00000,0.00000,0.00000,57,16,21,7,61,13,35,-3,ok,2,0,0.000,1,0.09,-0.16,8.88,12,0.177,8.23
0.8228,-0.04014,-0.00524,0.06632,0.00000,0.00000,0.00000,57,17,22,7,62,14,31,-1,ok,2,0,0.000,1,0.09,-0.16,8.88,12,0.189,8.23
0.8452,-0.12915,0.10996,0.02443,0.00000,0.00000,0.00000,58,19,23,6,63,14,30,0,ok,2,0,0.000,1,0.74,-1.58,10.33,13,0.000,8.23
0.8484,-0.12915,0.10996,0.02443,0.00000,0.00000,0.00000,58,20,24,5,62,15,28,1,ok,2,0,0.000,1,0.74,-1.58,10.33,13,0.013,8.23
0.8610,-0.12915,0.10996,0.02443,0.00000,0.00000,0.00000,58,21,25,5,62,16,26,5,ok,2,0,0.000,1,0.74,-1.58,10.33,13,0.026,8.23
0.8811,-0.12915,0.10996,0.02443,0.00000,0.00000,0.00000,58,22,25,4,63,16,24,7,ok,2,0,0.000,1,0.74,-1.58,10.33,13,0.038,8.23
0.8859,-0.12915,0.10996,0.02443,0.00000,0.00000,0.00000,58,22,26,3,63,17,23,11,ok,2,0,0.000,1,0.74,-1.58,10.33,13,0.051,8.23
0.8985,-0.12915,0.10996,0.02443,0.00000,0.00000,0.00000,57,25,27,3,63,18,23,13,ok,2,0,0.000,1,0.74,-1.58,10.33,13,0.063,8.23
0.9212,-0.12915,0.10996,0.02443,0.00000,0.00000,0.00000,57,25,27,3,64,19,25,12,ok,2,0,0.000,1,0.74,-1.58,10.33,13,0.076,8.23
0.9244,-0.12915,0.10996,0.02443,0.00000,0.00000,0.00000,58,24,28,2,64,21,25,12,ok,2,0,0.000,1,0.74,-1.58,10.33,13,0.089,8.23
0.9370,-0.12915,0.10996,0.02443,0.00000,0.00000,0.00000,58,20,29,3,65,22,26,10,ok,2,0,0.000,1,0.74,-1.58,10.33,13,0.102,8.23
0.9571,-0.12915,0.10996,0.02443,0.00000,0.00000,0.00000,60,17,30,2,64,23,27,10,ok,2,0,0.000,1,0.74,-1.58,10.33,13,0.115,8.23
0.9620,-0.12915,0.10996,0.02443,0.00000,0.00000,0.00000,60,12,32,2,64,24,28,10,ok,2,0,0.000,1,0.74,-1.58,10.33,13,0.127,8.23
0.9745,-0.12915,0.10996,0.02443,0.00000,0.00000,0.00000,60,11,33,2,65,25,30,9,ok,2,0,0.000,1,0.74,-1.58,10.33,13,0.140,8.23
0.9971,-0.12915,0.10996,0.02443,0.00000,0.00000,0.00000,60,11,35,2,64,27,31,9,ok,2,0,0.000,1,0.74,-1.58,10.33,13,0.152,8.23
1.0004,-0.12915,0.10996,0.02443,0.00000,0.00000,0.00000,60,7,36,2,64,28,33,9,ok,2,0,0.000,1,0.74,-1.58,10.33,13,0.165,8.23
1.0130,-0.12915,0.10996,0.02443,0.00000,0.00000,0.00000,60,5,38,3,64,30,34,9,ok,2,0,0.000,1,0.74,-1.58,10.33,13,0.178,8.23
1.0332,-0.12915,0.10996,0.02443,0.00000,0.00000,0.00000,60,2,39,3,64,31,35,8,ok,2,0,0.000,1,0.74,-1.58,10.33,13,0.191,8.23
1.0383,-0.04887,-0.00873,0.09250,0.00000,0.00000,0.00000,59,0,41,2,64,33,36,8,ok,2,0,0.000,1,-0.15,-0.42,11.06,14,0.000,8.23
1.0507,-0.04887,-0.00873,0.09250,0.00000,0.00000,0.00000,58,-2,42,2,64,35,37,8,ok,2,0,0.000,1,-0.15,-0.42,11.06,14,0.012,8.23
1.0732,-0.04887,-0.00873,0.09250,0.00000,0.00000,0.00000,58,-4,43,2,65,36,38,8,ok,2,0,0.000,1,-0.15,-0.42,11.06,14,0.025,8.23
1.0763,-0.04887,-0.00873,0.09250,0.00000,0.00000,0.00000,56,-5,44,2,66,35,40,7,ok,2,0,0.000,1,-0.15,-0.42,11.06,14,0.038,8.23
1.0889,-0.04887,-0.00873,0.09250,0.00000,0.00000,0.00000,56,-6,45,2,68,33,41,7,ok,2,0,0.000,1,-0.15,-0.42,11.06,14,0.051,8.23
1.1091,-0.04887,-0.00873,0.09250,0.00000,0.00000,0.00000,56,-8,47,2,70,29,42,7,ok,2,0,0.000,1,-0.15,-0.42,11.06,14,0.063,8.23
1.1140,-0.04887,-0.00873,0.09250,0.00000,0.00000,0.00000,54,-8,48,3,71,24,44,7,ok,2,0,0.000,1,-0.15,-0.42,11.06,14,0.076,8.23
1.1268,-0.04887,-0.00873,0.09250,0.00000,0.00000,0.00000,54,-9,49,3,73,21,44,7,ok,2,0,0.000,1,-0.15,-0.42,11.06,14,0.088,8.23
1.1492,-0.04887,-0.00873,0.09250,0.00000,0.00000,0.00000,52,-9,50,3,74,20,45,7,ok,2,0,0.000,1,-0.15,-0.42,11.06,14,0.101,8.23
1.1523,-0.04887,-0.00873,0.09250,0.00000,0.00000,0.00000,51,-10,50,5,74,18,46,7,ok,2,0,0.000,1,-0.15,-0.42,11.06,14,0.114,8.23
1.1649,-0.04887,-0.00873,0.09250,0.00000,0.00000,0.00000,50,-10,51,6,74,15,47,7,ok,2,0,0.000,1,-0.15,-0.42,11.06,14,0.127,8.23
1.1852,-0.04887,-0.00873,0.09250,0.00000,0.00000,0.00000,48,-10,52,6,73,12,48,8,ok,2,0,0.000,1,-0.15,-0.42,11.06,14,0.139,8.23
1.1900,-0.04887,-0.00873,0.09250,0.00000,0.00000,0.00000,48,-10,53,6,72,10,49,8,ok,2,0,0.000,1,-0.15,-0.42,11.06,14,0.152,8.23
1.2027,-0.04887,-0.00873,0.09250,0.00000,0.00000,0.00000,46,-10,54,7,72,7,49,9,ok,2,0,0.000,1,-0.15,-0.42,11.06,14,0.164,8.23
1.2292,-0.04887,-0.00873,0.09250,0.00000,0.00000,0.00000,44,-11,56,7,71,5,50,8,ok,2,0,0.000,1,-0.15,-0.42,11.06,14,0.177,8.23
1.2326,-0.02618,-0.04538,0.09250,0.00000,0.00000,0.00000,44,-10,56,7,70,4,51,9,ok,2,0,0.000,1,-0.01,-0.26,8.77,15,0.000,8.23
1.2450,-0.02618,-0.04538,0.09250,0.00000,0.00000,0.00000,42,-8,57,7,69,1,52,8,ok,2,0,0.000,1,-0.01,-0.26,8.77,15,0.013,8.23
1.2652,-0.02618,-0.04538,0.09250,0.00000,0.00000,0.00000,40,-7,57,8,66,2,52,8,ok,2,0,0.000,1,-0.01,-0.26,8.77,15,0.025,8.23
1.2700,-0.02618,-0.04538,0.09250,0.00000,0.00000,0.00000,38,-5,58,7,65,-1,52,8,ok,2,0,0.000,1,-0.01,-0.26,8.77,15,0.038,8.23
1.2828,-0.02618,-0.04538,0.09250,0.00000,0.00000,0.00000,37,-4,59,8,63,-2,54,9,ok,2,0,0.000,1,-0.01,-0.26,8.77,15,0.050,8.23
1.3052,-0.02618,-0.04538,0.09250,0.00000,0.00000,0.00000,35,-1,59,9,61,-4,55,8,ok,2,0,0.000,1,-0.01,-0.26,8.77,15,0.063,8.23
1.3084,-0.02618,-0.04538,0.09250,0.00000,0.00000,0.00000,35,-1,60,10,60,-5,54,8,ok,2,0,0.000,1,-0.01,-0.26,8.77,15,0.076,8.23
1.3210,-0.02618,-0.04538,0.09250,0.00000,0.00000,0.00000,34,0,61,10,58,-5,57,6,ok,2,0,0.000,1,-0.01,-0.26,8.77,15,0.089,8.23
1.3411,-0.02618,-0.04538,0.09250,0.00000,0.00000,0.00000,34,3,61,11,55,-6,57,7,ok,2,0,0.000,1,-0.01,-0.26,8.77,15,0.101,8.23
1.3459,-0.02618,-0.04538,0.09250,0.00000,0.00000,0.00000,32,6,61,11,54,-7,58,8,ok,2,0,0.000,1,-0.01,-0.26,8.77,15,0.114,8.23
1.3587,-0.02618,-0.04538,0.09250,0.00000,0.00000,0.00000,32,9,61,12,51,-6,58,9,ok,2,0,0.000,1,-0.01,-0.26,8.77,15,0.126,8.23
1.3812,-0.02618,-0.04538,0.09250,0.00000,0.00000,0.00000,32,11,62,11,48,-6,59,9,ok,2,0,0.000,1,-0.01,-0.26,8.77,15,0.139,8.23
1.3844,-0.02618,-0.04538,0.09250,0.00000,0.00000,0.00000,32,12,62,13,45,-6,60,10,ok,2,0,0.000,1,-0.01,-0.26,8.77,15,0.152,8.23
1.3970,-0.02618,-0.04538,0.09250,0.00000,0.00000,0.00000,32,11,62,13,42,-5,60,10,ok,4,0,0.000,1,-0.01,-0.26,8.77,15,0.165,8.23
1.4171,-0.02618,-0.04538,0.09250,0.00000,0.00000,0.00000,33,10,62,14,40,-5,60,11,ok,4,0,0.000,1,-0.01,-0.26,8.77,15,0.177,8.23
1.4221,-0.02618,-0.04538,0.09250,0.00000,0.00000,0.00000,34,9,62,14,37,-4,61,12,ok,4,0,0.000,1,-0.01,-0.26,8.77,15,0.190,8.23
1.4348,-0.02618,-0.04538,0.09250,0.00000,0.00000,0.00000,34,9,63,15,34,-3,61,13,ok,4,0,0.000,1,-0.01,-0.26,8.77,15,0.202,8.23
1.4572,-0.06981,0.00175,0.09948,0.00000,0.00000,0.00000,36,8,63,16,31,-2,61,13,ok,4,0,0.000,1,-0.94,-1.04,10.49,16,0.000,8.23
1.4604,-0.06981,0.00175,0.09948,0.00000,0.00000,0.00000,36,7,63,17,29,-1,62,14,ok,4,0,0.000,1,-0.94,-1.04,10.49,16,0.013,8.23
1.4730,-0.06981,0.00175,0.09948,0.00000,0.00000,0.00000,36,6,64,18,27,1,62,15,ok,4,0,0.000,1,-0.94,-1.04,10.49,16,0.026,8.23
1.4931,-0.06981,0.00175,0.09948,0.00000,0.00000,0.00000,37,5,64,19,25,4,63,15,ok,4,0,0.000,1,-0.94,-1.04,10.49,16,0.038,8.23
1.4980,-0.06981,0.00175,0.09948,0.00000,0.00000,0.00000,38,5,64,21,24,7,63,16,ok,4,0,0.000,1,-0.94,-1.04,10.49,16,0.051,8.23
1.5106,-0.06981,0.00175,0.09948,0.00000,0.00000,0.00000,38,4,64,22,23,11,63,18,ok,4,0,0.000,1,-0.94,-1.04,10.49,16,0.064,8.23
1.5332,-0.06981,0.00175,0.09948,0.00000,0.00000,0.00000,38,3,64,23,22,14,64,18,ok,4,0,0.000,1,-0.94,-1.04,10.49,16,0.076,8.23
1.5366,-0.06981,0.00175,0.09948,0.00000,0.00000,0.00000,39,3,63,26,24,13,64,19,ok,4,0,0.000,1,-0.94,-1.04,10.49,16,0.089,8.23
1.5490,-0.06981,0.00175,0.09948,0.00000,0.00000,0.00000,40,2,63,27,24,13,64,20,ok,4,0,0.000,1,-0.94,-1.04,10.49,16,0.102,8.23
1.5691,-0.06981,0.00175,0.09948,0.00000,0.00000,0.00000,40,2,64,26,25,11,64,21,ok,4,0,0.000,2,-0.94,-1.04,10.49,16,0.114,8.23
1.5740,-0.06981,0.00175,0.09948,0.00000,0.00000,0.00000,40,2,67,23,26,10,65,22,ok,4,0,0.000,2,-0.94,-1.04,10.49,16,0.127,8.23
1.5866,-0.06981,0.00175,0.09948,0.00000,0.00000,0.00000,41,1,69,19,27,10,65,23,ok,4,0,0.000,2,-0.94,-1.04,10.49,16,0.140,8.23
1.6092,-0.06981,0.00175,0.09948,0.00000,0.00000,0.00000,42,2,70,15,29,10,64,24,ok,4,0,0.000,2,-0.94,-1.04,10.49,16,0.152,8.23
1.6126,-0.06981,0.00175,0.09948,0.00000,0.00000,0.00000,42,2,71,12,30,9,64,26,ok,4,0,0.000,2,-0.94,-1.04,10.49,16,0.165,8.23
1.6250,-0.06981,0.00175,0.09948,0.00000,0.00000,0.00000,44,2,70,12,33,9,65,26,ok,4,0,0.000,2,-0.94,-1.04,10.49,16,0.178,8.23
1.6452,-0.06981,0.00175,0.09948,0.00000,0.00000,0.00000,44,2,70,8,33,9,64,29,ok,4,0,0.000,2,-0.94,-1.04,10.49,16,0.191,8.23
1.6503,-0.13788,-0.01571,0.10996,0.00000,0.00000,0.00000,45,3,69,5,35,9,64,30,ok,4,0,0.000,2,0.06,-1.97,10.80,17,0.000,8.23
1.6628,-0.13788,-0.01571,0.10996,0.00000,0.00000,0.00000,46,3,69,3,36,8,64,31,ok,4,0,0.000,2,0.06,-1.97,10.80,17,0.013,8.23
1.6852,-0.13788,-0.01571,0.10996,0.00000,0.00000,0.00000,46,3,67,0,37,8,64,33,ok,4,0,0.000,2,0.06,-1.97,10.80,17,0.025,8.23
1.6884,-0.13788,-0.01571,0.10996,0.00000,0.00000,0.00000,47,2,66,-2,38,7,64,35,ok,4,0,0.000,2,0.06,-1.97,10.80,17,0.038,8.23
1.7010,-0.13788,-0.01571,0.10996,0.00000,0.00000,0.00000,48,2,64,-3,39,7,63,36,ok,4,0,0.000,2,0.06,-1.97,10.80,17,0.051,8.23
1.7211,-0.13788,-0.01571,0.10996,0.00000,0.00000,0.00000,48,2,62,-4,40,6,65,36,ok,4,0,0.000,2,0.06,-1.97,10.80,17,0.064,8.23
1.7260,-0.13788,-0.01571,0.10996,0.00000,0.00000,0.00000,48,3,61,-5,42,7,66,35,ok,4,0,0.000,2,0.06,-1.97,10.80,17,0.076,8.23
1.7386,-0.13788,-0.01571,0.10996,0.00000,0.00000,0.00000,49,3,60,-8,43,7,68,33,ok,4,0,0.000,2,0.06,-1.97,10.80,17,0.089,8.23
1.7612,-0.13788,-0.01571,0.10996,0.00000,0.00000,0.00000,50,3,58,-8,44,7,69,28,ok,4,0,0.000,2,0.06,-1.97,10.80,17,0.101,8.23
1.7644,-0.13788,-0.01571,0.10996,0.00000,0.00000,0.00000,50,3,56,-9,45,7,70,24,ok,4,0,0.000,2,0.06,-1.97,10.80,17,0.114,8.23
1.7770,-0.13788,-0.01571,0.10996,0.00000,0.00000,0.00000,50,3,54,-9,46,7,72,21,ok,4,0,0.000,2,0.06,-1.97,10.80,17,0.127,8.23
1.7972,-0.13788,-0.01571,0.10996,0.00000,0.00000,0.00000,50,5,51,-10,47,7,72,21,ok,4,0,0.001,2,0.06,-1.97,10.80,17,0.139,8.23
1.8021,-0.13788,-0.01571,0.10996,0.00000,0.00000,0.00000,51,6,49,-10,47,7,72,19,ok,4,0,0.001,2,0.06,-1.97,10.80,17,0.152,8.23
1.8145,-0.13788,-0.01571,0.10996,0.00000,0.00000,0.00000,52,6,46,-10,48,7,72,15,ok,4,0,0.001,2,0.06,-1.97,10.80,17,0.164,8.23
1.8372,-0.13788,-0.01571,0.10996,0.00000,0.00000,0.00000,52,7,44,-10,49,7,72,12,ok,4,0,0.001,2,0.06,-1.97,10.80,17,0.177,8.23
1.8404,-0.13788,-0.01571,0.10996,0.00000,0.00000,0.00000,52,7,42,-10,49,7,71,11,ok,4,0,0.001,2,0.06,-1.97,10.80,17,0.190,8.23
1.8533,-0.02094,0.01745,0.09250,0.00000,0.00000,0.00000,54,7,39,-10,50,7,71,7,ok,2,0,0.001,2,0.19,-0.33,9.59,18,0.000,8.23
1.8731,-0.02094,0.01745,0.09250,0.00000,0.00000,0.00000,54,8,37,-10,52,7,70,6,ok,2,0,0.001,2,0.19,-0.33,9.59,18,0.013,8.23
1.8780,-0.02094,0.01745,0.09250,0.00000,0.00000,0.00000,54,8,33,-9,52,7,69,4,ok,2,0,0.001,2,0.19,-0.33,9.59,18,0.025,8.23
1.8905,-0.02094,0.01745,0.09250,0.00000,0.00000,0.00000,54,9,31,-8,53,8,67,2,ok,2,0,0.001,2,0.19,-0.33,9.59,18,0.038,8.23
1.9132,-0.02094,0.01745,0.09250,0.00000,0.00000,0.00000,54,9,27,-7,54,8,65,2,ok,2,0,0.001,2,0.19,-0.33,9.59,18,0.050,8.23
1.9164,-0.02094,0.01745,0.09250,0.00000,0.00000,0.00000,54,10,24,-5,55,8,64,0,ok,2,0,0.001,2,0.19,-0.33,9.59,18,0.063,8.23
1.9290,-0.02094,0.01745,0.09250,0.00000,0.00000,0.00000,55,11,21,-3,56,8,63,-2,ok,2,0,0.001,2,0.19,-0.33,9.59,18,0.076,8.23
1.9491,-0.02094,0.01745,0.09250,0.00000,0.00000,0.00000,55,11,19,-2,58,6,61,-3,ok,2,0,0.001,2,0.19,-0.33,9.59,18,0.089,8.23
1.9540,-0.02094,0.01745,0.09250,0.00000,0.00000,0.00000,56,10,18,0,58,7,59,-4,ok,2,0,0.001,2,0.19,-0.33,9.59,18,0.101,8.23
1.9665,-0.02094,0.01745,0.09250,0.00000,0.00000,0.00000,56,11,16,2,59,8,58,-5,ok,2,0,0.001,2,0.19,-0.33,9.59,18,0.114,8.23
1.9892,-0.02094,0.01745,0.09250,0.00000,0.00000,0.00000,56,11,15,6,59,8,55,-6,ok,2,0,0.001,2,0.19,-0.33,9.59,18,0.126,8.23
1.9923,-0.02094,0.01745,0.09250,0.00000,0.00000,0.00000,56,12,13,9,60,9,53,-6,ok,2,0,0.001,2,0.19,-0.33,9.59,18,0.139,8.23
2.0049,-0.02094,0.01745,0.09250,0.00000,0.00000,0.00000,56,12,12,11,60,9,50,-5,ok,2,0,0.001,2,0.19,-0.33,9.59,18,0.152,8.23
2.0251,-0.02094,0.01745,0.09250,0.00000,0.00000,0.00000,56,13,14,12,60,10,48,-5,ok,2,0,0.001,2,0.19,-0.33,9.59,18,0.165,8.23
2.0300,-0.02094,0.01745,0.09250,0.00000,0.00000,0.00000,56,13,15,11,61,11,45,-5,ok,2,0,0.001,2,0.19,-0.33,9.59,18,0.177,8.23
2.0428,-0.02094,0.01745,0.09250,0.00000,0.00000,0.00000,56,14,17,10,61,11,42,-4,ok,2,0,0.001,2,0.19,-0.33,9.59,18,0.190,8.23
2.0652,0.05411,0.02269,0.07854,0.00000,0.00000,0.00000,56,15,19,9,61,12,40,-4,ok,2,0,0.001,2,0.43,0.71,10.05,19,0.000,8.23
2.0683,0.05411,0.02269,0.07854,0.00000,0.00000,0.00000,56,15,19,8,61,13,37,-3,ok,2,0,0.001,2,0.43,0.71,10.05,19,0.013,8.23
2.0809,0.05411,0.02269,0.07854,0.00000,0.00000,0.00000,56,16,21,7,62,13,34,-3,ok,2,0,0.001,2,0.43,0.71,10.05,19,0.026,8.23
2.1011,0.05411,0.02269,0.07854,0.00000,0.00000,0.00000,56,18,21,7,62,14,30,-1,ok,2,0,0.001,2,0.43,0.71,10.05,19,0.039,8.23
2.1061,0.05411,0.02269,0.07854,0.00000,0.00000,0.00000,58,19,23,6,63,14,29,0,ok,2,0,0.001,2,0.43,0.71,10.05,19,0.051,8.23
2.1185,0.05411,0.02269,0.07854,0.00000,0.00000,0.00000,58,20,24,5,63,16,27,1,ok,2,0,0.001,2,0.43,0.71,10.05,19,0.064,8.23
2.1412,0.05411,0.02269,0.07854,0.00000,0.00000,0.00000,58,21,24,4,63,16,25,5,ok,2,0,0.001,2,0.43,0.71,10.05,19,0.076,8.23
2.1443,0.05411,0.02269,0.07854,0.00000,0.00000,0.00000,58,23,25,3,63,17,24,7,ok,2,0,0.001,2,0.43,0.71,10.05,19,0.089,8.23
2.1569,0.05411,0.02269,0.07854,0.00000,0.00000,0.00000,58,23,26,2,64,18,23,11,ok,2,0,0.001,2,0.43,0.71,10.05,19,0.102,8.23
2.1771,0.05411,0.02269,0.07854,0.00000,0.00000,0.00000,57,26,27,2,64,19,22,13,ok,2,0,0.001,2,0.43,0.71,10.05,19,0.115,8.23
2.1820,0.05411,0.02269,0.07854,0.00000,0.00000,0.00000,57,27,28,2,64,20,24,12,ok,2,0,0.001,2,0.43,0.71,10.05,19,0.127,8.23
2.1947,0.05411,0.02269,0.07854,0.00000,0.00000,0.00000,58,25,29,2,64,21,24,11,ok,2,0,0.001,2,0.43,0.71,10.05,19,0.140,8.23
2.2172,0.05411,0.02269,0.07854,0.00000,0.00000,0.00000,58,21,30,2,65,22,25,10,ok,2,0,0.001,2,0.43,0.71,10.05,19,0.152,8.23
2.2204,0.05411,0.02269,0.07854,0.00000,0.00000,0.00000,60,18,31,1,64,24,26,9,ok,2,0,0.001,2,0.43,0.71,10.05,19,0.165,8.23
2.2330,0.05411,0.02269,0.07854,0.00000,0.00000,0.00000,60,13,33,2,64,25,27,10,ok,2,0,0.001,2,0.43,0.71,10.05,19,0.178,8.23
2.2532,0.05411,0.02269,0.07854,0.00000,0.00000,0.00000,60,11,34,2,65,26,29,9,ok,2,0,0.001,2,0.43,0.71,10.05,19,0.191,8.23
2.2582,-0.02967,0.00873,0.10472,0.00000,0.00000,0.00000,60,11,36,2,64,28,30,9,ok,2,0,0.001,2,0.84,-1.29,9.86,20,0.000,8.23
2.2707,-0.02967,0.00873,0.10472,0.00000,0.00000,0.00000,60,7,37,2,64,29,32,9,ok,2,0,0.001,2,0.84,-1.29,9.86,20,0.013,8.23
2.2932,-0.02967,0.00873,0.10472,0.00000,0.00000,0.00000,60,5,39,3,64,30,33,9,ok,2,0,0.001,2,0.84,-1.29,9.86,20,0.025,8.23
2.2964,-0.02967,0.00873,0.10472,0.00000,0.00000,0.00000,60,2,40,3,64,32,35,8,ok,2,0,0.001,2,0.84,-1.29,9.86,20,0.038,8.23
2.3093,-0.02967,0.00873,0.10472,0.00000,0.00000,0.00000,59,-1,42,3,63,34,36,8,ok,2,0,0.001,2,0.84,-1.29,9.86,20,0.051,8.23
2.3292,-0.02967,0.00873,0.10472,0.00000,0.00000,0.00000,58,-3,43,3,63,35,37,8,ok,2,0,0.001,2,0.84,-1.29,9.86,20,0.064,8.23
2.3340,-0.02967,0.00873,0.10472,0.00000,0.00000,0.00000,58,-4,44,3,64,35,38,8,ok,2,0,0.001,2,0.84,-1.29,9.86,20,0.076,8.23
2.3465,-0.02967,0.00873,0.10472,0.00000,0.00000,0.00000,56,-5,44,3,65,35,39,8,ok,2,0,0.001,2,0.84,-1.29,9.86,20,0.089,8.23
2.3692,-0.02967,0.00873,0.10472,0.00000,0.00000,0.00000,56,-7,46,3,67,33,41,7,ok,2,0,0.001,2,0.84,-1.29,9.86,20,0.101,8.23
2.3724,-0.02967,0.00873,0.10472,0.00000,0.00000,0.00000,56,-9,47,3,69,29,42,7,ok,2,0,0.001,2,0.84,-1.29,9.86,20,0.114,8.23
2.3852,-0.02967,0.00873,0.10472,0.00000,0.00000,0.00000,54,-9,48,4,71,24,43,7,ok,2,0,0.001,2,0.84,-1.29,9.86,20,0.127,8.23
2.4051,-0.02967,0.00873,0.10472,0.00000,0.00000,0.00000,54,-10,49,4,72,21,44,7,ok,2,0,0.001,2,0.84,-1.29,9.86,20,0.140,8.23
2.4100,-0.02967,0.00873,0.10472,0.00000,0.00000,0.00000,52,-10,50,4,73,21,45,7,ok,2,0,0.001,2,0.84,-1.29,9.86,20,0.152,8.23
2.4225,-0.02967,0.00873,0.10472,0.00000,0.00000,0.00000,51,-11,50,6,73,18,46,7,ok,2,0,0.001,2,0.84,-1.29,9.86,20,0.165,8.23
2.4452,-0.02967,0.00873,0.10472,0.00000,0.00000,0.00000,50,-11,51,6,73,15,47,8,ok,2,0,0.001,2,0.84,-1.29,9.86,20,0.177,8.23
2.4484,-0.02967,0.00873,0.10472,0.00000,0.00000,0.00000,48,-11,52,6,73,12,48,8,ok,2,0,0.001,2,0.84,-1.29,9.86,20,0.190,8.23
2.4613,0.01222,-0.00524,0.10996,0.00000,0.00000,0.00000,48,-10,53,6,73,10,49,8,ok,2,0,0.001,2,-0.33,0.40,9.70,21,0.000,8.23
2.4811,0.01222,-0.00524,0.10996,0.00000,0.00000,0.00000,46,-10,53,7,72,7,49,9,ok,2,0,0.001,2,-0.33,0.40,9.70,21,0.013,8.23
2.4860,0.01222,-0.00524,0.10996,0.00000,0.00000,0.00000,44,-10,56,7,72,5,50,8,ok,2,0,0.001,2,-0.33,0.40,9.70,21,0.025,8.23
2.4985,0.01222,-0.00524,0.10996,0.00000,0.00000,0.00000,44,-9,56,7,71,4,51,9,ok,2,0,0.001,2,-0.33,0.40,9.70,21,0.038,8.23
2.5212,0.01222,-0.00524,0.10996,0.00000,0.00000,0.00000,42,-8,57,7,69,1,52,7,ok,2,0,0.001,2,-0.33,0.40,9.70,21,0.050,8.23
2.5244,0.01222,-0.00524,0.10996,0.00000,0.00000,0.00000,40,-7,57,8,66,2,52,8,ok,2,0,0.001,2,-0.33,0.40,9.70,21,0.063,8.23
2.5370,0.01222,-0.00524,0.10996,0.00000,0.00000,0.00000,38,-5,58,7,65,-1,52,8,ok,2,0,0.001,2,-0.33,0.40,9.70,21,0.076,8.23
2.5571,0.01222,-0.00524,0.10996,0.00000,0.00000,0.00000,37,-3,59,8,64,-2,54,9,ok,2,0,0.001,2,-0.33,0.40,9.70,21,0.089,8.23
2.5620,0.01222,-0.00524,0.10996,0.00000,0.00000,0.00000,35,-1,59,9,61,-4,55,8,ok,2,0,0.001,3,-0.33,0.40,9.70,21,0.101,8.23
2.5746,0.01222,-0.00524,0.10996,0.00000,0.00000,0.00000,35,-1,60,10,60,-5,54,8,ok,2,0,0.001,3,-0.33,0.40,9.70,21,0.114,8.23
2.5972,0.01222,-0.00524,0.10996,0.00000,0.00000,0.00000,34,0,61,10,58,-5,56,6,ok,2,0,0.001,3,-0.33,0.40,9.70,21,0.126,8.23
2.6004,0.01222,-0.00524,0.10996,0.00000,0.00000,0.00000,33,2,61,11,55,-6,57,7,ok,2,0,0.001,3,-0.33,0.40,9.70,21,0.139,8.23
2.6132,0.01222,-0.00524,0.10996,0.00000,0.00000,0.00000,32,5,61,11,54,-7,58,8,ok,2,0,0.001,3,-0.33,0.40,9.70,21,0.152,8.23
2.6332,0.01222,-0.00524,0.10996,0.00000,0.00000,0.00000,32,8,61,12,51,-6,58,8,ok,2,0,0.001,3,-0.33,0.40,9.70,21,0.165,8.23
2.6380,0.01222,-0.00524,0.10996,0.00000,0.00000,0.00000,31,11,62,12,48,-6,59,9,ok,2,0,0.001,3,-0.33,0.40,9.70,21,0.177,8.23
2.6505,0.01222,-0.00524,0.10996,0.00000,0.00000,0.00000,32,11,62,13,45,-6,60,10,ok,2,0,0.001,3,-0.33,0.40,9.70,21,0.190,8.23
2.6732,-0.02443,0.04014,0.13439,0.00000,0.00000,0.00000,32,11,61,14,42,-5,59,10,ok,2,0,0.001,3,1.58,-0.29,11.12,22,0.000,8.23
2.6763,-0.02443,0.04014,0.13439,0.00000,0.00000,0.00000,33,10,62,14,40,-5,60,11,ok,2,0,0.001,3,1.58,-0.29,11.12,22,0.013,8.23
2.6890,-0.02443,0.04014,0.13439,0.00000,0.00000,0.00000,34,9,62,15,37,-4,61,11,ok,2,0,0.001,3,1.58,-0.29,11.12,22,0.026,8.23
2.7091,-0.02443,0.04014,0.13439,0.00000,0.00000,0.00000,34,8,62,15,34,-3,61,13,ok,2,0,0.001,3,1.58,-0.29,11.12,22,0.039,8.23
2.7140,-0.02443,0.04014,0.13439,0.00000,0.00000,0.00000,35,7,63,16,31,-2,61,13,ok,2,0,0.001,3,1.58,-0.29,11.12,22,0.051,8.23
2.7267,-0.02443,0.04014,0.13439,0.00000,0.00000,0.00000,36,7,63,17,29,0,62,14,ok,4,0,0.001,3,1.58,-0.29,11.12,22,0.064,8.23
2.7492,-0.02443,0.04014,0.13439,0.00000,0.00000,0.00000,36,6,64,18,28,1,62,15,ok,4,0,0.001,3,1.58,-0.29,11.12,22,0.076,8.23
2.7524,-0.02443,0.04014,0.13439,0.00000,0.00000,0.00000,37,5,64,19,25,5,63,15,ok,4,0,0.001,3,1.58,-0.29,11.12,22,0.089,8.23
2.7650,-0.02443,0.04014,0.13439,0.00000,0.00000,0.00000,37,4,64,21,24,8,63,16,ok,4,0,0.001,3,1.58,-0.29,11.12,22,0.102,8.23
2.7851,-0.02443,0.04014,0.13439,0.00000,0.00000,0.00000,38,4,64,22,23,11,63,18,ok,4,0,0.001,3,1.58,-0.29,11.12,22,0.115,8.23
2.7902,-0.02443,0.04014,0.13439,0.00000,0.00000,0.00000,38,3,64,23,22,14,64,18,ok,4,0,0.001,3,1.58,-0.29,11.12,22,0.127,8.23
2.8025,-0.02443,0.04014,0.13439,0.00000,0.00000,0.00000,39,3,63,26,24,13,64,19,ok,4,0,0.001,3,1.58,-0.29,11.12,22,0.140,8.23
2.8252,-0.02443,0.04014,0.13439,0.00000,0.00000,0.00000,39,2,63,27,24,13,64,19,ok,4,0,0.001,3,1.58,-0.29,11.12,22,0.152,8.23
2.8284,-0.02443,0.04014,0.13439,0.00000,0.00000,0.00000,40,2,64,25,25,11,64,21,ok,4,0,0.001,3,1.58,-0.29,11.12,22,0.165,8.23
2.8410,-0.02443,0.04014,0.13439,0.00000,0.00000,0.00000,40,2,67,22,27,11,65,21,ok,4,0,0.001,3,1.58,-0.29,11.12,22,0.178,8.23
2.8612,-0.02443,0.04014,0.13439,0.00000,0.00000,0.00000,41,1,69,19,28,11,65,22,ok,4,0,0.001,3,1.58,-0.29,11.12,22,0.191,8.23
2.8662,-0.07330,-0.01047,0.11868,0.00000,0.00000,0.00000,42,1,70,15,29,10,64,24,ok,4,0,0.001,3,-0.69,-1.29,8.91,23,0.000,8.23
2.8785,-0.07330,-0.01047,0.11868,0.00000,0.00000,0.00000,42,1,70,12,30,9,65,26,ok,4,0,0.001,3,-0.69,-1.29,8.91,23,0.013,8.23
2.9012,-0.07330,-0.01047,0.11868,0.00000,0.00000,0.00000,44,1,70,12,33,9,65,26,ok,4,0,0.001,3,-0.69,-1.29,8.91,23,0.025,8.23
2.9044,-0.07330,-0.01047,0.11868,0.00000,0.00000,0.00000,44,1,70,8,33,9,65,28,ok,4,0,0.001,3,-0.69,-1.29,8.91,23,0.038,8.23
2.9171,-0.07330,-0.01047,0.11868,0.00000,0.00000,0.00000,45,2,69,6,35,9,64,30,ok,4,0,0.001,3,-0.69,-1.29,8.91,23,0.051,8.23
2.9371,-0.07330,-0.01047,0.11868,0.00000,0.00000,0.00000,46,2,69,3,36,8,64,31,ok,4,0,0.001,3,-0.69,-1.29,8.91,23,0.064,8.23
2.9419,-0.07330,-0.01047,0.11868,0.00000,0.00000,0.00000,46,2,68,0,37,9,64,33,ok,4,0,0.001,3,-0.69,-1.29,8.91,23,0.076,8.23
2.9547,-0.07330,-0.01047,0.11868,0.00000,0.00000,0.00000,47,2,66,-2,38,8,64,34,ok,4,0,0.001,3,-0.69,-1.29,8.91,23,0.089,8.23
2.9772,-0.07330,-0.01047,0.11868,0.00000,0.00000,0.00000,48,2,65,-3,39,8,63,36,ok,4,0,0.001,3,-0.69,-1.29,8.91,23,0.101,8.23
2.9803,-0.07330,-0.01047,0.11868,0.00000,0.00000,0.00000,48,2,63,-4,41,7,64,36,ok,4,0,0.001,3,-0.69,-1.29,8.91,23,0.114,8.23
2.9930,-0.07330,-0.01047,0.11868,0.00000,0.00000,0.00000,48,3,61,-6,42,7,65,35,ok,4,0,0.001,3,-0.69,-1.29,8.91,23,0.127,8.23
3.0131,-0.07330,-0.01047,0.11868,0.00000,0.00000,0.00000,49,3,60,-8,43,7,67,33,ok,4,0,0.001,3,-0.69,-1.29,8.91,23,0.140,8.23
3.0180,-0.07330,-0.01047,0.11868,0.00000,0.00000,0.00000,50,4,58,-8,44,7,69,27,ok,4,0,0.001,3,-0.69,-1.29,8.91,23,0.152,8.23
3.0307,-0.07330,-0.01047,0.11868,0.00000,0.00000,0.00000,50,3,56,-9,44,7,70,24,ok,4,0,0.001,3,-0.69,-1.29,8.91,23,0.165,8.23
3.0532,-0.07330,-0.01047,0.11868,0.00000,0.00000,0.00000,50,3,54,-9,46,7,72,21,ok,4,0,0.001,3,-0.69,-1.29,8.91,23,0.177,8.23
3.0563,-0.07330,-0.01047,0.11868,0.00000,0.00000,0.00000,50,5,51,-10,47,7,72,20,ok,2,0,0.001,3,-0.69,-1.29,8.91,23,0.190,8.23
3.0693,-0.11519,-0.01920,0.15533,0.00000,0.00000,0.00000,51,6,49,-10,47,7,72,18,ok,2,0,0.001,3,-0.22,-1.97,10.22,24,0.000,8.23
3.0891,-0.11519,-0.01920,0.15533,0.00000,0.00000,0.00000,52,6,46,-10,48,7,73,15,ok,2,0,0.001,3,-0.22,-1.97,10.22,24,0.013,8.23
3.0940,-0.11519,-0.01920,0.15533,0.00000,0.00000,0.00000,52,6,44,-9,49,7,72,12,ok,2,0,0.001,3,-0.22,-1.97,10.22,24,0.025,8.23
3.1065,-0.11519,-0.01920,0.15533,0.00000,0.00000,0.00000,52,7,42,-10,49,7,72,11,ok,2,0,0.001,3,-0.22,-1.97,10.22,24,0.038,8.23
3.1292,-0.11519,-0.01920,0.15533,0.00000,0.00000,0.00000,54,7,39,-10,50,7,71,7,ok,2,0,0.001,3,-0.22,-1.97,10.22,24,0.050,8.23
3.1324,-0.11519,-0.01920,0.15533,0.00000,0.00000,0.00000,54,7,37,-9,51,6,71,6,ok,2,0,0.001,3,-0.22,-1.97,10.22,24,0.063,8.23
3.1450,-0.11519,-0.01920,0.15533,0.00000,0.00000,0.00000,54,7,33,-8,52,7,70,4,ok,2,0,0.001,3,-0.22,-1.97,10.22,24,0.076,8.23
3.1651,-0.11519,-0.01920,0.15533,0.00000,0.00000,0.00000,54,8,31,-7,52,7,68,2,ok,2,0,0.001,3,-0.22,-1.97,10.22,24,0.089,8.23
3.1699,-0.11519,-0.01920,0.15533,0.00000,0.00000,0.00000,54,8,27,-6,53,8,66,2,ok,2,0,0.001,3,-0.22,-1.97,10.22,24,0.101,8.23
3.1825,-0.11519,-0.01920,0.15533,0.00000,0.00000,0.00000,54,9,25,-4,54,8,65,0,ok,2,0,0.001,3,-0.22,-1.97,10.22,24,0.114,8.23
3.2052,-0.11519,-0.01920,0.15533,0.00000,0.00000,0.00000,55,10,21,-2,55,8,64,-2,ok,2,0,0.001,3,-0.22,-1.97,10.22,24,0.126,8.23
3.2084,-0.11519,-0.01920,0.15533,0.00000,0.00000,0.00000,56,10,19,-1,58,6,62,-3,ok,2,0,0.001,3,-0.22,-1.97,10.22,24,0.139,8.23
3.2209,-0.11519,-0.01920,0.15533,0.00000,0.00000,0.00000,56,10,18,0,58,7,60,-4,ok,2,0,0.001,3,-0.22,-1.97,10.22,24,0.152,8.23
3.2411,-0.11519,-0.01920,0.15533,0.00000,0.00000,0.00000,56,11,16,3,58,8,58,-4,ok,2,0,0.001,3,-0.22,-1.97,10.22,24,0.165,8.23
3.2460,-0.11519,-0.01920,0.15533,0.00000,0.00000,0.00000,56,11,15,6,59,8,55,-5,ok,2,0,0.001,3,-0.22,-1.97,10.22,24,0.177,8.23
3.2586,-0.11519,-0.01920,0.15533,0.00000,0.00000,0.00000,56,12,13,9,59,9,53,-6,ok,2,0,0.001,3,-0.22,-1.97,10.22,24,0.190,8.23
3.2812,0.00000,0.05760,0.08727,0.00000,0.00000,0.00000,56,12,13,11,60,9,50,-5,ok,2,0,0.001,3,0.69,-0.22,7.93,25,0.000,8.23
3.2846,0.00000,0.05760,0.08727,0.00000,0.00000,0.00000,56,13,14,12,60,10,47,-5,ok,2,0,0.001,3,0.69,-0.22,7.93,25,0.013,8.23
3.2970,0.00000,0.05760,0.08727,0.00000,0.00000,0.00000,56,14,15,11,61,11,45,-5,ok,2,0,0.001,3,0.69,-0.22,7.93,25,0.026,8.23
3.3171,0.00000,0.05760,0.08727,0.00000,0.00000,0.00000,56,14,17,10,61,11,42,-4,ok,2,0,0.001,3,0.69,-0.22,7.93,25,0.039,8.23
3.3220,0.00000,0.05760,0.08727,0.00000,0.00000,0.00000,56,16,19,9,62,12,40,-4,ok,2,0,0.001,3,0.69,-0.22,7.93,25,0.051,8.23
3.3348,0.00000,0.05760,0.08727,0.00000,0.00000,0.00000,56,16,19,8,61,12,36,-3,ok,2,0,0.001,3,0.69,-0.22,7.93,25,0.064,8.23
3.3572,0.00000,0.05760,0.08727,0.00000,0.00000,0.00000,56,17,21,7,62,13,34,-3,ok,2,0,0.001,3,0.69,-0.22,7.93,25,0.076,8.23
3.3605,0.00000,0.05760,0.08727,0.00000,0.00000,0.00000,56,18,21,7,62,14,31,-1,ok,2,0,0.001,3,0.69,-0.22,7.93,25,0.089,8.23
3.3730,0.00000,0.05760,0.08727,0.00000,0.00000,0.00000,58,20,23,6,63,14,30,0,ok,2,0,0.001,3,0.69,-0.22,7.93,25,0.102,8.23
3.3932,0.00000,0.05760,0.08727,0.00000,0.00000,0.00000,58,21,24,5,63,15,27,1,ok,2,0,0.001,3,0.69,-0.22,7.93,25,0.115,8.23
3.3981,0.00000,0.05760,0.08727,0.00000,0.00000,0.00000,58,21,24,4,63,16,25,5,ok,2,0,0.001,3,0.69,-0.22,7.93,25,0.127,8.23
3.4108,0.00000,0.05760,0.08727,0.00000,0.00000,0.00000,58,22,25,4,63,17,24,7,ok,2,0,0.001,3,0.69,-0.22,7.93,25,0.140,8.23
3.4332,0.00000,0.05760,0.08727,0.00000,0.00000,0.00000,58,23,25,3,64,18,23,11,ok,2,0,0.001,3,0.69,-0.22,7.93,25,0.152,8.23
3.4363,0.00000,0.05760,0.08727,0.00000,0.00000,0.00000,57,26,27,3,64,19,23,13,ok,2,0,0.001,3,0.69,-0.22,7.93,25,0.165,8.23
3.4490,0.00000,0.05760,0.08727,0.00000,0.00000,0.00000,57,26,27,2,64,20,25,12,ok,2,0,0.001,3,0.69,-0.22,7.93,25,0.178,8.23
3.4692,0.00000,0.05760,0.08727,0.00000,0.00000,0.00000,58,25,29,2,64,21,25,11,ok,2,0,0.001,3,0.69,-0.22,7.93,25,0.191,8.23
3.4742,-0.12043,0.08552,0.12217,0.00000,0.00000,0.00000,58,21,30,2,65,22,25,10,ok,2,0,0.001,3,-0.99,-2.08,9.98,26,0.000,8.23
3.4868,-0.12043,0.08552,0.12217,0.00000,0.00000,0.00000,60,18,31,2,64,23,27,9,ok,2,0,0.001,3,-0.99,-2.08,9.98,26,0.013,8.23
3.5092,-0.12043,0.08552,0.12217,0.00000,0.00000,0.00000,60,13,32,2,64,24,28,10,ok,2,0,0.001,3,-0.99,-2.08,9.98,26,0.025,8.23
3.5124,-0.12043,0.08552,0.12217,0.00000,0.00000,0.00000,60,11,33,2,65,25,30,9,ok,2,0,0.001,3,-0.99,-2.08,9.98,26,0.038,8.23
3.5249,-0.12043,0.08552,0.12217,0.00000,0.00000,0.00000,60,10,35,2,63,27,31,9,ok,2,0,0.001,3,-0.99,-2.08,9.98,26,0.051,8.23
3.5451,-0.12043,0.08552,0.12217,0.00000,0.00000,0.00000,60,6,36,2,64,28,33,9,ok,2,0,0.001,3,-0.99,-2.08,9.98,26,0.064,8.23
3.5500,-0.12043,0.08552,0.12217,0.00000,0.00000,0.00000,60,4,38,4,64,30,34,9,ok,2,0,0.001,3,-0.99,-2.08,9.98,26,0.076,8.23
3.5628,-0.12043,0.08552,0.12217,0.00000,0.00000,0.00000,60,1,39,4,64,32,35,9,ok,2,0,0.001,3,-0.99,-2.08,9.98,26,0.089,8.23
3.5852,-0.12043,0.08552,0.12217,0.00000,0.00000,0.00000,59,-1,41,3,64,34,36,9,ok,2,0,0.001,4,-0.99,-2.08,9.98,26,0.101,8.23
3.5883,-0.12043,0.08552,0.12217,0.00000,0.00000,0.00000,58,-3,42,3,64,35,37,9,ok,2,0,0.001,4,-0.99,-2.08,9.98,26,0.114,8.23
3.6009,-0.12043,0.08552,0.12217,0.00000,0.00000,0.00000,58,-4,43,3,65,35,38,8,ok,2,0,0.001,4,-0.99,-2.08,9.98,26,0.127,8.23
3.6212,-0.12043,0.08552,0.12217,0.00000,0.00000,0.00000,56,-5,44,3,66,35,39,8,ok,2,0,0.001,4,-0.99,-2.08,9.98,26,0.140,8.23
3.6260,-0.12043,0.08552,0.12217,0.00000,0.00000,0.00000,56,-6,45,3,68,33,41,7,ok,2,0,0.001,4,-0.99,-2.08,9.98,26,0.152,8.23
3.6386,-0.12043,0.08552,0.12217,0.00000,0.00000,0.00000,56,-8,46,3,70,28,42,7,ok,2,0,0.001,4,-0.99,-2.08,9.98,26,0.165,8.23
3.6612,-0.12043,0.08552,0.12217,0.00000,0.00000,0.00000,54,-9,47,4,71,24,44,7,ok,2,0,0.001,4,-0.99,-2.08,9.98,26,0.177,8.23
3.6644,-0.12043,0.08552,0.12217,0.00000,0.00000,0.00000,53,-10,48,4,73,21,44,7,ok,2,0,0.001,4,-0.99,-2.08,9.98,26,0.190,8.23
3.6772,-0.12043,0.08552,0.12217,0.00000,0.00000,0.00000,52,-10,49,3,74,20,45,7,ok,2,0,0.001,4,-0.99,-2.08,9.98,26,0.203,8.23
3.6972,0.03142,0.04712,0.13090,0.00000,0.00000,0.00000,51,-11,49,6,74,18,46,7,ok,2,0,0.001,4,0.32,0.54,10.33,27,0.000,8.23
3.7020,0.03142,0.04712,0.13090,0.00000,0.00000,0.00000,50,-11,50,6,74,15,47,8,ok,2,0,0.001,4,0.32,0.54,10.33,27,0.012,8.23
3.7146,0.03142,0.04712,0.13090,0.00000,0.00000,0.00000,48,-11,51,5,74,12,48,8,ok,2,0,0.001,4,0.32,0.54,10.33,27,0.025,8.23
3.7372,0.03142,0.04712,0.13090,0.00000,0.00000,0.00000,47,-10,52,6,73,10,49,8,ok,2,0,0.001,4,0.32,0.54,10.33,27,0.037,8.23
3.7404,0.03142,0.04712,0.13090,0.00000,0.00000,0.00000,46,-10,53,6,73,7,49,9,ok,2,0,0.001,4,0.32,0.54,10.33,27,0.051,8.23
3.7530,0.03142,0.04712,0.13090,0.00000,0.00000,0.00000,44,-10,55,6,72,5,49,8,ok,2,0,0.001,4,0.32,0.54,10.33,27,0.063,8.23
3.7731,0.03142,0.04712,0.13090,0.00000,0.00000,0.00000,43,-9,56,6,71,4,51,9,ok,2,0,0.001,4,0.32,0.54,10.33,27,0.076,8.23
3.7780,0.03142,0.04712,0.13090,0.00000,0.00000,0.00000,42,-7,56,6,69,1,52,7,ok,2,0,0.001,4,0.32,0.54,10.33,27,0.088,8.23
3.7905,0.03142,0.04712,0.13090,0.00000,0.00000,0.00000,40,-6,57,7,66,1,52,8,ok,2,0,0.001,4,0.32,0.54,10.33,27,0.101,8.23
3.8132,0.03142,0.04712,0.13090,0.00000,0.00000,0.00000,38,-5,57,7,65,-1,53,8,ok,2,0,0.001,4,0.32,0.54,10.33,27,0.113,8.23
3.8164,0.03142,0.04712,0.13090,0.00000,0.00000,0.00000,37,-3,58,8,64,-3,54,8,ok,2,0,0.001,4,0.32,0.54,10.33,27,0.127,8.23
3.8289,0.03142,0.04712,0.13090,0.00000,0.00000,0.00000,35,-1,59,9,62,-4,55,8,ok,2,0,0.001,4,0.32,0.54,10.33,27,0.139,8.23
3.8491,0.03142,0.04712,0.13090,0.00000,0.00000,0.00000,34,-2,60,11,61,-5,55,8,ok,2,0,0.001,4,0.32,0.54,10.33,27,0.152,8.23
3.8541,0.03142,0.04712,0.13090,0.00000,0.00000,0.00000,34,-1,60,10,59,-6,57,6,ok,2,0,0.001,4,0.32,0.54,10.33,27,0.164,8.23
3.8666,0.03142,0.04712,0.13090,0.00000,0.00000,0.00000,33,2,61,11,56,-6,57,7,ok,2,0,0.001,4,0.32,0.54,10.33,27,0.177,8.23
3.8892,0.01920,0.03142,0.14835,0.00000,0.00000,0.00000,32,5,61,11,54,-7,58,8,ok,2,0,0.001,4,-0.23,-0.29,7.84,28,0.000,8.23
3.8924,0.01920,0.03142,0.14835,0.00000,0.00000,0.00000,32,8,61,12,51,-6,59,8,ok,2,0,0.001,4,-0.23,-0.29,7.84,28,0.013,8.23
3.9050,0.01920,0.03142,0.14835,0.00000,0.00000,0.00000,31,10,61,12,48,-6,59,9,ok,2,0,0.001,4,-0.23,-0.29,7.84,28,0.026,8.23
3.9251,0.01920,0.03142,0.14835,0.00000,0.00000,0.00000,32,11,61,13,46,-6,60,10,ok,2,0,0.001,4,-0.23,-0.29,7.84,28,0.039,8.23
3.9299,0.01920,0.03142,0.14835,0.00000,0.00000,0.00000,32,10,61,14,43,-5,60,10,ok,2,0,0.001,4,-0.23,-0.29,7.84,28,0.051,8.23
3.9426,0.01920,0.03142,0.14835,0.00000,0.00000,0.00000,32,9,62,14,40,-5,61,11,ok,2,0,0.001,4,-0.23,-0.29,7.84,28,0.064,8.23
3.9652,0.01920,0.03142,0.14835,0.00000,0.00000,0.00000,34,9,62,15,37,-4,61,12,ok,2,0,0.001,4,-0.23,-0.29,7.84,28,0.076,8.23
3.9684,0.01920,0.03142,0.14835,0.00000,0.00000,0.00000,34,8,62,15,35,-3,61,13,ok,2,0,0.001,4,-0.23,-0.29,7.84,28,0.089,8.23
3.9812,0.01920,0.03142,0.14835,0.00000,0.00000,0.00000,35,7,63,16,32,-2,61,13,ok,2,0,0.001,4,-0.23,-0.29,7.84,28,0.102,8.23
4.0011,0.01920,0.03142,0.14835,0.00000,0.00000,0.00000,35,7,63,17,30,0,62,14,ok,2,0,0.001,4,-0.23,-0.29,7.84,28,0.115,8.23
4.0059,0.01920,0.03142,0.14835,0.00000,0.00000,0.00000,36,6,64,18,28,1,62,15,ok,2,0,0.001,4,-0.23,-0.29,7.84,28,0.127,8.23
4.0185,0.01920,0.03142,0.14835,0.00000,0.00000,0.00000,36,5,64,19,26,4,63,15,ok,2,0,0.001,4,-0.23,-0.29,7.84,28,0.140,8.23
4.0412,0.01920,0.03142,0.14835,0.00000,0.00000,0.00000,37,4,64,20,24,8,63,16,ok,2,0,0.001,4,-0.23,-0.29,7.84,28,0.152,8.23
4.0444,0.01920,0.03142,0.14835,0.00000,0.00000,0.00000,38,4,64,21,23,11,63,17,ok,2,0,0.001,4,-0.23,-0.29,7.84,28,0.165,8.23
4.0570,0.01920,0.03142,0.14835,0.00000,0.00000,0.00000,38,3,64,23,22,14,64,18,ok,2,0,0.001,4,-0.23,-0.29,7.84,28,0.178,8.23
4.0771,0.01920,0.03142,0.14835,0.00000,0.00000,0.00000,39,3,63,25,24,13,64,19,ok,4,0,0.001,4,-0.23,-0.29,7.84,28,0.191,8.23
4.0823,0.01920,0.03142,0.14835,0.00000,0.00000,0.00000,39,2,63,27,24,13,64,19,ok,4,0,0.001,4,-0.23,-0.29,7.84,28,0.203,8.23
4.0949,-0.04014,0.01920,0.14312,0.00000,0.00000,0.00000,40,2,64,25,25,11,64,20,ok,2,0,0.001,4,0.39,0.33,10.35,29,0.000,8.23
4.1172,-0.04014,0.01920,0.14312,0.00000,0.00000,0.00000,40,1,67,22,26,10,65,21,ok,2,0,0.001,4,0.39,0.33,10.35,29,0.012,8.23
4.1204,-0.04014,0.01920,0.14312,0.00000,0.00000,0.00000,41,1,69,19,28,10,65,22,ok,2,0,0.001,4,0.39,0.33,10.35,29,0.026,8.23
4.1330,-0.04014,0.01920,0.14312,0.00000,0.00000,0.00000,42,1,70,15,29,10,65,23,ok,2,0,0.001,4,0.39,0.33,10.35,29,0.038,8.23
4.1531,-0.04014,0.01920,0.14312,0.00000,0.00000,0.00000,42,1,71,13,30,9,65,25,ok,2,0,0.001,4,0.39,0.33,10.35,29,0.051,8.23
4.1582,-0.04014,0.01920,0.14312,0.00000,0.00000,0.00000,44,1,70,12,32,9,65,26,ok,2,0,0.001,4,0.39,0.33,10.35,29,0.063,8.23
4.1705,-0.04014,0.01920,0.14312,0.00000,0.00000,0.00000,44,1,70,9,33,9,64,28,ok,2,0,0.001,4,0.39,0.33,10.35,29,0.076,8.23
4.1932,-0.04014,0.01920,0.14312,0.00000,0.00000,0.00000,45,2,69,6,35,9,64,30,ok,2,0,0.001,4,0.39,0.33,10.35,29,0.088,8.23
4.1965,-0.04014,0.01920,0.14312,0.00000,0.00000,0.00000,46,2,69,3,36,8,64,31,ok,2,0,0.001,4,0.39,0.33,10.35,29,0.102,8.23
4.2090,-0.04014,0.01920,0.14312,0.00000,0.00000,0.00000,46,2,67,1,37,9,64,33,ok,2,0,0.001,4,0.39,0.33,10.35,29,0.114,8.23
4.2291,-0.04014,0.01920,0.14312,0.00000,0.00000,0.00000,47,2,66,-1,39,8,64,34,ok,2,0,0.001,4,0.39,0.33,10.35,29,0.127,8.23
4.2339,-0.04014,0.01920,0.14312,0.00000,0.00000,0.00000,48,2,64,-3,39,8,63,36,ok,2,0,0.001,4,0.39,0.33,10.35,29,0.139,8.23
4.2465,-0.04014,0.01920,0.14312,0.00000,0.00000,0.00000,48,2,62,-4,41,7,64,36,ok,2,0,0.001,4,0.39,0.33,10.35,29,0.152,8.23
4.2692,-0.04014,0.01920,0.14312,0.00000,0.00000,0.00000,48,3,61,-6,42,7,65,35,ok,2,0,0.001,4,0.39,0.33,10.35,29,0.164,8.23
4.2725,-0.04014,0.01920,0.14312,0.00000,0.00000,0.00000,48,3,60,-8,43,7,67,32,ok,2,0,0.001,4,0.39,0.33,10.35,29,0.178,8.23
4.2853,-0.10996,0.03316,0.17802,0.00000,0.00000,0.00000,50,3,58,-8,44,7,69,27,ok,2,0,0.001,4,-0.39,-1.15,9.61,30,0.000,8.23
4.3051,-0.10996,0.03316,0.17802,0.00000,0.00000,0.00000,50,3,55,-9,44,7,71,24,ok,2,0,0.001,4,-0.39,-1.15,9.61,30,0.013,8.23
4.3099,-0.10996,0.03316,0.17802,0.00000,0.00000,0.00000,50,3,54,-9,46,7,72,21,ok,2,0,0.001,4,-0.39,-1.15,9.61,30,0.025,8.23
4.3227,-0.10996,0.03316,0.17802,0.00000,0.00000,0.00000,50,5,51,-10,47,7,73,21,ok,2,0,0.001,4,-0.39,-1.15,9.61,30,0.038,8.23
4.3452,-0.10996,0.03316,0.17802,0.00000,0.00000,0.00000,51,5,49,-10,47,7,73,18,ok,2,0,0.001,4,-0.39,-1.15,9.61,30,0.050,8.23
4.3484,-0.10996,0.03316,0.17802,0.00000,0.00000,0.00000,52,5,46,-10,48,7,73,15,ok,2,0,0.001,4,-0.39,-1.15,9.61,30,0.063,8.23
4.3609,-0.10996,0.03316,0.17802,0.00000,0.00000,0.00000,52,6,44,-9,49,7,72,12,ok,2,0,0.001,4,-0.39,-1.15,9.61,30,0.076,8.23
4.3812,-0.10996,0.03316,0.17802,0.00000,0.00000,0.00000,52,6,41,-9,50,7,72,11,ok,2,0,0.001,4,-0.39,-1.15,9.61,30,0.089,8.23
4.3862,-0.10996,0.03316,0.17802,0.00000,0.00000,0.00000,53,6,39,-10,51,7,71,7,ok,2,0,0.001,4,-0.39,-1.15,9.61,30,0.101,8.23
4.3985,-0.10996,0.03316,0.17802,0.00000,0.00000,0.00000,53,6,36,-9,52,7,71,6,ok,2,0,0.001,4,-0.39,-1.15,9.61,30,0.114,8.23
4.4212,-0.10996,0.03316,0.17802,0.00000,0.00000,0.00000,54,7,33,-8,52,7,70,4,ok,2,0,0.001,4,-0.39,-1.15,9.61,30,0.126,8.23
4.4247,-0.10996,0.03316,0.17802,0.00000,0.00000,0.00000,54,8,30,-7,53,7,68,2,ok,2,0,0.001,4,-0.39,-1.15,9.61,30,0.139,8.23
4.4371,-0.10996,0.03316,0.17802,0.00000,0.00000,0.00000,54,8,27,-6,54,8,66,2,ok,2,0,0.001,4,-0.39,-1.15,9.61,30,0.152,8.23
4.4572,-0.10996,0.03316,0.17802,0.00000,0.00000,0.00000,54,9,24,-5,55,8,65,0,ok,2,0,0.001,4,-0.39,-1.15,9.61,30,0.165,8.23
4.4620,-0.10996,0.03316,0.17802,0.00000,0.00000,0.00000,55,10,20,-2,56,8,64,-2,ok,2,0,0.001,4,-0.39,-1.15,9.61,30,0.177,8.23
4.4746,-0.10996,0.03316,0.17802,0.00000,0.00000,0.00000,55,10,19,-1,58,6,62,-3,ok,2,0,0.001,4,-0.39,-1.15,9.61,30,0.190,8.23
4.4972,-0.10996,0.03316,0.17802,0.00000,0.00000,0.00000,56,10,18,0,58,7,60,-4,ok,2,0,0.001,4,-0.39,-1.15,9.61,30,0.202,8.23
4.5007,0.00524,0.03665,0.12043,0.00000,0.00000,0.00000,56,11,16,3,59,8,58,-5,ok,2,0,0.001,4,0.65,-0.01,9.84,31,0.000,8.23
4.5132,0.00524,0.03665,0.12043,0.00000,0.00000,0.00000,56,11,14,5,59,9,55,-6,ok,2,0,0.001,4,0.65,-0.01,9.84,31,0.013,8.23
4.5331,0.00524,0.03665,0.12043,0.00000,0.00000,0.00000,56,12,13,9,60,9,53,-6,ok,2,0,0.001,4,0.65,-0.01,9.84,31,0.025,8.23
4.5379,0.00524,0.03665,0.12043,0.00000,0.00000,0.00000,56,12,12,11,60,10,50,-5,ok,2,0,0.001,4,0.65,-0.01,9.84,31,0.038,8.23
4.5505,0.00524,0.03665,0.12043,0.00000,0.00000,0.00000,56,13,14,11,61,10,47,-5,ok,2,0,0.001,4,0.65,-0.01,9.84,31,0.050,8.23
4.5732,0.00524,0.03665,0.12043,0.00000,0.00000,0.00000,56,14,15,11,61,11,45,-5,ok,2,0,0.001,4,0.65,-0.01,9.84,31,0.063,8.23
4.5764,0.00524,0.03665,0.12043,0.00000,0.00000,0.00000,56,14,16,10,61,11,42,-4,ok,2,0,0.001,4,0.65,-0.01,9.84,31,0.076,8.23
4.5894,0.00524,0.03665,0.12043,0.00000,0.00000,0.00000,56,16,18,9,61,12,40,-4,ok,2,0,0.001,5,0.65,-0.01,9.84,31,0.089,8.23
4.6132,0.00524,0.03665,0.12043,0.00000,0.00000,0.00000,56,16,19,8,61,12,37,-3,ok,2,0,0.001,5,0.65,-0.01,9.84,31,0.101,8.23
4.6164,0.00524,0.03665,0.12043,0.00000,0.00000,0.00000,56,17,21,7,62,13,35,-3,ok,2,0,0.001,5,0.65,-0.01,9.84,31,0.116,8.23
4.6298,0.00524,0.03665,0.12043,0.00000,0.00000,0.00000,56,18,21,7,62,14,31,-1,ok,2,0,0.001,5,0.65,-0.01,9.84,31,0.129,8.23
4.6532,0.00524,0.03665,0.12043,0.00000,0.00000,0.00000,57,19,23,6,63,14,30,0,ok,2,0,0.001,5,0.65,-0.01,9.84,31,0.141,8.23
4.6565,0.00524,0.03665,0.12043,0.00000,0.00000,0.00000,57,20,24,5,63,15,27,1,ok,2,0,0.001,5,0.65,-0.01,9.84,31,0.156,8.23
4.6697,0.00524,0.03665,0.12043,0.00000,0.00000,0.00000,58,21,24,5,63,16,25,5,ok,2,0,0.001,5,0.65,-0.01,9.84,31,0.169,8.23
4.6932,0.00524,0.03665,0.12043,0.00000,0.00000,0.00000,58,22,25,4,63,17,24,7,ok,2,0,0.001,5,0.65,-0.01,9.84,31,0.184,8.23
4.6977,0.00524,0.03665,0.12043,0.00000,0.00000,0.00000,58,23,26,3,64,17,23,11,ok,2,0,0.001,5,0.65,-0.01,9.84,31,0.197,8.23
4.7102,-0.03840,0.06981,0.14312,0.00000,0.00000,0.00000,57,26,27,3,64,19,22,13,ok,2,0,0.001,5,0.33,-1.79,9.46,32,0.000,8.23
4.7332,-0.03840,0.06981,0.14312,0.00000,0.00000,0.00000,57,26,28,2,64,20,25,12,ok,2,0,0.001,5,0.33,-1.79,9.46,32,0.013,8.23
4.7363,-0.03840,0.06981,0.14312,0.00000,0.00000,0.00000,58,25,29,2,64,21,25,12,ok,2,0,0.001,5,0.33,-1.79,9.46,32,0.027,8.23
4.7489,-0.03840,0.06981,0.14312,0.00000,0.00000,0.00000,58,21,30,2,65,22,26,10,ok,2,0,0.001,5,0.33,-1.79,9.46,32,0.039,8.23
4.7691,-0.03840,0.06981,0.14312,0.00000,0.00000,0.00000,60,17,31,2,64,23,27,9,ok,2,0,0.001,5,0.33,-1.79,9.46,32,0.052,8.23
4.7740,-0.03840,0.06981,0.14312,0.00000,0.00000,0.00000,60,13,32,2,64,25,28,10,ok,2,0,0.001,5,0.33,-1.79,9.46,32,0.064,8.23
4.7866,-0.03840,0.06981,0.14312,0.00000,0.00000,0.00000,60,11,33,2,65,25,29,9,ok,2,0,0.001,5,0.33,-1.79,9.46,32,0.077,8.23
4.8092,-0.03840,0.06981,0.14312,0.00000,0.00000,0.00000,60,10,35,2,64,28,30,9,ok,2,0,0.001,5,0.33,-1.79,9.46,32,0.089,8.23
4.8126,-0.03840,0.06981,0.14312,0.00000,0.00000,0.00000,60,7,36,2,64,29,32,9,ok,2,0,0.001,5,0.33,-1.79,9.46,32,0.103,8.23
4.8250,-0.03840,0.06981,0.14312,0.00000,0.00000,0.00000,60,4,38,3,64,30,33,9,ok,2,0,0.001,5,0.33,-1.79,9.46,32,0.115,8.23
4.8451,-0.03840,0.06981,0.14312,0.00000,0.00000,0.00000,60,2,40,3,64,32,35,9,ok,2,0,0.001,5,0.33,-1.79,9.46,32,0.128,8.23
4.8502,-0.03840,0.06981,0.14312,0.00000,0.00000,0.00000,59,-1,41,3,64,34,36,9,ok,2,0,0.001,5,0.33,-1.79,9.46,32,0.140,8.23
4.8626,-0.03840,0.06981,0.14312,0.00000,0.00000,0.00000,58,-2,42,2,64,35,37,8,ok,2,0,0.001,5,0.33,-1.79,9.46,32,0.153,8.23
4.8852,-0.03840,0.06981,0.14312,0.00000,0.00000,0.00000,58,-4,44,3,65,35,38,8,ok,2,0,0.001,5,0.33,-1.79,9.46,32,0.165,8.23
4.8886,-0.03840,0.06981,0.14312,0.00000,0.00000,0.00000,56,-5,44,3,66,35,39,8,ok,2,0,0.001,5,0.33,-1.79,9.46,32,0.179,8.23
4.9013,0.01571,0.01571,0.17279,0.00000,0.00000,0.00000,56,-6,45,3,68,33,41,7,ok,2,0,0.001,5,1.45,0.95,10.18,33,0.000,8.23
4.9211,0.01571,0.01571,0.17279,0.00000,0.00000,0.00000,56,-8,46,3,70,29,42,7,ok,2,0,0.001,5,1.45,0.95,10.18,33,0.013,8.23
4.9260,0.01571,0.01571,0.17279,0.00000,0.00000,0.00000,54,-9,48,4,72,24,43,7,ok,2,0,0.001,5,1.45,0.95,10.18,33,0.025,8.23
4.9388,0.01571,0.01571,0.17279,0.00000,0.00000,0.00000,53,-10,49,3,73,22,44,7,ok,2,0,0.001,5,1.45,0.95,10.18,33,0.038,8.23
4.9612,0.01571,0.01571,0.17279,0.00000,0.00000,0.00000,52,-10,49,3,74,21,45,7,ok,2,0,0.001,5,1.45,0.95,10.18,33,0.050,8.23
4.9643,0.01571,0.01571,0.17279,0.00000,0.00000,0.00000,51,-11,50,5,74,19,46,7,ok,2,0,0.001,5,1.45,0.95,10.18,33,0.063,8.23
4.9772,0.01571,0.01571,0.17279,0.00000,0.00000,0.00000,50,-11,51,6,74,15,47,8,ok,2,0,0.001,5,1.45,0.95,10.18,33,0.076,8.23
4.9971,0.01571,0.01571,0.17279,0.00000,0.00000,0.00000,48,-10,52,5,73,12,48,8,ok,2,0,0.001,5,1.45,0.95,10.18,33,0.089,8.23
5.0020,0.01571,0.01571,0.17279,0.00000,0.00000,0.00000,47,-10,53,6,73,10,49,8,ok,2,0,0.001,5,1.45,0.95,10.18,33,0.101,8.23
5.0145,0.01571,0.01571,0.17279,0.00000,0.00000,0.00000,46,-10,53,7,72,6,49,8,ok,2,0,0.001,5,1.45,0.95,10.18,33,0.114,8.23
5.0411,0.01571,0.01571,0.17279,0.00000,0.00000,0.00000,44,-11,56,7,72,5,50,8,ok,2,0,0.001,5,1.45,0.95,10.18,33,0.126,8.23
5.0446,0.01571,0.01571,0.17279,0.00000,0.00000,0.00000,43,-10,56,7,71,4,51,8,ok,2,0,0.001,5,1.45,0.95,10.18,33,0.143,8.23
5.0570,0.01571,0.01571,0.17279,0.00000,0.00000,0.00000,42,-9,57,7,69,1,52,7,ok,2,0,0.001,5,1.45,0.95,10.18,33,0.156,8.23
5.0771,0.01571,0.01571,0.17279,0.00000,0.00000,0.00000,40,-7,57,8,66,1,52,8,ok,2,0,0.001,5,1.45,0.95,10.18,33,0.169,8.23
5.0820,0.01571,0.01571,0.17279,0.00000,0.00000,0.00000,38,-6,58,8,65,-1,53,8,ok,2,0,0.001,5,1.45,0.95,10.18,33,0.181,8.23
5.0948,0.01571,0.01571,0.17279,0.00000,0.00000,0.00000,37,-4,58,8,63,-2,54,9,ok,2,0,0.001,5,1.45,0.95,10.18,33,0.194,8.23
5.1172,0.06981,-0.00524,0.17977,0.00000,0.00000,0.00000,35,-2,59,9,61,-4,55,8,ok,2,0,0.001,5,0.34,0.16,10.67,34,0.000,8.23
5.1204,0.06981,-0.00524,0.17977,0.00000,0.00000,0.00000,34,-2,60,10,61,-5,54,8,ok,2,0,0.001,5,0.34,0.16,10.67,34,0.013,8.23
5.1330,0.06981,-0.00524,0.17977,0.00000,0.00000,0.00000,34,0,61,10,59,-5,56,6,ok,2,0,0.001,5,0.34,0.16,10.67,34,0.026,8.23
5.1531,0.06981,-0.00524,0.17977,0.00000,0.00000,0.00000,33,2,61,11,56,-6,57,7,ok,2,0,0.001,5,0.34,0.16,10.67,34,0.038,8.23
5.1579,0.06981,-0.00524,0.17977,0.00000,0.00000,0.00000,32,5,61,11,54,-7,58,8,ok,2,0,0.001,5,0.34,0.16,10.67,34,0.051,8.23
5.1705,0.06981,-0.00524,0.17977,0.00000,0.00000,0.00000,32,9,61,12,51,-6,58,8,ok,2,0,0.001,5,0.34,0.16,10.67,34,0.063,8.23
5.1932,0.06981,-0.00524,0.17977,0.00000,0.00000,0.00000,31,11,62,11,48,-6,59,8,ok,2,0,0.001,5,0.34,0.16,10.67,34,0.076,8.23
5.1964,0.06981,-0.00524,0.17977,0.00000,0.00000,0.00000,32,12,62,12,46,-6,60,9,ok,2,0,0.001,5,0.34,0.16,10.67,34,0.089,8.23
5.2093,0.06981,-0.00524,0.17977,0.00000,0.00000,0.00000,32,11,62,13,43,-5,59,10,ok,2,0,0.001,5,0.34,0.16,10.67,34,0.102,8.23
5.2291,0.06981,-0.00524,0.17977,0.00000,0.00000,0.00000,33,10,62,13,40,-5,60,10,ok,2,0,0.001,5,0.34,0.16,10.67,34,0.114,8.23
5.2340,0.06981,-0.00524,0.17977,0.00000,0.00000,0.00000,34,9,62,14,37,-4,61,11,ok,2,0,0.001,5,0.34,0.16,10.67,34,0.127,8.23
5.2468,0.06981,-0.00524,0.17977,0.00000,0.00000,0.00000,34,9,62,15,35,-3,61,12,ok,2,0,0.001,5,0.34,0.16,10.67,34,0.139,8.23
5.2692,0.06981,-0.00524,0.17977,0.00000,0.00000,0.00000,35,7,63,15,31,-1,61,13,ok,2,0,0.001,5,0.34,0.16,10.67,34,0.152,8.23
5.2724,0.06981,-0.00524,0.17977,0.00000,0.00000,0.00000,36,7,63,17,29,0,62,14,ok,2,0,0.001,5,0.34,0.16,10.67,34,0.165,8.23
5.2849,0.06981,-0.00524,0.17977,0.00000,0.00000,0.00000,36,6,64,18,28,2,62,15,ok,2,0,0.001,5,0.34,0.16,10.67,34,0.178,8.23
5.3051,0.06981,-0.00524,0.17977,0.00000,0.00000,0.00000,37,5,64,19,25,5,63,15,ok,2,0,0.001,5,0.34,0.16,10.67,34,0.190,8.23
5.3102,-0.02443,0.05411,0.12915,0.00000,0.00000,0.00000,38,5,64,20,24,8,63,16,ok,2,0,0.001,5,1.32,0.82,10.83,35,0.000,8.23
5.3226,-0.02443,0.05411,0.12915,0.00000,0.00000,0.00000,38,4,64,22,23,11,63,17,ok,2,0,0.001,5,1.32,0.82,10.83,35,0.013,8.23
5.3451,-0.02443,0.05411,0.12915,0.00000,0.00000,0.00000,38,3,64,23,22,14,64,18,ok,2,0,0.001,5,1.32,0.82,10.83,35,0.025,8.23
5.3484,-0.02443,0.05411,0.12915,0.00000,0.00000,0.00000,39,3,63,26,23,13,64,19,ok,2,0,0.001,5,1.32,0.82,10.83,35,0.038,8.23
5.3609,-0.02443,0.05411,0.12915,0.00000,0.00000,0.00000,40,2,63,27,24,13,64,19,ok,2,0,0.001,5,1.32,0.82,10.83,35,0.051,8.23
5.3811,-0.02443,0.05411,0.12915,0.00000,0.00000,0.00000,40,2,64,26,25,11,64,20,ok,2,0,0.001,5,1.32,0.82,10.83,35,0.064,8.23
5.3861,-0.02443,0.05411,0.12915,0.00000,0.00000,0.00000,40,1,67,23,26,10,65,21,ok,2,0,0.001,5,1.32,0.82,10.83,35,0.076,8.23
5.3986,-0.02443,0.05411,0.12915,0.00000,0.00000,0.00000,41,0,69,20,28,10,65,22,ok,2,0,0.001,5,1.32,0.82,10.83,35,0.088,8.23
5.4211,-0.02443,0.05411,0.12915,0.00000,0.00000,0.00000,42,0,70,15,29,10,64,24,ok,2,0,0.001,5,1.32,0.82,10.83,35,0.101,8.23
5.4243,-0.02443,0.05411,0.12915,0.00000,0.00000,0.00000,42,0,71,13,30,9,64,26,ok,2,0,0.001,5,1.32,0.82,10.83,35,0.114,8.23
5.4370,-0.02443,0.05411,0.12915,0.00000,0.00000,0.00000,44,1,70,12,33,9,65,26,ok,2,0,0.001,5,1.32,0.82,10.83,35,0.127,8.23
5.4571,-0.02443,0.05411,0.12915,0.00000,0.00000,0.00000,44,1,70,9,33,9,64,28,ok,2,0,0.001,5,1.32,0.82,10.83,35,0.139,8.23
5.4621,-0.02443,0.05411,0.12915,0.00000,0.00000,0.00000,45,2,69,6,35,9,64,30,ok,2,0,0.001,5,1.32,0.82,10.83,35,0.152,8.23
5.4746,-0.02443,0.05411,0.12915,0.00000,0.00000,0.00000,46,2,69,3,36,8,64,31,ok,2,0,0.001,5,1.32,0.82,10.83,35,0.165,8.23
5.4971,-0.02443,0.05411,0.12915,0.00000,0.00000,0.00000,46,2,67,0,37,9,64,33,ok,2,0,0.001,5,1.32,0.82,10.83,35,0.177,8.23
5.5005,-0.02443,0.05411,0.12915,0.00000,0.00000,0.00000,46,2,66,-2,39,8,64,34,ok,2,0,0.001,5,1.32,0.82,10.83,35,0.190,8.23
5.5132,-0.11868,0.02793,0.25482,0.00000,0.00000,0.00000,48,2,64,-3,40,8,63,35,ok,2,0,0.001,5,-0.01,-2.23,7.36,36,0.000,8.23
5.5331,-0.11868,0.02793,0.25482,0.00000,0.00000,0.00000,48,2,62,-4,41,6,65,36,ok,2,0,0.001,5,-0.01,-2.23,7.36,36,0.013,8.23
5.5380,-0.11868,0.02793,0.25482,0.00000,0.00000,0.00000,48,3,61,-5,42,7,66,35,ok,2,0,0.001,5,-0.01,-2.23,7.36,36,0.025,8.23
5.5505,-0.11868,0.02793,0.25482,0.00000,0.00000,0.00000,49,2,60,-8,43,7,68,32,ok,2,0,0.001,5,-0.01,-2.23,7.36,36,0.038,8.23
5.5732,-0.11868,0.02793,0.25482,0.00000,0.00000,0.00000,50,3,58,-8,44,7,70,27,ok,2,0,0.001,5,-0.01,-2.23,7.36,36,0.050,8.23
5.5764,-0.11868,0.02793,0.25482,0.00000,0.00000,0.00000,50,2,55,-9,45,7,71,24,ok,2,0,0.001,5,-0.01,-2.23,7.36,36,0.063,8.23
5.5890,-0.11868,0.02793,0.25482,0.00000,0.00000,0.00000,50,2,53,-9,46,7,73,21,ok,2,0,0.001,5,-0.01,-2.23,7.36,36,0.076,8.23
5.6091,-0.11868,0.02793,0.25482,0.00000,0.00000,0.00000,50,4,51,-10,47,7,73,20,ok,2,0,0.001,5,-0.01,-2.23,7.36,36,0.089,8.23
5.6142,-0.11868,0.02793,0.25482,0.00000,0.00000,0.00000,51,5,49,-10,48,7,73,18,ok,2,0,0.001,6,-0.01,-2.23,7.36,36,0.101,8.23
5.6266,-0.11868,0.02793,0.25482,0.00000,0.00000,0.00000,52,5,46,-10,49,7,73,15,ok,2,0,0.001,6,-0.01,-2.23,7.36,36,0.114,8.23
5.6492,-0.11868,0.02793,0.25482,0.00000,0.00000,0.00000,52,6,44,-9,49,7,72,12,ok,2,0,0.001,6,-0.01,-2.23,7.36,36,0.126,8.23
5.6525,-0.11868,0.02793,0.25482,0.00000,0.00000,0.00000,52,7,41,-10,50,7,72,11,ok,2,0,0.002,6,-0.01,-2.23,7.36,36,0.139,8.23
5.6652,-0.11868,0.02793,0.25482,0.00000,0.00000,0.00000,53,7,39,-10,51,7,71,7,ok,2,0,0.002,6,-0.01,-2.23,7.36,36,0.152,8.23
5.6851,-0.11868,0.02793,0.25482,0.00000,0.00000,0.00000,54,7,36,-9,52,7,71,6,ok,2,0,0.002,6,-0.01,-2.23,7.36,36,0.165,8.23
5.6900,-0.11868,0.02793,0.25482,0.00000,0.00000,0.00000,54,7,33,-9,52,7,70,4,ok,2,0,0.002,6,-0.01,-2.23,7.36,36,0.177,8.23
5.7029,-0.11868,0.02793,0.25482,0.00000,0.00000,0.00000,54,8,30,-7,53,7,68,2,ok,2,0,0.002,6,-0.01,-2.23,7.36,36,0.190,8.23
5.7252,-0.03665,-0.02269,0.26704,0.00000,0.00000,0.00000,54,8,27,-6,53,8,66,2,ok,2,0,0.002,6,0.77,-0.21,10.49,37,0.000,8.23
5.7283,-0.03665,-0.02269,0.26704,0.00000,0.00000,0.00000,54,9,24,-5,55,8,65,0,ok,2,0,0.002,6,0.77,-0.21,10.49,37,0.013,8.23
5.7410,-0.03665,-0.02269,0.26704,0.00000,0.00000,0.00000,55,10,20,-2,56,8,64,-2,ok,2,0,0.002,6,0.77,-0.21,10.49,37,0.026,8.23
5.7611,-0.03665,-0.02269,0.26704,0.00000,0.00000,0.00000,55,10,19,-1,58,6,61,-3,ok,2,0,0.002,6,0.77,-0.21,10.49,37,0.038,8.23
5.7661,-0.03665,-0.02269,0.26704,0.00000,0.00000,0.00000,56,10,18,0,58,8,60,-4,ok,2,0,0.002,6,0.77,-0.21,10.49,37,0.051,8.23
5.7785,-0.03665,-0.02269,0.26704,0.00000,0.00000,0.00000,56,11,16,2,59,8,58,-5,ok,2,0,0.002,6,0.77,-0.21,10.49,37,0.063,8.23
5.8011,-0.03665,-0.02269,0.26704,0.00000,0.00000,0.00000,56,11,15,5,59,8,55,-5,ok,2,0,0.002,6,0.77,-0.21,10.49,37,0.076,8.23
5.8044,-0.03665,-0.02269,0.26704,0.00000,0.00000,0.00000,56,13,13,9,60,9,53,-6,ok,2,0,0.002,6,0.77,-0.21,10.49,37,0.089,8.23
5.8172,-0.03665,-0.02269,0.26704,0.00000,0.00000,0.00000,56,13,13,11,60,9,50,-5,ok,2,0,0.002,6,0.77,-0.21,10.49,37,0.102,8.23
5.8371,-0.03665,-0.02269,0.26704,0.00000,0.00000,0.00000,56,14,15,11,60,9,48,-5,ok,2,0,0.002,6,0.77,-0.21,10.49,37,0.114,8.23
5.8420,-0.03665,-0.02269,0.26704,0.00000,0.00000,0.00000,56,14,16,11,61,10,45,-5,ok,2,0,0.002,6,0.77,-0.21,10.49,37,0.127,8.23
5.8545,-0.03665,-0.02269,0.26704,0.00000,0.00000,0.00000,56,14,17,10,61,11,42,-4,ok,2,0,0.002,6,0.77,-0.21,10.49,37,0.139,8.23
5.8772,-0.03665,-0.02269,0.26704,0.00000,0.00000,0.00000,56,15,19,9,61,12,40,-4,ok,2,0,0.002,6,0.77,-0.21,10.49,37,0.152,8.23
5.8804,-0.03665,-0.02269,0.26704,0.00000,0.00000,0.00000,56,16,19,9,61,12,37,-3,ok,2,0,0.002,6,0.77,-0.21,10.49,37,0.165,8.23
5.8930,-0.03665,-0.02269,0.26704,0.00000,0.00000,0.00000,57,16,21,8,61,13,35,-3,ok,2,0,0.002,6,0.77,-0.21,10.49,37,0.178,8.23
5.9172,0.01745,0.05760,0.22166,0.00000,0.00000,0.00000,57,18,22,7,62,14,31,-1,ok,2,0,0.002,6,0.66,0.26,11.33,38,0.000,8.23
5.9205,0.01745,0.05760,0.22166,0.00000,0.00000,0.00000,58,19,23,6,62,14,29,0,ok,2,0,0.002,6,0.66,0.26,11.33,38,0.015,8.23
5.9330,0.01745,0.05760,0.22166,0.00000,0.00000,0.00000,58,20,24,5,62,15,27,2,ok,2,0,0.002,6,0.66,0.26,11.33,38,0.028,8.23
5.9531,0.01745,0.05760,0.22166,0.00000,0.00000,0.00000,58,21,24,5,62,16,25,5,ok,2,0,0.002,6,0.66,0.26,11.33,38,0.040,8.23
5.9580,0.01745,0.05760,0.22166,0.00000,0.00000,0.00000,58,22,25,4,63,17,24,7,ok,2,0,0.002,6,0.66,0.26,11.33,38,0.053,8.23
5.9707,0.01745,0.05760,0.22166,0.00000,0.00000,0.00000,58,23,26,3,64,17,22,11,ok,2,0,0.002,6,0.66,0.26,11.33,38,0.065,8.23
5.9932,0.01745,0.05760,0.22166,0.00000,0.00000,0.00000,57,26,27,3,64,19,22,13,ok,2,0,0.002,6,0.66,0.26,11.33,38,0.078,8.23
5.9963,0.01745,0.05760,0.22166,0.00000,0.00000,0.00000,57,27,27,2,64,20,24,12,ok,2,0,0.002,6,0.66,0.26,11.33,38,0.091,8.23
6.0090,0.01745,0.05760,0.22166,0.00000,0.00000,0.00000,58,25,28,2,64,21,24,12,ok,2,0,0.002,6,0.66,0.26,11.33,38,0.103,8.23
6.0291,0.01745,0.05760,0.22166,0.00000,0.00000,0.00000,58,22,30,2,65,22,25,10,ok,2,0,0.002,6,0.66,0.26,11.33,38,0.116,8.23
6.0340,0.01745,0.05760,0.22166,0.00000,0.00000,0.00000,60,18,31,1,64,23,27,9,ok,2,0,0.002,6,0.66,0.26,11.33,38,0.128,8.23
6.0465,0.01745,0.05760,0.22166,0.00000,0.00000,0.00000,60,13,32,2,64,25,28,10,ok,2,0,0.002,6,0.66,0.26,11.33,38,0.141,8.23
6.0692,0.01745,0.05760,0.22166,0.00000,0.00000,0.00000,60,11,34,2,65,26,29,9,ok,2,0,0.002,6,0.66,0.26,11.33,38,0.153,8.23
6.0723,0.01745,0.05760,0.22166,0.00000,0.00000,0.00000,60,11,35,2,64,28,30,9,ok,2,0,0.002,6,0.66,0.26,11.33,38,0.167,8.23
6.0852,0.01745,0.05760,0.22166,0.00000,0.00000,0.00000,60,7,36,2,64,29,32,9,ok,2,0,0.002,6,0.66,0.26,11.33,38,0.180,8.23
6.1052,0.01745,0.05760,0.22166,0.00000,0.00000,0.00000,60,5,39,3,64,30,33,9,ok,2,0,0.002,6,0.66,0.26,11.33,38,0.192,8.23
6.1103,-0.08029,-0.01047,0.25307,0.00000,0.00000,0.00000,60,2,40,3,64,32,35,8,ok,2,0,0.002,6,-0.33,-0.70,9.09,39,0.000,8.23
6.1225,-0.08029,-0.01047,0.25307,0.00000,0.00000,0.00000,59,-1,41,3,64,33,36,8,ok,2,0,0.002,6,-0.33,-0.70,9.09,39,0.013,8.23
6.1452,-0.08029,-0.01047,0.25307,0.00000,0.00000,0.00000,58,-3,43,2,64,35,37,8,ok,2,0,0.002,6,-0.33,-0.70,9.09,39,0.025,8.23
6.1483,-0.08029,-0.01047,0.25307,0.00000,0.00000,0.00000,58,-4,44,3,64,35,39,8,ok,2,0,0.002,6,-0.33,-0.70,9.09,39,0.038,8.23
6.1610,-0.08029,-0.01047,0.25307,0.00000,0.00000,0.00000,56,-5,44,3,65,35,40,8,ok,2,0,0.002,6,-0.33,-0.70,9.09,39,0.051,8.23
6.1811,-0.08029,-0.01047,0.25307,0.00000,0.00000,0.00000,56,-7,45,3,67,33,41,7,ok,2,0,0.002,6,-0.33,-0.70,9.09,39,0.064,8.23
6.1860,-0.08029,-0.01047,0.25307,0.00000,0.00000,0.00000,56,-9,47,3,69,28,42,7,ok,2,0,0.002,6,-0.33,-0.70,9.09,39,0.076,8.23
6.1985,-0.08029,-0.01047,0.25307,0.00000,0.00000,0.00000,54,-9,48,4,71,24,43,7,ok,2,0,0.002,6,-0.33,-0.70,9.09,39,0.089,8.23
6.2212,-0.08029,-0.01047,0.25307,0.00000,0.00000,0.00000,54,-11,49,4,73,21,44,7,ok,2,0,0.002,6,-0.33,-0.70,9.09,39,0.101,8.23
6.2243,-0.08029,-0.01047,0.25307,0.00000,0.00000,0.00000,52,-11,50,4,74,21,45,7,ok,2,0,0.002,6,-0.33,-0.70,9.09,39,0.114,8.23
6.2373,-0.08029,-0.01047,0.25307,0.00000,0.00000,0.00000,51,-11,50,6,74,18,46,7,ok,2,0,0.002,6,-0.33,-0.70,9.09,39,0.127,8.23
6.2572,-0.08029,-0.01047,0.25307,0.00000,0.00000,0.00000,50,-11,51,7,73,14,47,8,ok,2,0,0.002,6,-0.33,-0.70,9.09,39,0.140,8.23
6.2620,-0.08029,-0.01047,0.25307,0.00000,0.00000,0.00000,48,-11,52,6,73,11,48,8,ok,2,0,0.002,6,-0.33,-0.70,9.09,39,0.152,8.23
6.2745,-0.08029,-0.01047,0.25307,0.00000,0.00000,0.00000,48,-10,53,6,72,10,49,8,ok,2,0,0.002,6,-0.33,-0.70,9.09,39,0.165,8.23
6.2972,-0.08029,-0.01047,0.25307,0.00000,0.00000,0.00000,46,-10,54,7,72,6,49,9,ok,2,0,0.002,6,-0.33,-0.70,9.09,39,0.177,8.23
6.3004,-0.08029,-0.01047,0.25307,0.00000,0.00000,0.00000,44,-10,56,7,71,5,50,8,ok,2,0,0.002,6,-0.33,-0.70,9.09,39,0.190,8.23
6.3133,0.02094,-0.02618,0.27576,0.00000,0.00000,0.00000,44,-9,56,7,70,3,51,9,ok,2,0,0.002,6,-0.73,0.18,10.15,40,0.000,8.23
6.3331,0.02094,-0.02618,0.27576,0.00000,0.00000,0.00000,42,-8,57,7,69,1,51,8,ok,2,0,0.002,6,-0.73,0.18,10.15,40,0.013,8.23
6.3380,0.02094,-0.02618,0.27576,0.00000,0.00000,0.00000,40,-7,57,8,66,2,52,9,ok,2,0,0.002,6,-0.73,0.18,10.15,40,0.025,8.23
6.3505,0.02094,-0.02618,0.27576,0.00000,0.00000,0.00000,38,-5,58,7,65,-1,52,9,ok,2,0,0.002,6,-0.73,0.18,10.15,40,0.038,8.23
6.3732,0.02094,-0.02618,0.27576,0.00000,0.00000,0.00000,37,-3,59,8,64,-2,54,9,ok,2,0,0.002,6,-0.73,0.18,10.15,40,0.050,8.23
6.3763,0.02094,-0.02618,0.27576,0.00000,0.00000,0.00000,35,-1,59,9,62,-4,54,9,ok,2,0,0.002,6,-0.73,0.18,10.15,40,0.063,8.23
6.3892,0.02094,-0.02618,0.27576,0.00000,0.00000,0.00000,35,0,60,10,61,-5,54,8,ok,2,0,0.002,6,-0.73,0.18,10.15,40,0.076,8.23
6.4091,0.02094,-0.02618,0.27576,0.00000,0.00000,0.00000,34,1,61,9,59,-6,56,6,ok,2,0,0.002,6,-0.73,0.18,10.15,40,0.089,8.23
6.4140,0.02094,-0.02618,0.27576,0.00000,0.00000,0.00000,34,3,61,10,56,-6,57,7,ok,2,0,0.002,6,-0.73,0.18,10.15,40,0.101,8.23
6.4265,0.02094,-0.02618,0.27576,0.00000,0.00000,0.00000,32,6,61,10,54,-7,58,8,ok,2,0,0.002,6,-0.73,0.18,10.15,40,0.113,8.23
6.4492,0.02094,-0.02618,0.27576,0.00000,0.00000,0.00000,32,9,61,12,51,-6,58,8,ok,2,0,0.002,6,-0.73,0.18,10.15,40,0.126,8.23
6.4524,0.02094,-0.02618,0.27576,0.00000,0.00000,0.00000,32,11,62,11,48,-6,58,9,ok,2,0,0.002,6,-0.73,0.18,10.15,40,0.139,8.23
6.4650,0.02094,-0.02618,0.27576,0.00000,0.00000,0.00000,32,11,62,13,46,-6,60,10,ok,2,0,0.002,6,-0.73,0.18,10.15,40,0.152,8.23
6.4852,0.02094,-0.02618,0.27576,0.00000,0.00000,0.00000,32,11,62,13,43,-5,59,10,ok,2,0,0.002,6,-0.73,0.18,10.15,40,0.165,8.23
6.4901,0.02094,-0.02618,0.27576,0.00000,0.00000,0.00000,33,10,62,14,40,-5,60,11,ok,2,0,0.002,6,-0.73,0.18,10.15,40,0.177,8.23
6.5029,0.02094,-0.02618,0.27576,0.00000,0.00000,0.00000,34,9,62,14,37,-4,60,12,ok,2,0,0.002,6,-0.73,0.18,10.15,40,0.190,8.23
6.5252,-0.02269,0.03491,0.29496,0.00000,0.00000,0.00000,34,8,63,15,34,-3,61,13,ok,2,0,0.002,6,-0.00,-1.24,7.98,41,0.000,8.23
6.5283,-0.02269,0.03491,0.29496,0.00000,0.00000,0.00000,36,7,63,16,31,-2,61,13,ok,2,0,0.002,6,-0.00,-1.24,7.98,41,0.013,8.23
6.5410,-0.02269,0.03491,0.29496,0.00000,0.00000,0.00000,36,7,63,17,29,-1,62,14,ok,2,0,0.002,6,-0.00,-1.24,7.98,41,0.026,8.23
6.5611,-0.02269,0.03491,0.29496,0.00000,0.00000,0.00000,36,6,64,18,27,1,62,15,ok,2,0,0.002,6,-0.00,-1.24,7.98,41,0.038,8.23
6.5660,-0.02269,0.03491,0.29496,0.00000,0.00000,0.00000,37,5,64,20,25,4,63,15,ok,2,0,0.002,6,-0.00,-1.24,7.98,41,0.051,8.23
6.5784,-0.02269,0.03491,0.29496,0.00000,0.00000,0.00000,38,4,64,21,24,7,63,16,ok,2,0,0.002,6,-0.00,-1.24,7.98,41,0.063,8.23
6.6011,-0.02269,0.03491,0.29496,0.00000,0.00000,0.00000,38,4,64,22,23,11,63,18,ok,2,0,0.002,6,-0.00,-1.24,7.98,41,0.076,8.23
6.6043,-0.02269,0.03491,0.29496,0.00000,0.00000,0.00000,38,3,64,23,22,14,64,18,ok,2,0,0.002,6,-0.00,-1.24,7.98,41,0.089,8.23
6.6170,-0.02269,0.03491,0.29496,0.00000,0.00000,0.00000,39,3,63,26,24,13,64,19,ok,2,0,0.002,6,-0.00,-1.24,7.98,41,0.102,8.23
6.6371,-0.02269,0.03491,0.29496,0.00000,0.00000,0.00000,39,2,63,27,24,13,64,20,ok,2,0,0.002,7,-0.00,-1.24,7.98,41,0.114,8.23
6.6422,-0.02269,0.03491,0.29496,0.00000,0.00000,0.00000,40,2,64,26,25,11,64,21,ok,2,0,0.002,7,-0.00,-1.24,7.98,41,0.127,8.23
6.6545,-0.02269,0.03491,0.29496,0.00000,0.00000,0.00000,40,1,67,23,27,10,65,21,ok,2,0,0.002,7,-0.00,-1.24,7.98,41,0.139,8.23
6.6772,-0.02269,0.03491,0.29496,0.00000,0.00000,0.00000,41,1,69,19,28,10,65,23,ok,2,0,0.002,7,-0.00,-1.24,7.98,41,0.152,8.23
6.6803,-0.02269,0.03491,0.29496,0.00000,0.00000,0.00000,42,1,70,15,29,10,64,24,ok,2,0,0.002,7,-0.00,-1.24,7.98,41,0.165,8.23
6.6932,-0.02269,0.03491,0.29496,0.00000,0.00000,0.00000,42,1,70,12,30,9,64,26,ok,2,0,0.002,7,-0.00,-1.24,7.98,41,0.178,8.23
6.7132,-0.02269,0.03491,0.29496,0.00000,0.00000,0.00000,44,1,70,12,33,9,65,26,ok,2,0,0.002,7,-0.00,-1.24,7.98,41,0.190,8.23
6.7183,-0.12915,-0.01222,0.32463,0.00000,0.00000,0.00000,44,1,70,8,33,9,64,29,ok,2,0,0.002,7,-0.91,-2.14,9.16,42,0.000,8.23
6.7305,-0.12915,-0.01222,0.32463,0.00000,0.00000,0.00000,45,2,69,6,35,8,64,30,ok,2,0,0.002,7,-0.91,-2.14,9.16,42,0.013,8.23
6.7532,-0.12915,-0.01222,0.32463,0.00000,0.00000,0.00000,46,2,69,3,36,8,65,31,ok,2,0,0.002,7,-0.91,-2.14,9.16,42,0.025,8.23
6.7563,-0.12915,-0.01222,0.32463,0.00000,0.00000,0.00000,46,2,67,0,37,8,64,33,ok,2,0,0.002,7,-0.91,-2.14,9.16,42,0.038,8.23
6.7690,-0.12915,-0.01222,0.32463,0.00000,0.00000,0.00000,47,1,66,-1,38,8,64,35,ok,2,0,0.002,7,-0.91,-2.14,9.16,42,0.051,8.23
6.7892,-0.12915,-0.01222,0.32463,0.00000,0.00000,0.00000,48,2,64,-3,39,7,64,36,ok,2,0,0.002,7,-0.91,-2.14,9.16,42,0.064,8.23
6.7942,-0.12915,-0.01222,0.32463,0.00000,0.00000,0.00000,48,2,62,-4,40,7,65,36,ok,2,0,0.002,7,-0.91,-2.14,9.16,42,0.076,8.23
6.8065,-0.12915,-0.01222,0.32463,0.00000,0.00000,0.00000,48,2,61,-5,42,7,66,35,ok,2,0,0.002,7,-0.91,-2.14,9.16,42,0.089,8.23
6.8292,-0.12915,-0.01222,0.32463,0.00000,0.00000,0.00000,49,2,60,-7,43,7,67,33,ok,2,0,0.002,7,-0.91,-2.14,9.16,42,0.101,8.23
6.8323,-0.12915,-0.01222,0.32463,0.00000,0.00000,0.00000,50,3,58,-8,44,7,69,28,ok,2,0,0.002,7,-0.91,-2.14,9.16,42,0.114,8.23
6.8452,-0.12915,-0.01222,0.32463,0.00000,0.00000,0.00000,50,3,56,-9,45,7,71,24,ok,2,0,0.002,7,-0.91,-2.14,9.16,42,0.127,8.23
6.8651,-0.12915,-0.01222,0.32463,0.00000,0.00000,0.00000,50,3,54,-9,46,7,72,21,ok,2,0,0.002,7,-0.91,-2.14,9.16,42,0.140,8.23
6.8700,-0.12915,-0.01222,0.32463,0.00000,0.00000,0.00000,50,5,51,-10,47,7,72,21,ok,2,0,0.002,7,-0.91,-2.14,9.16,42,0.152,8.23
6.8827,-0.12915,-0.01222,0.32463,0.00000,0.00000,0.00000,51,6,49,-10,47,7,72,19,ok,2,0,0.002,7,-0.91,-2.14,9.16,42,0.165,8.23
6.9052,-0.12915,-0.01222,0.32463,0.00000,0.00000,0.00000,52,6,46,-10,48,7,72,15,ok,2,0,0.002,7,-0.91,-2.14,9.16,42,0.177,8.23
6.9083,-0.12915,-0.01222,0.32463,0.00000,0.00000,0.00000,52,6,44,-10,49,7,72,13,ok,2,0,0.002,7,-0.91,-2.14,9.16,42,0.190,8.23
6.9213,-0.12915,0.06283,0.34208,0.00000,0.00000,0.00000,52,7,42,-10,50,7,71,11,ok,2,0,0.002,7,0.73,-1.33,10.28,43,0.000,8.23
6.9411,-0.12915,0.06283,0.34208,0.00000,0.00000,0.00000,54,7,39,-10,50,7,70,7,ok,2,0,0.002,7,0.73,-1.33,10.28,43,0.012,8.23
6.9460,-0.12915,0.06283,0.34208,0.00000,0.00000,0.00000,54,7,37,-9,51,6,70,6,ok,2,0,0.002,7,0.73,-1.33,10.28,43,0.025,8.23
6.9585,-0.12915,0.06283,0.34208,0.00000,0.00000,0.00000,54,7,33,-8,52,7,69,4,ok,2,0,0.002,7,0.73,-1.33,10.28,43,0.038,8.23
6.9812,-0.12915,0.06283,0.34208,0.00000,0.00000,0.00000,54,8,30,-7,53,7,68,2,ok,2,0,0.002,7,0.73,-1.33,10.28,43,0.050,8.23
6.9843,-0.12915,0.06283,0.34208,0.00000,0.00000,0.00000,54,8,27,-6,54,8,66,2,ok,2,0,0.002,7,0.73,-1.33,10.28,43,0.063,8.23
6.9970,-0.12915,0.06283,0.34208,0.00000,0.00000,0.00000,54,9,24,-4,55,8,65,0,ok,2,0,0.002,7,0.73,-1.33,10.28,43,0.076,8.23
7.0171,-0.12915,0.06283,0.34208,0.00000,0.00000,0.00000,55,9,20,-2,56,8,64,-2,ok,2,0,0.002,7,0.73,-1.33,10.28,43,0.089,8.23
7.0220,-0.12915,0.06283,0.34208,0.00000,0.00000,0.00000,55,10,18,-1,58,6,62,-3,ok,2,0,0.002,7,0.73,-1.33,10.28,43,0.101,8.23
7.0345,-0.12915,0.06283,0.34208,0.00000,0.00000,0.00000,56,9,17,1,58,7,60,-4,ok,2,0,0.002,7,0.73,-1.33,10.28,43,0.114,8.23
7.0571,-0.12915,0.06283,0.34208,0.00000,0.00000,0.00000,56,10,16,3,59,8,58,-4,ok,2,0,0.002,7,0.73,-1.33,10.28,43,0.126,8.23
7.0603,-0.12915,0.06283,0.34208,0.00000,0.00000,0.00000,56,11,14,6,59,8,55,-5,ok,2,0,0.002,7,0.73,-1.33,10.28,43,0.139,8.23
7.0730,-0.12915,0.06283,0.34208,0.00000,0.00000,0.00000,56,12,13,9,60,9,54,-6,ok,2,0,0.002,7,0.73,-1.33,10.28,43,0.152,8.23
7.0931,-0.12915,0.06283,0.34208,0.00000,0.00000,0.00000,56,12,12,11,60,9,50,-5,ok,2,0,0.002,7,0.73,-1.33,10.28,43,0.165,8.23
7.0982,-0.12915,0.06283,0.34208,0.00000,0.00000,0.00000,56,13,14,12,61,9,48,-5,ok,2,0,0.002,7,0.73,-1.33,10.28,43,0.177,8.23
7.1104,-0.12915,0.06283,0.34208,0.00000,0.00000,0.00000,56,13,15,11,61,10,46,-5,ok,2,0,0.002,7,0.73,-1.33,10.28,43,0.190,8.23
7.1332,-0.05934,0.10123,0.33336,0.00000,0.00000,0.00000,56,14,16,10,61,10,43,-4,ok,2,0,0.002,7,-0.52,-0.30,10.94,44,0.000,8.23
7.1363,-0.05934,0.10123,0.33336,0.00000,0.00000,0.00000,56,15,18,9,62,12,41,-4,ok,2,0,0.002,7,-0.52,-0.30,10.94,44,0.013,8.23
7.1492,-0.05934,0.10123,0.33336,0.00000,0.00000,0.00000,56,15,18,8,62,12,37,-3,ok,2,0,0.002,7,-0.52,-0.30,10.94,44,0.026,8.23
7.1691,-0.05934,0.10123,0.33336,0.00000,0.00000,0.00000,56,16,20,7,62,13,35,-3,ok,2,0,0.002,7,-0.52,-0.30,10.94,44,0.039,8.23
7.1740,-0.05934,0.10123,0.33336,0.00000,0.00000,0.00000,56,18,21,7,62,14,31,-1,ok,2,0,0.002,7,-0.52,-0.30,10.94,44,0.051,8.23
7.1864,-0.05934,0.10123,0.33336,0.00000,0.00000,0.00000,57,19,22,6,63,14,30,0,ok,2,0,0.002,7,-0.52,-0.30,10.94,44,0.064,8.23
7.2091,-0.05934,0.10123,0.33336,0.00000,0.00000,0.00000,57,20,23,5,63,15,27,2,ok,2,0,0.002,7,-0.52,-0.30,10.94,44,0.076,8.23
7.2123,-0.05934,0.10123,0.33336,0.00000,0.00000,0.00000,57,21,23,4,63,16,25,5,ok,2,0,0.002,7,-0.52,-0.30,10.94,44,0.089,8.23
7.2252,-0.05934,0.10123,0.33336,0.00000,0.00000,0.00000,57,22,24,4,64,16,24,7,ok,2,0,0.002,7,-0.52,-0.30,10.94,44,0.102,8.23
7.2451,-0.05934,0.10123,0.33336,0.00000,0.00000,0.00000,58,23,25,3,64,17,23,11,ok,2,0,0.002,7,-0.52,-0.30,10.94,44,0.115,8.23
7.2500,-0.05934,0.10123,0.33336,0.00000,0.00000,0.00000,57,26,26,3,64,18,23,13,ok,2,0,0.002,7,-0.52,-0.30,10.94,44,0.127,8.23
7.2624,-0.05934,0.10123,0.33336,0.00000,0.00000,0.00000,56,26,27,2,64,19,25,12,ok,2,0,0.002,7,-0.52,-0.30,10.94,44,0.140,8.23
7.2852,-0.05934,0.10123,0.33336,0.00000,0.00000,0.00000,58,25,28,2,65,21,25,12,ok,2,0,0.002,7,-0.52,-0.30,10.94,44,0.152,8.23
7.2884,-0.05934,0.10123,0.33336,0.00000,0.00000,0.00000,58,21,29,2,65,22,26,10,ok,2,0,0.002,7,-0.52,-0.30,10.94,44,0.165,8.23
7.3012,-0.05934,0.10123,0.33336,0.00000,0.00000,0.00000,60,17,30,1,65,23,27,9,ok,2,0,0.002,7,-0.52,-0.30,10.94,44,0.178,8.23
7.3212,-0.05934,0.10123,0.33336,0.00000,0.00000,0.00000,60,13,32,2,64,25,28,10,ok,2,0,0.002,7,-0.52,-0.30,10.94,44,0.191,8.23
7.3262,-0.10472,0.02443,0.33685,0.00000,0.00000,0.00000,60,11,33,2,65,25,29,9,ok,2,0,0.002,7,-1.27,-1.25,10.56,45,0.000,8.23
7.3385,-0.10472,0.02443,0.33685,0.00000,0.00000,0.00000,60,10,35,2,64,27,31,9,ok,2,0,0.002,7,-1.27,-1.25,10.56,45,0.013,8.23
7.3611,-0.10472,0.02443,0.33685,0.00000,0.00000,0.00000,60,7,36,2,64,28,33,9,ok,2,0,0.002,7,-1.27,-1.25,10.56,45,0.025,8.23
7.3643,-0.10472,0.02443,0.33685,0.00000,0.00000,0.00000,60,4,38,3,64,30,34,9,ok,2,0,0.002,7,-1.27,-1.25,10.56,45,0.038,8.23
7.3772,-0.10472,0.02443,0.33685,0.00000,0.00000,0.00000,60,1,39,3,64,32,35,9,ok,2,0,0.002,7,-1.27,-1.25,10.56,45,0.051,8.23
7.3971,-0.10472,0.02443,0.33685,0.00000,0.00000,0.00000,59,-1,41,3,64,33,37,9,ok,2,0,0.002,7,-1.27,-1.25,10.56,45,0.064,8.23
7.4020,-0.10472,0.02443,0.33685,0.00000,0.00000,0.00000,58,-3,42,2,64,35,37,9,ok,2,0,0.002,7,-1.27,-1.25,10.56,45,0.076,8.23
7.4145,-0.10472,0.02443,0.33685,0.00000,0.00000,0.00000,58,-4,44,3,64,35,38,8,ok,2,0,0.002,7,-1.27,-1.25,10.56,45,0.089,8.23
7.4372,-0.10472,0.02443,0.33685,0.00000,0.00000,0.00000,57,-5,44,3,66,35,39,8,ok,2,0,0.002,7,-1.27,-1.25,10.56,45,0.101,8.23
7.4403,-0.10472,0.02443,0.33685,0.00000,0.00000,0.00000,56,-6,45,3,68,33,41,7,ok,2,0,0.002,7,-1.27,-1.25,10.56,45,0.114,8.23
7.4530,-0.10472,0.02443,0.33685,0.00000,0.00000,0.00000,56,-8,46,3,70,28,42,7,ok,2,0,0.002,7,-1.27,-1.25,10.56,45,0.127,8.23
7.4731,-0.10472,0.02443,0.33685,0.00000,0.00000,0.00000,54,-9,48,4,71,24,43,7,ok,2,0,0.002,7,-1.27,-1.25,10.56,45,0.140,8.23
7.4780,-0.10472,0.02443,0.33685,0.00000,0.00000,0.00000,54,-10,49,4,73,21,44,7,ok,2,0,0.002,7,-1.27,-1.25,10.56,45,0.152,8.23
7.4905,-0.10472,0.02443,0.33685,0.00000,0.00000,0.00000,52,-10,49,4,74,20,45,8,ok,2,0,0.002,7,-1.27,-1.25,10.56,45,0.165,8.23
7.5132,-0.10472,0.02443,0.33685,0.00000,0.00000,0.00000,51,-11,49,6,74,18,46,8,ok,2,0,0.002,7,-1.27,-1.25,10.56,45,0.177,8.23
7.5163,-0.10472,0.02443,0.33685,0.00000,0.00000,0.00000,50,-11,51,6,74,14,47,8,ok,2,0,0.002,7,-1.27,-1.25,10.56,45,0.190,8.23
7.5293,-0.10472,0.02443,0.33685,0.00000,0.00000,0.00000,48,-11,52,6,73,11,48,8,ok,2,0,0.002,7,-1.27,-1.25,10.56,45,0.203,8.23
7.5491,0.03316,-0.00524,0.35256,0.00000,0.00000,0.00000,47,-10,53,6,73,9,49,8,ok,2,0,0.002,7,0.45,0.52,9.76,46,0.000,8.23
7.5540,0.03316,-0.00524,0.35256,0.00000,0.00000,0.00000,46,-10,53,7,72,7,49,9,ok,2,0,0.002,7,0.45,0.52,9.76,46,0.012,8.23
7.5664,0.03316,-0.00524,0.35256,0.00000,0.00000,0.00000,44,-11,55,6,72,5,49,8,ok,2,0,0.002,7,0.45,0.52,9.76,46,0.025,8.23
7.5891,0.03316,-0.00524,0.35256,0.00000,0.00000,0.00000,43,-9,56,6,71,4,50,9,ok,2,0,0.002,7,0.45,0.52,9.76,46,0.037,8.23
7.5922,0.03316,-0.00524,0.35256,0.00000,0.00000,0.00000,42,-8,57,6,70,1,51,8,ok,2,0,0.002,7,0.45,0.52,9.76,46,0.051,8.23
7.6050,0.03316,-0.00524,0.35256,0.00000,0.00000,0.00000,40,-6,57,7,67,2,52,9,ok,2,0,0.002,7,0.45,0.52,9.76,46,0.063,8.23
7.6251,0.03316,-0.00524,0.35256,0.00000,0.00000,0.00000,38,-5,58,7,65,-1,52,8,ok,2,0,0.002,7,0.45,0.52,9.76,46,0.076,8.23
7.6300,0.03316,-0.00524,0.35256,0.00000,0.00000,0.00000,37,-3,58,7,64,-3,54,9,ok,2,0,0.002,7,0.45,0.52,9.76,46,0.088,8.23
7.6425,0.03316,-0.00524,0.35256,0.00000,0.00000,0.00000,35,0,59,8,62,-4,55,8,ok,2,0,0.002,8,0.45,0.52,9.76,46,0.101,8.23
7.6651,0.03316,-0.00524,0.35256,0.00000,0.00000,0.00000,35,0,60,10,61,-5,54,8,ok,2,0,0.002,8,0.45,0.52,9.76,46,0.113,8.23
7.6684,0.03316,-0.00524,0.35256,0.00000,0.00000,0.00000,34,1,61,10,58,-6,56,6,ok,2,0,0.002,8,0.45,0.52,9.76,46,0.127,8.23
7.6812,0.03316,-0.00524,0.35256,0.00000,0.00000,0.00000,34,2,61,11,56,-7,57,7,ok,2,0,0.002,8,0.45,0.52,9.76,46,0.139,8.23
7.7011,0.03316,-0.00524,0.35256,0.00000,0.00000,0.00000,32,5,61,11,54,-7,58,8,ok,2,0,0.002,8,0.45,0.52,9.76,46,0.152,8.23
7.7060,0.03316,-0.00524,0.35256,0.00000,0.00000,0.00000,32,8,61,12,51,-6,58,9,ok,2,0,0.002,8,0.45,0.52,9.76,46,0.164,8.23
7.7185,0.03316,-0.00524,0.35256,0.00000,0.00000,0.00000,31,10,61,12,48,-6,59,9,ok,2,0,0.002,8,0.45,0.52,9.76,46,0.177,8.23
7.7412,0.03316,-0.00524,0.35256,0.00000,0.00000,0.00000,32,11,62,13,46,-6,60,10,ok,2,0,0.002,8,0.45,0.52,9.76,46,0.189,8.23
7.7445,-0.01920,0.05760,0.38397,0.00000,0.00000,0.00000,32,11,61,14,43,-5,59,10,ok,2,0,0.002,8,0.49,-0.32,9.80,47,0.000,8.23
7.7570,-0.01920,0.05760,0.38397,0.00000,0.00000,0.00000,33,9,62,14,40,-5,60,11,ok,2,0,0.002,8,0.49,-0.32,9.80,47,0.013,8.23
7.7771,-0.01920,0.05760,0.38397,0.00000,0.00000,0.00000,34,9,62,15,37,-4,61,12,ok,2,0,0.002,8,0.49,-0.32,9.80,47,0.025,8.23
7.7820,-0.01920,0.05760,0.38397,0.00000,0.00000,0.00000,34,8,62,15,34,-4,61,13,ok,2,0,0.002,8,0.49,-0.32,9.80,47,0.038,8.23
7.7947,-0.01920,0.05760,0.38397,0.00000,0.00000,0.00000,35,7,63,16,31,-2,61,13,ok,2,0,0.002,8,0.49,-0.32,9.80,47,0.050,8.23
7.8171,-0.01920,0.05760,0.38397,0.00000,0.00000,0.00000,36,7,62,17,29,-1,62,14,ok,2,0,0.002,8,0.49,-0.32,9.80,47,0.063,8.23
7.8203,-0.01920,0.05760,0.38397,0.00000,0.00000,0.00000,36,5,64,18,28,1,62,15,ok,2,0,0.002,8,0.49,-0.32,9.80,47,0.076,8.23
7.8330,-0.01920,0.05760,0.38397,0.00000,0.00000,0.00000,36,4,64,20,25,4,63,15,ok,2,0,0.002,8,0.49,-0.32,9.80,47,0.089,8.23
7.8531,-0.01920,0.05760,0.38397,0.00000,0.00000,0.00000,37,4,64,21,24,7,63,17,ok,2,0,0.002,8,0.49,-0.32,9.80,47,0.101,8.23
7.8580,-0.01920,0.05760,0.38397,0.00000,0.00000,0.00000,38,3,64,22,23,11,63,18,ok,2,0,0.002,8,0.49,-0.32,9.80,47,0.114,8.23
7.8704,-0.01920,0.05760,0.38397,0.00000,0.00000,0.00000,38,3,64,23,22,14,64,18,ok,2,0,0.002,8,0.49,-0.32,9.80,47,0.126,8.23
7.8931,-0.01920,0.05760,0.38397,0.00000,0.00000,0.00000,38,3,63,26,24,13,64,19,ok,2,0,0.002,8,0.49,-0.32,9.80,47,0.139,8.23
7.8963,-0.01920,0.05760,0.38397,0.00000,0.00000,0.00000,39,2,63,27,24,13,64,20,ok,2,0,0.002,8,0.49,-0.32,9.80,47,0.152,8.23
7.9090,-0.01920,0.05760,0.38397,0.00000,0.00000,0.00000,40,2,64,26,26,11,64,21,ok,2,0,0.002,8,0.49,-0.32,9.80,47,0.165,8.23
7.9291,-0.01920,0.05760,0.38397,0.00000,0.00000,0.00000,40,1,66,22,27,10,65,21,ok,2,0,0.002,8,0.49,-0.32,9.80,47,0.177,8.23
7.9342,-0.01920,0.05760,0.38397,0.00000,0.00000,0.00000,41,1,69,19,28,10,65,22,ok,2,0,0.002,8,0.49,-0.32,9.80,47,0.190,8.23
7.9467,-0.06283,-0.00524,0.39095,0.00000,0.00000,0.00000,42,1,70,15,29,10,64,24,ok,2,0,0.002,8,-0.67,-1.34,9.14,48,0.000,8.23
7.9692,-0.06283,-0.00524,0.39095,0.00000,0.00000,0.00000,42,1,70,12,31,9,65,26,ok,2,0,0.002,8,-0.67,-1.34,9.14,48,0.013,8.23
7.9723,-0.06283,-0.00524,0.39095,0.00000,0.00000,0.00000,44,1,70,12,33,9,65,26,ok,2,0,0.002,8,-0.67,-1.34,9.14,48,0.026,8.23
7.9852,-0.06283,-0.00524,0.39095,0.00000,0.00000,0.00000,44,1,70,8,33,9,65,29,ok,2,0,0.002,8,-0.67,-1.34,9.14,48,0.039,8.23
8.0051,-0.06283,-0.00524,0.39095,0.00000,0.00000,0.00000,45,2,69,6,35,9,64,30,ok,2,0,0.002,8,-0.67,-1.34,9.14,48,0.051,8.23
8.0102,-0.06283,-0.00524,0.39095,0.00000,0.00000,0.00000,46,2,69,3,36,8,64,31,ok,2,0,0.002,8,-0.67,-1.34,9.14,48,0.063,8.23
8.0224,-0.06283,-0.00524,0.39095,0.00000,0.00000,0.00000,46,2,67,0,37,9,64,33,ok,2,0,0.002,8,-0.67,-1.34,9.14,48,0.076,8.23
8.0451,-0.06283,-0.00524,0.39095,0.00000,0.00000,0.00000,47,2,66,-2,39,8,64,34,ok,2,0,0.002,8,-0.67,-1.34,9.14,48,0.089,8.23
8.0483,-0.06283,-0.00524,0.39095,0.00000,0.00000,0.00000,48,2,65,-3,40,8,63,36,ok,2,0,0.002,8,-0.67,-1.34,9.14,48,0.102,8.23
8.0611,-0.06283,-0.00524,0.39095,0.00000,0.00000,0.00000,48,2,62,-4,41,7,64,36,ok,2,0,0.002,8,-0.67,-1.34,9.14,48,0.115,8.23
8.0811,-0.06283,-0.00524,0.39095,0.00000,0.00000,0.00000,48,3,61,-6,42,7,65,35,ok,2,0,0.002,8,-0.67,-1.34,9.14,48,0.127,8.23
8.0862,-0.06283,-0.00524,0.39095,0.00000,0.00000,0.00000,49,3,60,-8,43,7,67,33,ok,2,0,0.002,8,-0.67,-1.34,9.14,48,0.140,8.23
8.0985,-0.06283,-0.00524,0.39095,0.00000,0.00000,0.00000,50,4,58,-8,44,7,69,27,ok,2,0,0.002,8,-0.67,-1.34,9.14,48,0.152,8.23
8.1211,-0.06283,-0.00524,0.39095,0.00000,0.00000,0.00000,50,3,56,-9,45,7,70,24,ok,2,0,0.002,8,-0.67,-1.34,9.14,48,0.165,8.23
8.1243,-0.06283,-0.00524,0.39095,0.00000,0.00000,0.00000,50,3,54,-9,46,7,72,21,ok,2,0,0.002,8,-0.67,-1.34,9.14,48,0.178,8.23
8.1372,-0.06283,-0.00524,0.39095,0.00000,0.00000,0.00000,50,5,51,-10,47,7,72,21,ok,2,0,0.002,8,-0.67,-1.34,9.14,48,0.190,8.23
8.1571,-0.06283,-0.00524,0.39095,0.00000,0.00000,0.00000,51,6,49,-10,47,7,72,19,ok,2,0,0.002,8,-0.67,-1.34,9.14,48,0.203,8.23
8.1622,-0.10821,-0.01396,0.51487,0.00000,0.00000,0.00000,52,6,46,-10,49,7,72,15,ok,2,0,0.002,8,-0.63,-1.01,9.84,49,0.000,8.23
8.1744,-0.10821,-0.01396,0.51487,0.00000,0.00000,0.00000,52,6,44,-10,49,7,72,12,ok,2,0,0.002,8,-0.63,-1.01,9.84,49,0.013,8.23
8.1972,-0.10821,-0.01396,0.51487,0.00000,0.00000,0.00000,52,7,42,-10,50,7,71,11,ok,2,0,0.002,8,-0.63,-1.01,9.84,49,0.025,8.23
8.2003,-0.10821,-0.01396,0.51487,0.00000,0.00000,0.00000,54,7,39,-10,51,7,71,7,ok,2,0,0.002,8,-0.63,-1.01,9.84,49,0.038,8.23
8.2130,-0.10821,-0.01396,0.51487,0.00000,0.00000,0.00000,54,7,37,-9,52,6,71,6,ok,2,0,0.002,8,-0.63,-1.01,9.84,49,0.051,8.23
8.2331,-0.10821,-0.01396,0.51487,0.00000,0.00000,0.00000,54,7,33,-8,52,7,70,4,ok,2,0,0.002,8,-0.63,-1.01,9.84,49,0.064,8.23
8.2382,-0.10821,-0.01396,0.51487,0.00000,0.00000,0.00000,54,8,31,-7,53,7,68,2,ok,2,0,0.002,8,-0.63,-1.01,9.84,49,0.076,8.23
8.2505,-0.10821,-0.01396,0.51487,0.00000,0.00000,0.00000,54,8,27,-6,54,8,66,2,ok,2,0,0.002,8,-0.63,-1.01,9.84,49,0.089,8.23
8.2732,-0.10821,-0.01396,0.51487,0.00000,0.00000,0.00000,54,8,24,-4,55,8,65,0,ok,2,0,0.002,8,-0.63,-1.01,9.84,49,0.101,8.23
8.2764,-0.10821,-0.01396,0.51487,0.00000,0.00000,0.00000,55,9,21,-2,56,8,64,-2,ok,2,0,0.002,8,-0.63,-1.01,9.84,49,0.114,8.23
8.2893,-0.10821,-0.01396,0.51487,0.00000,0.00000,0.00000,56,10,19,-1,58,6,62,-3,ok,2,0,0.002,8,-0.63,-1.01,9.84,49,0.127,8.23
8.3091,-0.10821,-0.01396,0.51487,0.00000,0.00000,0.00000,56,10,18,1,58,7,60,-4,ok,2,0,0.002,8,-0.63,-1.01,9.84,49,0.140,8.23
8.3140,-0.10821,-0.01396,0.51487,0.00000,0.00000,0.00000,56,11,16,3,59,8,58,-4,ok,2,0,0.002,8,-0.63,-1.01,9.84,49,0.152,8.23
8.3266,-0.10821,-0.01396,0.51487,0.00000,0.00000,0.00000,56,11,15,6,59,8,55,-5,ok,2,0,0.002,8,-0.63,-1.01,9.84,49,0.165,8.23
8.3492,-0.10821,-0.01396,0.51487,0.00000,0.00000,0.00000,56,12,13,9,59,9,53,-6,ok,2,0,0.002,8,-0.63,-1.01,9.84,49,0.177,8.23
8.3523,-0.10821,-0.01396,0.51487,0.00000,0.00000,0.00000,56,12,13,12,60,9,50,-5,ok,2,0,0.002,8,-0.63,-1.01,9.84,49,0.190,8.23
8.3653,0.00000,0.09076,0.44331,0.00000,0.00000,0.00000,56,13,14,12,60,9,48,-5,ok,2,0,0.002,8,1.98,0.46,11.01,50,0.000,8.23
8.3851,0.00000,0.09076,0.44331,0.00000,0.00000,0.00000,56,14,15,11,61,10,45,-5,ok,2,0,0.002,8,1.98,0.46,11.01,50,0.013,8.23
8.3900,0.00000,0.09076,0.44331,0.00000,0.00000,0.00000,56,14,17,10,61,11,42,-4,ok,2,0,0.002,8,1.98,0.46,11.01,50,0.025,8.23
8.4024,0.00000,0.09076,0.44331,0.00000,0.00000,0.00000,56,15,18,9,61,12,40,-4,ok,2,0,0.002,8,1.98,0.46,11.01,50,0.038,8.23
8.4251,0.00000,0.09076,0.44331,0.00000,0.00000,0.00000,56,16,19,9,62,12,36,-3,ok,2,0,0.002,8,1.98,0.46,11.01,50,0.050,8.23
8.4283,0.00000,0.09076,0.44331,0.00000,0.00000,0.00000,56,17,21,7,62,13,34,-3,ok,2,0,0.002,8,1.98,0.46,11.01,50,0.063,8.23
8.4409,0.00000,0.09076,0.44331,0.00000,0.00000,0.00000,56,18,21,7,62,14,30,-1,ok,2,0,0.002,8,1.98,0.46,11.01,50,0.076,8.23
8.4611,0.00000,0.09076,0.44331,0.00000,0.00000,0.00000,57,19,22,6,63,14,29,0,ok,2,0,0.002,8,1.98,0.46,11.01,50,0.089,8.23
8.4660,0.00000,0.09076,0.44331,0.00000,0.00000,0.00000,57,20,23,5,63,15,27,2,ok,2,0,0.002,8,1.98,0.46,11.01,50,0.101,8.23
8.4784,0.00000,0.09076,0.44331,0.00000,0.00000,0.00000,58,21,23,4,63,16,25,5,ok,2,0,0.002,8,1.98,0.46,11.01,50,0.114,8.23
8.5011,0.00000,0.09076,0.44331,0.00000,0.00000,0.00000,58,22,25,4,63,17,24,7,ok,2,0,0.002,8,1.98,0.46,11.01,50,0.126,8.23
8.5043,0.00000,0.09076,0.44331,0.00000,0.00000,0.00000,58,23,25,3,64,17,23,11,ok,2,0,0.002,8,1.98,0.46,11.01,50,0.139,8.23
8.5170,0.00000,0.09076,0.44331,0.00000,0.00000,0.00000,57,25,26,3,64,19,23,13,ok,2,0,0.002,8,1.98,0.46,11.01,50,0.152,8.23
8.5371,0.00000,0.09076,0.44331,0.00000,0.00000,0.00000,56,26,27,2,64,20,25,12,ok,2,0,0.002,8,1.98,0.46,11.01,50,0.165,8.23
8.5420,0.00000,0.09076,0.44331,0.00000,0.00000,0.00000,58,25,28,2,65,21,25,12,ok,2,0,0.002,8,1.98,0.46,11.01,50,0.177,8.23
8.5547,0.00000,0.09076,0.44331,0.00000,0.00000,0.00000,58,21,29,2,65,22,26,10,ok,2,0,0.002,8,1.98,0.46,11.01,50,0.189,8.23
8.5771,-0.13788,0.06283,0.50440,0.00000,0.00000,0.00000,60,17,31,1,64,23,27,9,ok,2,0,0.002,8,-0.11,-1.46,9.58,51,0.000,8.23
8.5803,-0.13788,0.06283,0.50440,0.00000,0.00000,0.00000,60,13,32,2,64,24,28,10,ok,2,0,0.002,8,-0.11,-1.46,9.58,51,0.013,8.23
8.5930,-0.13788,0.06283,0.50440,0.00000,0.00000,0.00000,60,10,33,2,65,25,30,10,ok,2,0,0.002,8,-0.11,-1.46,9.58,51,0.026,8.23
8.6131,-0.13788,0.06283,0.50440,0.00000,0.00000,0.00000,60,10,35,2,64,27,31,9,ok,2,0,0.002,8,-0.11,-1.46,9.58,51,0.039,8.23
8.6182,-0.13788,0.06283,0.50440,0.00000,0.00000,0.00000,60,6,36,2,63,28,33,9,ok,2,0,0.002,8,-0.11,-1.46,9.58,51,0.051,8.23
8.6304,-0.13788,0.06283,0.50440,0.00000,0.00000,0.00000,60,4,38,3,64,30,34,9,ok,2,0,0.002,8,-0.11,-1.46,9.58,51,0.064,8.23
8.6531,-0.13788,0.06283,0.50440,0.00000,0.00000,0.00000,60,1,39,3,64,32,35,9,ok,2,0,0.002,8,-0.11,-1.46,9.58,51,0.076,8.23
8.6565,-0.13788,0.06283,0.50440,0.00000,0.00000,0.00000,59,-2,41,3,64,33,36,9,ok,2,0,0.002,9,-0.11,-1.46,9.58,51,0.089,8.23
8.6691,-0.13788,0.06283,0.50440,0.00000,0.00000,0.00000,58,-3,42,3,64,35,37,9,ok,2,0,0.002,9,-0.11,-1.46,9.58,51,0.102,8.23
8.6892,-0.13788,0.06283,0.50440,0.00000,0.00000,0.00000,58,-5,44,3,65,35,38,8,ok,2,0,0.002,9,-0.11,-1.46,9.58,51,0.115,8.23
8.6941,-0.13788,0.06283,0.50440,0.00000,0.00000,0.00000,56,-5,44,3,66,35,39,8,ok,2,0,0.002,9,-0.11,-1.46,9.58,51,0.127,8.23
8.7067,-0.13788,0.06283,0.50440,0.00000,0.00000,0.00000,56,-6,45,3,68,33,41,7,ok,2,0,0.002,9,-0.11,-1.46,9.58,51,0.140,8.23
8.7292,-0.13788,0.06283,0.50440,0.00000,0.00000,0.00000,56,-8,46,3,70,28,42,8,ok,2,0,0.002,9,-0.11,-1.46,9.58,51,0.152,8.23
8.7323,-0.13788,0.06283,0.50440,0.00000,0.00000,0.00000,54,-9,47,4,71,24,44,8,ok,2,0,0.002,9,-0.11,-1.46,9.58,51,0.165,8.23
8.7450,-0.13788,0.06283,0.50440,0.00000,0.00000,0.00000,54,-10,49,4,73,21,44,8,ok,2,0,0.002,9,-0.11,-1.46,9.58,51,0.178,8.23
8.7651,0.05411,0.07156,0.50440,0.00000,0.00000,0.00000,52,-10,49,3,74,20,45,8,ok,2,0,0.002,9,0.73,0.66,9.86,52,0.000,8.23
8.7700,0.05411,0.07156,0.50440,0.00000,0.00000,0.00000,51,-11,49,5,74,19,45,7,ok,2,0,0.002,9,0.73,0.66,9.86,52,0.013,8.23
8.7824,0.05411,0.07156,0.50440,0.00000,0.00000,0.00000,50,-11,50,6,74,15,46,8,ok,2,0,0.002,9,0.73,0.66,9.86,52,0.025,8.23
8.8052,0.05411,0.07156,0.50440,0.00000,0.00000,0.00000,48,-10,51,5,74,12,47,8,ok,2,0,0.002,9,0.73,0.66,9.86,52,0.038,8.23
8.8085,0.05411,0.07156,0.50440,0.00000,0.00000,0.00000,47,-9,53,5,74,10,48,8,ok,2,0,0.002,9,0.73,0.66,9.86,52,0.051,8.23
8.8210,0.05411,0.07156,0.50440,0.00000,0.00000,0.00000,46,-9,53,6,73,7,49,9,ok,2,0,0.002,9,0.73,0.66,9.86,52,0.064,8.23
8.8411,0.05411,0.07156,0.50440,0.00000,0.00000,0.00000,44,-10,55,6,72,5,49,8,ok,2,0,0.002,9,0.73,0.66,9.86,52,0.076,8.23
8.8461,0.05411,0.07156,0.50440,0.00000,0.00000,0.00000,43,-8,55,6,71,4,51,9,ok,2,0,0.002,9,0.73,0.66,9.86,52,0.088,8.23
8.8587,0.05411,0.07156,0.50440,0.00000,0.00000,0.00000,42,-7,56,6,69,1,52,7,ok,2,0,0.002,9,0.73,0.66,9.86,52,0.101,8.23
8.8812,0.05411,0.07156,0.50440,0.00000,0.00000,0.00000,40,-6,57,7,66,1,52,8,ok,2,0,0.002,9,0.73,0.66,9.86,52,0.114,8.23
8.8843,0.05411,0.07156,0.50440,0.00000,0.00000,0.00000,38,-5,57,7,65,-1,52,8,ok,2,0,0.002,9,0.73,0.66,9.86,52,0.127,8.23
8.8970,0.05411,0.07156,0.50440,0.00000,0.00000,0.00000,37,-4,58,8,64,-2,54,9,ok,2,0,0.002,9,0.73,0.66,9.86,52,0.139,8.23
8.9171,0.05411,0.07156,0.50440,0.00000,0.00000,0.00000,35,-2,59,9,62,-4,55,8,ok,2,0,0.002,9,0.73,0.66,9.86,52,0.152,8.23
8.9220,0.05411,0.07156,0.50440,0.00000,0.00000,0.00000,34,-2,59,11,61,-5,55,8,ok,2,0,0.002,9,0.73,0.66,9.86,52,0.164,8.23
8.9345,0.05411,0.07156,0.50440,0.00000,0.00000,0.00000,34,-1,60,10,59,-6,57,6,ok,2,0,0.002,9,0.73,0.66,9.86,52,0.177,8.23
8.9572,0.05411,0.07156,0.50440,0.00000,0.00000,0.00000,33,1,60,11,56,-6,57,7,ok,2,0,0.002,9,0.73,0.66,9.86,52,0.189,8.23
8.9605,0.05411,0.07156,0.50440,0.00000,0.00000,0.00000,32,4,60,11,54,-7,58,8,ok,2,0,0.002,9,0.73,0.66,9.86,52,0.203,8.23
8.9733,-0.06458,0.00349,0.50789,0.00000,0.00000,0.00000,32,8,60,12,51,-6,59,8,ok,2,0,0.002,9,-0.04,-0.96,9.80,53,0.000,8.23
8.9931,-0.06458,0.00349,0.50789,0.00000,0.00000,0.00000,31,10,61,12,48,-6,59,9,ok,2,0,0.002,9,-0.04,-0.96,9.80,53,0.012,8.23
8.9980,-0.06458,0.00349,0.50789,0.00000,0.00000,0.00000,32,10,61,13,46,-6,60,10,ok,2,0,0.002,9,-0.04,-0.96,9.80,53,0.025,8.23
9.0104,-0.06458,0.00349,0.50789,0.00000,0.00000,0.00000,32,10,61,14,43,-5,60,10,ok,2,0,0.002,9,-0.04,-0.96,9.80,53,0.038,8.23
9.0332,-0.06458,0.00349,0.50789,0.00000,0.00000,0.00000,33,8,62,14,40,-5,61,11,ok,2,0,0.002,9,-0.04,-0.96,9.80,53,0.050,8.23
9.0365,-0.06458,0.00349,0.50789,0.00000,0.00000,0.00000,34,8,62,15,37,-4,62,12,ok,2,0,0.002,9,-0.04,-0.96,9.80,53,0.063,8.23
9.0490,-0.06458,0.00349,0.50789,0.00000,0.00000,0.00000,34,7,62,16,35,-4,62,13,ok,2,0,0.002,9,-0.04,-0.96,9.80,53,0.076,8.23
9.0692,-0.06458,0.00349,0.50789,0.00000,0.00000,0.00000,35,6,63,16,31,-2,62,13,ok,2,0,0.002,9,-0.04,-0.96,9.80,53,0.089,8.23
9.0740,-0.06458,0.00349,0.50789,0.00000,0.00000,0.00000,35,6,63,17,30,0,63,14,ok,2,0,0.002,9,-0.04,-0.96,9.80,53,0.101,8.23
9.0867,-0.06458,0.00349,0.50789,0.00000,0.00000,0.00000,36,5,64,19,28,1,63,15,ok,2,0,0.002,9,-0.04,-0.96,9.80,53,0.113,8.23
9.1091,-0.06458,0.00349,0.50789,0.00000,0.00000,0.00000,36,4,64,20,26,4,64,15,ok,2,0,0.002,9,-0.04,-0.96,9.80,53,0.126,8.23
9.1123,-0.06458,0.00349,0.50789,0.00000,0.00000,0.00000,37,4,64,21,24,7,63,17,ok,2,0,0.002,9,-0.04,-0.96,9.80,53,0.139,8.23
9.1250,-0.06458,0.00349,0.50789,0.00000,0.00000,0.00000,38,4,64,22,23,11,63,18,ok,2,0,0.002,9,-0.04,-0.96,9.80,53,0.152,8.23
9.1451,-0.06458,0.00349,0.50789,0.00000,0.00000,0.00000,38,4,64,23,22,14,64,18,ok,2,0,0.002,9,-0.04,-0.96,9.80,53,0.165,8.23
9.1500,-0.06458,0.00349,0.50789,0.00000,0.00000,0.00000,39,3,63,26,24,13,64,19,ok,2,0,0.002,9,-0.04,-0.96,9.80,53,0.177,8.23
9.1624,-0.06458,0.00349,0.50789,0.00000,0.00000,0.00000,40,3,63,27,24,13,64,20,ok,2,0,0.002,9,-0.04,-0.96,9.80,53,0.190,8.23
9.1852,-0.12915,0.02094,0.50615,0.00000,0.00000,0.00000,40,2,64,25,25,11,64,21,ok,2,0,0.002,9,-0.84,-0.74,8.65,54,0.000,8.23
9.1883,-0.12915,0.02094,0.50615,0.00000,0.00000,0.00000,40,2,67,23,26,10,65,22,ok,2,0,0.002,9,-0.84,-0.74,8.65,54,0.013,8.23
9.2010,-0.12915,0.02094,0.50615,0.00000,0.00000,0.00000,41,1,69,19,27,10,65,23,ok,2,0,0.002,9,-0.84,-0.74,8.65,54,0.026,8.23
9.2211,-0.12915,0.02094,0.50615,0.00000,0.00000,0.00000,42,1,70,15,29,9,64,24,ok,2,0,0.002,9,-0.84,-0.74,8.65,54,0.038,8.23
9.2260,-0.12915,0.02094,0.50615,0.00000,0.00000,0.00000,42,1,70,13,30,8,65,26,ok,2,0,0.002,9,-0.84,-0.74,8.65,54,0.051,8.23
9.2385,-0.12915,0.02094,0.50615,0.00000,0.00000,0.00000,44,1,70,12,32,8,65,27,ok,2,0,0.002,9,-0.84,-0.74,8.65,54,0.063,8.23
9.2612,-0.12915,0.02094,0.50615,0.00000,0.00000,0.00000,44,1,70,9,33,9,64,29,ok,2,0,0.002,9,-0.84,-0.74,8.65,54,0.076,8.23
9.2645,-0.12915,0.02094,0.50615,0.00000,0.00000,0.00000,45,2,69,6,35,8,64,30,ok,2,0,0.002,9,-0.84,-0.74,8.65,54,0.089,8.23
9.2770,-0.12915,0.02094,0.50615,0.00000,0.00000,0.00000,46,2,68,3,36,8,64,32,ok,2,0,0.002,9,-0.84,-0.74,8.65,54,0.102,8.23
9.2971,-0.12915,0.02094,0.50615,0.00000,0.00000,0.00000,46,2,67,1,37,8,64,33,ok,2,0,0.002,9,-0.84,-0.74,8.65,54,0.115,8.23
9.3020,-0.12915,0.02094,0.50615,0.00000,0.00000,0.00000,47,2,66,-1,39,8,64,35,ok,2,0,0.002,9,-0.84,-0.74,8.65,54,0.127,8.23
9.3145,-0.12915,0.02094,0.50615,0.00000,0.00000,0.00000,48,2,64,-3,39,7,63,36,ok,2,0,0.002,9,-0.84,-0.74,8.65,54,0.140,8.23
9.3372,-0.12915,0.02094,0.50615,0.00000,0.00000,0.00000,48,3,62,-4,41,6,64,36,ok,2,0,0.002,9,-0.84,-0.74,8.65,54,0.152,8.23
9.3403,-0.12915,0.02094,0.50615,0.00000,0.00000,0.00000,48,3,61,-6,42,6,66,35,ok,2,0,0.002,9,-0.84,-0.74,8.65,54,0.165,8.23
9.3530,-0.12915,0.02094,0.50615,0.00000,0.00000,0.00000,49,3,60,-8,43,6,67,33,ok,2,0,0.002,9,-0.84,-0.74,8.65,54,0.178,8.23
9.3732,-0.12915,0.02094,0.50615,0.00000,0.00000,0.00000,50,4,58,-8,44,6,69,28,ok,2,0,0.002,9,-0.84,-0.74,8.65,54,0.190,8.23
9.3783,-0.06981,0.08901,0.52709,0.00000,0.00000,0.00000,50,3,55,-9,45,6,71,24,ok,2,0,0.002,9,0.71,-0.33,10.20,55,0.000,8.23
9.3907,-0.06981,0.08901,0.52709,0.00000,0.00000,0.00000,50,3,53,-9,46,7,72,21,ok,2,0,0.002,9,0.71,-0.33,10.20,55,0.013,8.23
9.4131,-0.06981,0.08901,0.52709,0.00000,0.00000,0.00000,50,5,51,-10,47,7,72,21,ok,2,0,0.002,9,0.71,-0.33,10.20,55,0.025,8.23
9.4162,-0.06981,0.08901,0.52709,0.00000,0.00000,0.00000,51,6,49,-10,48,7,72,19,ok,2,0,0.002,9,0.71,-0.33,10.20,55,0.038,8.23
9.4292,-0.06981,0.08901,0.52709,0.00000,0.00000,0.00000,52,6,46,-10,49,7,72,15,ok,2,0,0.002,9,0.71,-0.33,10.20,55,0.051,8.23
9.4491,-0.06981,0.08901,0.52709,0.00000,0.00000,0.00000,52,6,44,-10,49,7,71,12,ok,2,0,0.002,9,0.71,-0.33,10.20,55,0.063,8.23
9.4540,-0.06981,0.08901,0.52709,0.00000,0.00000,0.00000,52,7,41,-10,50,7,71,11,ok,2,0,0.002,9,0.71,-0.33,10.20,55,0.076,8.23
9.4664,-0.06981,0.08901,0.52709,0.00000,0.00000,0.00000,53,7,38,-11,51,7,71,7,ok,2,0,0.002,9,0.71,-0.33,10.20,55,0.089,8.23
9.4892,-0.06981,0.08901,0.52709,0.00000,0.00000,0.00000,53,7,36,-10,52,6,71,6,ok,2,0,0.002,9,0.71,-0.33,10.20,55,0.101,8.23
9.4924,-0.06981,0.08901,0.52709,0.00000,0.00000,0.00000,54,7,32,-9,52,7,70,4,ok,2,0,0.002,9,0.71,-0.33,10.20,55,0.114,8.23
9.5050,-0.06981,0.08901,0.52709,0.00000,0.00000,0.00000,54,8,30,-7,53,7,68,2,ok,2,0,0.003,9,0.71,-0.33,10.20,55,0.127,8.23
9.5251,-0.06981,0.08901,0.52709,0.00000,0.00000,0.00000,54,8,26,-6,54,8,66,2,ok,2,0,0.003,9,0.71,-0.33,10.20,55,0.140,8.23
9.5300,-0.06981,0.08901,0.52709,0.00000,0.00000,0.00000,54,8,24,-5,55,8,65,0,ok,2,0,0.003,9,0.71,-0.33,10.20,55,0.152,8.23
9.5424,-0.06981,0.08901,0.52709,0.00000,0.00000,0.00000,55,9,20,-2,56,8,64,-2,ok,2,0,0.003,9,0.71,-0.33,10.20,55,0.165,8.23
9.5652,-0.06981,0.08901,0.52709,0.00000,0.00000,0.00000,55,9,18,-1,58,6,62,-3,ok,2,0,0.003,9,0.71,-0.33,10.20,55,0.177,8.23
9.5685,-0.06981,0.08901,0.52709,0.00000,0.00000,0.00000,56,9,17,0,58,7,60,-4,ok,2,0,0.003,9,0.71,-0.33,10.20,55,0.190,8.23
9.5813,-0.00000,0.06458,0.49393,0.00000,0.00000,0.00000,56,10,15,3,59,8,58,-4,ok,2,0,0.003,9,0.90,0.16,9.78,56,0.000,8.23
9.6011,-0.00000,0.06458,0.49393,0.00000,0.00000,0.00000,56,10,14,6,60,8,55,-5,ok,2,0,0.003,9,0.90,0.16,9.78,56,0.013,8.23
9.6060,-0.00000,0.06458,0.49393,0.00000,0.00000,0.00000,56,11,12,9,60,9,53,-6,ok,2,0,0.003,9,0.90,0.16,9.78,56,0.025,8.23
9.6185,-0.00000,0.06458,0.49393,0.00000,0.00000,0.00000,56,12,12,11,61,9,50,-5,ok,2,0,0.003,9,0.90,0.16,9.78,56,0.038,8.23
9.6412,-0.00000,0.06458,0.49393,0.00000,0.00000,0.00000,56,13,14,12,61,10,48,-5,ok,2,0,0.003,9,0.90,0.16,9.78,56,0.050,8.23
9.6444,-0.00000,0.06458,0.49393,0.00000,0.00000,0.00000,56,13,15,11,61,11,46,-5,ok,2,0,0.003,9,0.90,0.16,9.78,56,0.063,8.23
9.6573,-0.00000,0.06458,0.49393,0.00000,0.00000,0.00000,56,14,16,10,61,11,42,-4,ok,2,0,0.003,9,0.90,0.16,9.78,56,0.076,8.23
9.6771,-0.00000,0.06458,0.49393,0.00000,0.00000,0.00000,56,15,18,9,62,12,41,-4,ok,2,0,0.003,9,0.90,0.16,9.78,56,0.089,8.23
9.6821,-0.00000,0.06458,0.49393,0.00000,0.00000,0.00000,56,16,19,8,61,12,37,-3,ok,2,0,0.003,10,0.90,0.16,9.78,56,0.101,8.23
9.6945,-0.00000,0.06458,0.49393,0.00000,0.00000,0.00000,56,16,20,7,62,13,35,-3,ok,2,0,0.003,10,0.90,0.16,9.78,56,0.114,8.23
9.7172,-0.00000,0.06458,0.49393,0.00000,0.00000,0.00000,56,17,21,7,62,14,31,-1,ok,2,0,0.003,10,0.90,0.16,9.78,56,0.126,8.23
9.7206,-0.00000,0.06458,0.49393,0.00000,0.00000,0.00000,57,19,22,6,63,14,30,0,ok,2,0,0.003,10,0.90,0.16,9.78,56,0.139,8.23
9.7330,-0.00000,0.06458,0.49393,0.00000,0.00000,0.00000,57,19,24,5,63,15,28,2,ok,2,0,0.003,10,0.90,0.16,9.78,56,0.152,8.23
9.7531,-0.00000,0.06458,0.49393,0.00000,0.00000,0.00000,58,20,24,5,63,16,25,5,ok,2,0,0.003,10,0.90,0.16,9.78,56,0.165,8.23
9.7581,-0.00000,0.06458,0.49393,0.00000,0.00000,0.00000,58,21,25,4,64,17,24,7,ok,2,0,0.003,10,0.90,0.16,9.78,56,0.177,8.23
9.7705,-0.00000,0.06458,0.49393,0.00000,0.00000,0.00000,57,22,25,3,64,17,23,11,ok,2,0,0.003,10,0.90,0.16,9.78,56,0.190,8.23
9.7932,-0.06981,0.04887,0.51836,0.00000,0.00000,0.00000,57,25,27,3,64,19,22,13,ok,2,0,0.003,10,1.63,-2.10,10.74,57,0.000,8.23
9.7965,-0.06981,0.04887,0.51836,0.00000,0.00000,0.00000,57,26,27,2,64,19,25,12,ok,2,0,0.003,10,1.63,-2.10,10.74,57,0.013,8.23
9.8090,-0.06981,0.04887,0.51836,0.00000,0.00000,0.00000,58,25,29,2,64,21,25,12,ok,2,0,0.003,10,1.63,-2.10,10.74,57,0.026,8.23
9.8291,-0.06981,0.04887,0.51836,0.00000,0.00000,0.00000,58,21,30,2,65,22,26,10,ok,2,0,0.003,10,1.63,-2.10,10.74,57,0.038,8.23
9.8340,-0.06981,0.04887,0.51836,0.00000,0.00000,0.00000,60,17,31,2,64,23,27,10,ok,2,0,0.003,10,1.63,-2.10,10.74,57,0.051,8.23
9.8464,-0.06981,0.04887,0.51836,0.00000,0.00000,0.00000,60,13,32,2,64,25,28,10,ok,2,0,0.003,10,1.63,-2.10,10.74,57,0.063,8.23
9.8692,-0.06981,0.04887,0.51836,0.00000,0.00000,0.00000,60,10,34,2,65,25,29,10,ok,2,0,0.003,10,1.63,-2.10,10.74,57,0.076,8.23
9.8725,-0.06981,0.04887,0.51836,0.00000,0.00000,0.00000,60,10,35,2,64,27,31,9,ok,2,0,0.003,10,1.63,-2.10,10.74,57,0.089,8.23
9.8850,-0.06981,0.04887,0.51836,0.00000,0.00000,0.00000,60,7,37,2,64,29,32,9,ok,2,0,0.003,10,1.63,-2.10,10.74,57,0.102,8.23
9.9051,-0.06981,0.04887,0.51836,0.00000,0.00000,0.00000,60,4,39,3,64,30,33,9,ok,2,0,0.003,10,1.63,-2.10,10.74,57,0.114,8.23
9.9100,-0.06981,0.04887,0.51836,0.00000,0.00000,0.00000,60,1,40,3,64,32,35,9,ok,2,0,0.003,10,1.63,-2.10,10.74,57,0.127,8.23
9.9227,-0.06981,0.04887,0.51836,0.00000,0.00000,0.00000,59,-1,41,3,64,33,36,9,ok,2,0,0.003,10,1.63,-2.10,10.74,57,0.139,8.23
9.9451,-0.06981,0.04887,0.51836,0.00000,0.00000,0.00000,58,-2,42,2,64,35,37,9,ok,2,0,0.003,10,1.63,-2.10,10.74,57,0.152,8.23
9.9483,-0.06981,0.04887,0.51836,0.00000,0.00000,0.00000,58,-4,44,3,64,35,38,8,ok,2,0,0.003,10,1.63,-2.10,10.74,57,0.165,8.23
9.9610,-0.06981,0.04887,0.51836,0.00000,0.00000,0.00000,56,-5,44,3,66,35,39,8,ok,2,0,0.003,10,1.63,-2.10,10.74,57,0.178,8.23
9.9811,-0.06981,0.04887,0.51836,0.00000,0.00000,0.00000,56,-6,45,3,68,33,41,7,ok,2,0,0.003,10,1.63,-2.10,10.74,57,0.190,8.23
9.9862,-0.03665,0.03316,0.56723,0.00000,0.00000,0.00000,56,-8,46,3,70,28,42,7,ok,2,0,0.003,10,1.20,0.88,9.95,58,0.000,8.23
9.9984,-0.03665,0.03316,0.56723,0.00000,0.00000,0.00000,54,-9,48,4,71,24,43,7,ok,2,0,0.003,10,1.20,0.88,9.95,58,0.013,8.23
10.0212,-0.03665,0.03316,0.56723,0.00000,0.00000,0.00000,53,-10,49,4,73,21,44,7,ok,2,0,0.003,10,1.20,0.88,9.95,58,0.025,8.23
10.0245,-0.03665,0.03316,0.56723,0.00000,0.00000,0.00000,52,-10,49,3,74,20,45,7,ok,2,0,0.003,10,1.20,0.88,9.95,58,0.038,8.23
10.0450,-0.03665,0.03316,0.56723,0.00000,0.00000,0.00000,51,-11,49,5,74,18,46,7,ok,2,0,0.003,10,1.20,0.88,9.95,58,0.051,8.23
10.0571,-0.03665,0.03316,0.56723,0.00000,0.00000,0.00000,50,-11,51,6,74,15,47,8,ok,2,0,0.003,10,1.20,0.88,9.95,58,0.064,8.23
10.0622,-0.03665,0.03316,0.56723,0.00000,0.00000,0.00000,48,-11,52,6,74,11,48,8,ok,2,0,0.003,10,1.20,0.88,9.95,58,0.076,8.23
10.0745,-0.03665,0.03316,0.56723,0.00000,0.00000,0.00000,47,-10,53,6,73,10,49,8,ok,2,0,0.003,10,1.20,0.88,9.95,58,0.089,8.23
10.0971,-0.03665,0.03316,0.56723,0.00000,0.00000,0.00000,46,-10,53,7,72,6,49,9,ok,2,0,0.003,10,1.20,0.88,9.95,58,0.101,8.23
10.1006,-0.03665,0.03316,0.56723,0.00000,0.00000,0.00000,44,-11,55,7,72,5,50,8,ok,2,0,0.003,10,1.20,0.88,9.95,58,0.114,7.94
10.1130,-0.03665,0.03316,0.56723,0.00000,0.00000,0.00000,43,-10,56,7,71,3,51,9,ok,2,0,0.003,10,1.20,0.88,9.95,58,0.127,7.94
10.1331,-0.03665,0.03316,0.56723,0.00000,0.00000,0.00000,42,-9,57,7,69,1,52,8,ok,2,0,0.003,10,1.20,0.88,9.95,58,0.140,7.94
10.1380,-0.03665,0.03316,0.56723,0.00000,0.00000,0.00000,40,-8,57,8,66,1,52,9,ok,2,0,0.003,10,1.20,0.88,9.95,58,0.152,7.94
10.1505,-0.03665,0.03316,0.56723,0.00000,0.00000,0.00000,38,-6,57,8,65,-1,53,9,ok,2,0,0.003,10,1.20,0.88,9.95,58,0.165,7.94
10.1732,-0.03665,0.03316,0.56723,0.00000,0.00000,0.00000,37,-4,58,8,64,-3,54,9,ok,2,0,0.003,10,1.20,0.88,9.95,58,0.177,7.94
10.1766,-0.03665,0.03316,0.56723,0.00000,0.00000,0.00000,35,-2,59,9,62,-4,55,9,ok,2,0,0.003,10,1.20,0.88,9.95,58,0.190,7.94
10.1893,0.00873,0.06807,0.59865,0.00000,0.00000,0.00000,34,-1,60,11,61,-5,55,8,ok,2,0,0.003,10,0.35,-0.10,10.37,59,0.000,7.94
10.2091,0.00873,0.06807,0.59865,0.00000,0.00000,0.00000,34,0,60,10,59,-6,56,6,ok,2,0,0.003,10,0.35,-0.10,10.37,59,0.013,7.94
10.2140,0.00873,0.06807,0.59865,0.00000,0.00000,0.00000,33,2,61,11,56,-7,57,7,ok,2,0,0.003,10,0.35,-0.10,10.37,59,0.025,7.94
10.2265,0.00873,0.06807,0.59865,0.00000,0.00000,0.00000,32,5,61,11,54,-7,58,8,ok,2,0,0.003,10,0.35,-0.10,10.37,59,0.037,7.94
10.2491,0.00873,0.06807,0.59865,0.00000,0.00000,0.00000,32,8,61,12,51,-7,58,9,ok,2,0,0.003,10,0.35,-0.10,10.37,59,0.050,7.94
10.2523,0.00873,0.06807,0.59865,0.00000,0.00000,0.00000,31,11,61,12,48,-6,59,9,ok,2,0,0.003,10,0.35,-0.10,10.37,59,0.063,7.94
10.2651,0.00873,0.06807,0.59865,0.00000,0.00000,0.00000,32,11,61,13,46,-6,60,10,ok,2,0,0.003,10,0.35,-0.10,10.37,59,0.076,7.94
10.2851,0.00873,0.06807,0.59865,0.00000,0.00000,0.00000,32,11,61,13,43,-5,60,10,ok,2,0,0.003,10,0.35,-0.10,10.37,59,0.088,7.94
10.2900,0.00873,0.06807,0.59865,0.00000,0.00000,0.00000,32,9,62,14,41,-5,60,11,ok,2,0,0.003,10,0.35,-0.10,10.37,59,0.101,7.94
10.3025,0.00873,0.06807,0.59865,0.00000,0.00000,0.00000,34,9,61,14,38,-4,61,12,ok,2,0,0.003,10,0.35,-0.10,10.37,59,0.113,7.94
10.3252,0.00873,0.06807,0.59865,0.00000,0.00000,0.00000,34,8,62,15,35,-3,61,13,ok,2,0,0.003,10,0.35,-0.10,10.37,59,0.126,7.94
10.3283,0.00873,0.06807,0.59865,0.00000,0.00000,0.00000,35,7,62,16,32,-2,61,13,ok,2,0,0.003,10,0.35,-0.10,10.37,59,0.139,7.94
10.3410,0.00873,0.06807,0.59865,0.00000,0.00000,0.00000,35,7,62,17,30,0,62,14,ok,2,0,0.003,10,0.35,-0.10,10.37,59,0.152,7.94
10.3611,0.00873,0.06807,0.59865,0.00000,0.00000,0.00000,36,5,64,18,28,1,62,15,ok,2,0,0.003,10,0.35,-0.10,10.37,59,0.164,7.94
10.3662,0.00873,0.06807,0.59865,0.00000,0.00000,0.00000,36,5,63,19,26,4,63,15,ok,2,0,0.003,10,0.35,-0.10,10.37,59,0.177,7.94
10.3784,0.00873,0.06807,0.59865,0.00000,0.00000,0.00000,37,4,63,20,25,7,63,16,ok,2,0,0.003,10,0.35,-0.10,10.37,59,0.189,7.94
10.4012,-0.03665,0.02269,0.57945,0.00000,0.00000,0.00000,38,4,63,22,23,11,63,17,ok,2,0,0.003,10,0.15,0.68,5.91,60,0.000,7.94
10.4044,-0.03665,0.02269,0.57945,0.00000,0.00000,0.00000,38,3,63,23,23,14,64,18,ok,2,0,0.003,10,0.15,0.68,5.91,60,0.013,7.94
10.4172,-0.03665,0.02269,0.57945,0.00000,0.00000,0.00000,38,3,63,26,24,13,64,19,ok,2,0,0.003,10,0.15,0.68,5.91,60,0.026,7.94
10.4372,-0.03665,0.02269,0.57945,0.00000,0.00000,0.00000,39,2,63,27,24,13,65,20,ok,2,0,0.003,10,0.15,0.68,5.91,60,0.039,7.94
10.4421,-0.03665,0.02269,0.57945,0.00000,0.00000,0.00000,40,2,64,26,25,11,65,21,ok,2,0,0.003,10,0.15,0.68,5.91,60,0.051,7.94
10.4544,-0.03665,0.02269,0.57945,0.00000,0.00000,0.00000,40,1,67,23,27,10,65,21,ok,2,0,0.003,10,0.15,0.68,5.91,60,0.064,7.94
10.4772,-0.03665,0.02269,0.57945,0.00000,0.00000,0.00000,41,0,69,19,28,10,65,23,ok,2,0,0.003,10,0.15,0.68,5.91,60,0.076,7.94
10.4803,-0.03665,0.02269,0.57945,0.00000,0.00000,0.00000,42,1,70,15,29,10,65,24,ok,2,0,0.003,10,0.15,0.68,5.91,60,0.089,7.94
10.4932,-0.03665,0.02269,0.57945,0.00000,0.00000,0.00000,42,1,71,13,30,9,64,26,ok,2,0,0.003,10,0.15,0.68,5.91,60,0.102,7.94
10.5131,-0.03665,0.02269,0.57945,0.00000,0.00000,0.00000,44,1,70,12,33,9,65,27,ok,2,0,0.003,10,0.15,0.68,5.91,60,0.115,7.94
10.5180,-0.03665,0.02269,0.57945,0.00000,0.00000,0.00000,44,1,70,9,33,9,64,29,ok,2,0,0.003,10,0.15,0.68,5.91,60,0.127,7.94
10.5305,-0.03665,0.02269,0.57945,0.00000,0.00000,0.00000,45,2,69,6,35,9,64,30,ok,2,0,0.003,10,0.15,0.68,5.91,60,0.140,7.94
10.5532,-0.03665,0.02269,0.57945,0.00000,0.00000,0.00000,46,2,69,3,37,8,64,31,ok,2,0,0.003,10,0.15,0.68,5.91,60,0.152,7.94
10.5565,-0.03665,0.02269,0.57945,0.00000,0.00000,0.00000,46,2,67,0,38,8,64,33,ok,2,0,0.003,10,0.15,0.68,5.91,60,0.165,7.94
10.5690,-0.03665,0.02269,0.57945,0.00000,0.00000,0.00000,47,2,66,-2,39,8,64,35,ok,2,0,0.003,10,0.15,0.68,5.91,60,0.178,7.94
10.5891,-0.03665,0.02269,0.57945,0.00000,0.00000,0.00000,48,2,64,-3,40,8,63,36,ok,2,0,0.003,10,0.15,0.68,5.91,60,0.191,7.94
10.5942,-0.14486,0.03840,0.60912,0.00000,0.00000,0.00000,48,2,62,-4,41,7,64,36,ok,2,0,0.003,10,0.81,-1.56,9.26,61,0.000,7.94
10.6065,-0.14486,0.03840,0.60912,0.00000,0.00000,0.00000,48,3,61,-5,42,6,66,35,ok,2,0,0.003,10,0.81,-1.56,9.26,61,0.013,7.94
10.6292,-0.14486,0.03840,0.60912,0.00000,0.00000,0.00000,49,3,60,-7,43,6,68,33,ok,2,0,0.003,10,0.81,-1.56,9.26,61,0.025,7.94
10.6324,-0.14486,0.03840,0.60912,0.00000,0.00000,0.00000,50,3,58,-8,44,6,70,28,ok,2,0,0.003,10,0.81,-1.56,9.26,61,0.038,7.94
10.6450,-0.14486,0.03840,0.60912,0.00000,0.00000,0.00000,50,2,55,-9,44,6,71,24,ok,2,0,0.003,10,0.81,-1.56,9.26,61,0.051,7.94
10.6651,-0.14486,0.03840,0.60912,0.00000,0.00000,0.00000,50,2,53,-9,46,6,73,21,ok,2,0,0.003,10,0.81,-1.56,9.26,61,0.064,7.94
10.6700,-0.14486,0.03840,0.60912,0.00000,0.00000,0.00000,50,4,51,-10,47,7,73,21,ok,2,0,0.003,10,0.81,-1.56,9.26,61,0.076,7.94
10.6825,-0.14486,0.03840,0.60912,0.00000,0.00000,0.00000,51,5,49,-9,47,7,73,19,ok,2,0,0.003,10,0.81,-1.56,9.26,61,0.089,7.94
10.7100,-0.14486,0.03840,0.60912,0.00000,0.00000,0.00000,52,4,46,-9,49,7,73,15,ok,2,0,0.003,11,0.81,-1.56,9.26,61,0.101,7.94
10.7139,-0.14486,0.03840,0.60912,0.00000,0.00000,0.00000,52,5,44,-9,49,7,72,13,ok,2,0,0.003,11,0.81,-1.56,9.26,61,0.119,7.94
10.7260,-0.14486,0.03840,0.60912,0.00000,0.00000,0.00000,52,6,41,-10,50,7,72,11,ok,2,0,0.003,11,0.81,-1.56,9.26,61,0.132,7.94
10.7492,-0.14486,0.03840,0.60912,0.00000,0.00000,0.00000,53,7,39,-10,51,7,71,7,ok,2,0,0.003,11,0.81,-1.56,9.26,61,0.144,7.94
10.7524,-0.14486,0.03840,0.60912,0.00000,0.00000,0.00000,54,7,36,-9,52,6,71,6,ok,2,0,0.003,11,0.81,-1.56,9.26,61,0.158,7.94
10.7649,-0.14486,0.03840,0.60912,0.00000,0.00000,0.00000,54,7,33,-9,52,7,70,4,ok,2,0,0.003,11,0.81,-1.56,9.26,61,0.171,7.94
10.7852,-0.14486,0.03840,0.60912,0.00000,0.00000,0.00000,54,8,30,-7,53,7,68,2,ok,2,0,0.003,11,0.81,-1.56,9.26,61,0.184,7.94
10.7902,-0.04363,0.01571,0.61261,0.00000,0.00000,0.00000,54,8,27,-6,54,8,66,2,ok,2,0,0.003,11,0.35,-0.22,8.78,62,0.000,7.94
10.8026,-0.04363,0.01571,0.61261,0.00000,0.00000,0.00000,54,9,24,-5,55,8,65,0,ok,2,0,0.003,11,0.35,-0.22,8.78,62,0.013,7.94
10.8251,-0.04363,0.01571,0.61261,0.00000,0.00000,0.00000,55,10,20,-2,56,8,64,-2,ok,2,0,0.003,11,0.35,-0.22,8.78,62,0.025,7.94
10.8283,-0.04363,0.01571,0.61261,0.00000,0.00000,0.00000,55,10,19,-1,58,6,61,-3,ok,2,0,0.003,11,0.35,-0.22,8.78,62,0.038,7.94
10.8409,-0.04363,0.01571,0.61261,0.00000,0.00000,0.00000,56,10,18,0,59,7,59,-4,ok,2,0,0.003,11,0.35,-0.22,8.78,62,0.051,7.94
10.8611,-0.04363,0.01571,0.61261,0.00000,0.00000,0.00000,56,11,16,2,59,8,58,-4,ok,2,0,0.003,11,0.35,-0.22,8.78,62,0.064,7.94
10.8661,-0.04363,0.01571,0.61261,0.00000,0.00000,0.00000,56,11,15,5,59,8,55,-5,ok,2,0,0.003,11,0.35,-0.22,8.78,62,0.076,7.94
10.8785,-0.04363,0.01571,0.61261,0.00000,0.00000,0.00000,56,13,13,9,60,9,53,-6,ok,2,0,0.003,11,0.35,-0.22,8.78,62,0.088,7.94
10.9012,-0.04363,0.01571,0.61261,0.00000,0.00000,0.00000,56,13,13,11,60,9,50,-5,ok,2,0,0.003,11,0.35,-0.22,8.78,62,0.101,7.94
10.9043,-0.04363,0.01571,0.61261,0.00000,0.00000,0.00000,56,14,14,12,60,9,48,-5,ok,2,0,0.003,11,0.35,-0.22,8.78,62,0.114,7.94
10.9170,-0.04363,0.01571,0.61261,0.00000,0.00000,0.00000,56,14,15,11,61,10,45,-5,ok,2,0,0.003,11,0.35,-0.22,8.78,62,0.127,7.94
10.9371,-0.04363,0.01571,0.61261,0.00000,0.00000,0.00000,56,14,16,10,61,11,42,-4,ok,2,0,0.003,11,0.35,-0.22,8.78,62,0.140,7.94
10.9420,-0.04363,0.01571,0.61261,0.00000,0.00000,0.00000,56,15,18,9,61,12,40,-4,ok,2,0,0.003,11,0.35,-0.22,8.78,62,0.152,7.94
10.9546,-0.04363,0.01571,0.61261,0.00000,0.00000,0.00000,56,15,19,9,61,12,37,-3,ok,2,0,0.003,11,0.35,-0.22,8.78,62,0.165,7.94
10.9771,-0.04363,0.01571,0.61261,0.00000,0.00000,0.00000,56,16,21,8,62,13,35,-3,ok,2,0,0.003,11,0.35,-0.22,8.78,62,0.177,7.94
10.9805,-0.04363,0.01571,0.61261,0.00000,0.00000,0.00000,56,17,21,7,62,14,31,-1,ok,2,0,0.003,11,0.35,-0.22,8.78,62,0.190,7.94
10.9932,-0.01222,0.06109,0.60737,0.00000,0.00000,0.00000,58,19,23,6,63,14,30,0,ok,2,0,0.003,11,1.28,-0.23,11.24,63,0.000,7.94
11.0131,-0.01222,0.06109,0.60737,0.00000,0.00000,0.00000,58,20,24,5,63,15,27,2,ok,2,0,0.003,11,1.28,-0.23,11.24,63,0.013,7.94
11.0180,-0.01222,0.06109,0.60737,0.00000,0.00000,0.00000,58,21,24,5,63,16,25,5,ok,2,0,0.003,11,1.28,-0.23,11.24,63,0.025,7.94
11.0307,-0.01222,0.06109,0.60737,0.00000,0.00000,0.00000,58,22,25,4,63,17,24,7,ok,2,0,0.003,11,1.28,-0.23,11.24,63,0.037,7.94
11.0532,-0.01222,0.06109,0.60737,0.00000,0.00000,0.00000,58,23,26,3,64,17,23,11,ok,2,0,0.003,11,1.28,-0.23,11.24,63,0.050,7.94
11.0563,-0.01222,0.06109,0.60737,0.00000,0.00000,0.00000,57,26,27,3,64,18,22,13,ok,2,0,0.003,11,1.28,-0.23,11.24,63,0.063,7.94
11.0689,-0.01222,0.06109,0.60737,0.00000,0.00000,0.00000,57,27,27,2,64,20,24,12,ok,2,0,0.003,11,1.28,-0.23,11.24,63,0.076,7.94
11.0891,-0.01222,0.06109,0.60737,0.00000,0.00000,0.00000,58,25,28,2,64,21,25,12,ok,2,0,0.003,11,1.28,-0.23,11.24,63,0.088,7.94
11.0939,-0.01222,0.06109,0.60737,0.00000,0.00000,0.00000,58,21,30,2,65,22,25,10,ok,2,0,0.003,11,1.28,-0.23,11.24,63,0.101,7.94
11.1065,-0.01222,0.06109,0.60737,0.00000,0.00000,0.00000,60,18,31,1,64,23,27,10,ok,2,0,0.003,11,1.28,-0.23,11.24,63,0.113,7.94
11.1291,-0.01222,0.06109,0.60737,0.00000,0.00000,0.00000,60,13,32,2,64,25,28,10,ok,2,0,0.003,11,1.28,-0.23,11.24,63,0.126,7.94
11.1323,-0.01222,0.06109,0.60737,0.00000,0.00000,0.00000,60,11,33,2,65,25,29,9,ok,2,0,0.003,11,1.28,-0.23,11.24,63,0.139,7.94
11.1449,-0.01222,0.06109,0.60737,0.00000,0.00000,0.00000,60,11,35,2,64,28,30,9,ok,2,0,0.003,11,1.28,-0.23,11.24,63,0.152,7.94
11.1651,-0.01222,0.06109,0.60737,0.00000,0.00000,0.00000,60,7,36,2,64,29,32,9,ok,2,0,0.003,11,1.28,-0.23,11.24,63,0.164,7.94
11.1699,-0.01222,0.06109,0.60737,0.00000,0.00000,0.00000,60,5,38,3,64,30,33,9,ok,2,0,0.003,11,1.28,-0.23,11.24,63,0.177,7.94
11.1828,-0.01222,0.06109,0.60737,0.00000,0.00000,0.00000,60,2,40,3,64,32,35,9,ok,2,0,0.003,11,1.28,-0.23,11.24,63,0.189,7.94
11.2052,-0.11170,0.01047,0.66846,0.00000,0.00000,0.00000,59,-1,41,3,64,34,36,9,ok,2,0,0.003,11,-0.83,-0.90,10.36,64,0.000,7.94
11.2083,-0.11170,0.01047,0.66846,0.00000,0.00000,0.00000,58,-3,42,3,64,34,37,9,ok,2,0,0.003,11,-0.83,-0.90,10.36,64,0.013,7.94
11.2209,-0.11170,0.01047,0.66846,0.00000,0.00000,0.00000,58,-4,44,3,65,35,38,8,ok,2,0,0.003,11,-0.83,-0.90,10.36,64,0.026,7.94
11.2411,-0.11170,0.01047,0.66846,0.00000,0.00000,0.00000,56,-5,44,3,66,35,40,8,ok,2,0,0.003,11,-0.83,-0.90,10.36,64,0.038,7.94
11.2462,-0.11170,0.01047,0.66846,0.00000,0.00000,0.00000,56,-7,45,3,67,33,41,7,ok,2,0,0.003,11,-0.83,-0.90,10.36,64,0.051,7.94
11.2585,-0.11170,0.01047,0.66846,0.00000,0.00000,0.00000,56,-9,46,3,69,28,42,7,ok,2,0,0.003,11,-0.83,-0.90,10.36,64,0.064,7.94
11.2812,-0.11170,0.01047,0.66846,0.00000,0.00000,0.00000,54,-10,48,4,71,24,44,7,ok,2,0,0.003,11,-0.83,-0.90,10.36,64,0.076,7.94
11.2843,-0.11170,0.01047,0.66846,0.00000,0.00000,0.00000,54,-11,49,4,73,21,44,7,ok,2,0,0.003,11,-0.83,-0.90,10.36,64,0.089,7.94
11.2969,-0.11170,0.01047,0.66846,0.00000,0.00000,0.00000,52,-11,49,4,74,20,45,8,ok,2,0,0.003,11,-0.83,-0.90,10.36,64,0.102,7.94
11.3171,-0.11170,0.01047,0.66846,0.00000,0.00000,0.00000,51,-12,50,6,74,18,46,8,ok,2,0,0.003,11,-0.83,-0.90,10.36,64,0.115,7.94
11.3220,-0.11170,0.01047,0.66846,0.00000,0.00000,0.00000,50,-11,51,7,74,14,47,8,ok,2,0,0.003,11,-0.83,-0.90,10.36,64,0.127,7.94
11.3346,-0.11170,0.01047,0.66846,0.00000,0.00000,0.00000,48,-11,52,6,73,11,48,8,ok,2,0,0.003,11,-0.83,-0.90,10.36,64,0.140,7.94
11.3572,-0.11170,0.01047,0.66846,0.00000,0.00000,0.00000,48,-10,53,6,73,9,49,9,ok,2,0,0.003,11,-0.83,-0.90,10.36,64,0.152,7.94
11.3604,-0.11170,0.01047,0.66846,0.00000,0.00000,0.00000,46,-10,53,7,72,6,49,9,ok,2,0,0.003,11,-0.83,-0.90,10.36,64,0.165,7.94
11.3729,-0.11170,0.01047,0.66846,0.00000,0.00000,0.00000,44,-11,55,7,72,4,50,8,ok,2,0,0.003,11,-0.83,-0.90,10.36,64,0.178,7.94
11.3931,-0.11170,0.01047,0.66846,0.00000,0.00000,0.00000,44,-10,56,7,71,3,51,9,ok,2,0,0.003,11,-0.83,-0.90,10.36,64,0.191,7.94
11.3982,0.04014,-0.01920,0.68766,0.00000,0.00000,0.00000,42,-8,57,7,69,0,52,8,ok,2,0,0.003,11,0.79,0.33,10.34,65,0.000,7.94
11.4105,0.04014,-0.01920,0.68766,0.00000,0.00000,0.00000,40,-7,57,7,66,2,52,9,ok,2,0,0.003,11,0.79,0.33,10.34,65,0.013,7.94
11.4331,0.04014,-0.01920,0.68766,0.00000,0.00000,0.00000,38,-5,57,7,65,-1,52,9,ok,2,0,0.003,11,0.79,0.33,10.34,65,0.025,7.94
11.4365,0.04014,-0.01920,0.68766,0.00000,0.00000,0.00000,37,-3,58,8,64,-2,53,9,ok,2,0,0.003,11,0.79,0.33,10.34,65,0.038,7.94
11.4489,0.04014,-0.01920,0.68766,0.00000,0.00000,0.00000,35,-1,59,8,62,-4,54,9,ok,2,0,0.003,11,0.79,0.33,10.34,65,0.051,7.94
11.4691,0.04014,-0.01920,0.68766,0.00000,0.00000,0.00000,35,0,60,10,61,-5,54,8,ok,2,0,0.003,11,0.79,0.33,10.34,65,0.064,7.94
11.4739,0.04014,-0.01920,0.68766,0.00000,0.00000,0.00000,34,1,61,9,59,-6,56,6,ok,2,0,0.003,11,0.79,0.33,10.34,65,0.076,7.94
11.4867,0.04014,-0.01920,0.68766,0.00000,0.00000,0.00000,34,3,61,10,56,-6,57,7,ok,2,0,0.003,11,0.79,0.33,10.34,65,0.088,7.94
11.5092,0.04014,-0.01920,0.68766,0.00000,0.00000,0.00000,32,6,61,10,54,-7,58,8,ok,2,0,0.003,11,0.79,0.33,10.34,65,0.101,7.94
11.5124,0.04014,-0.01920,0.68766,0.00000,0.00000,0.00000,32,10,61,11,51,-7,58,8,ok,2,0,0.003,11,0.79,0.33,10.34,65,0.114,7.94
11.5250,0.04014,-0.01920,0.68766,0.00000,0.00000,0.00000,32,12,61,11,48,-6,58,9,ok,2,0,0.003,11,0.79,0.33,10.34,65,0.127,7.94
11.5451,0.04014,-0.01920,0.68766,0.00000,0.00000,0.00000,32,12,62,12,46,-6,59,10,ok,2,0,0.003,11,0.79,0.33,10.34,65,0.140,7.94
11.5501,0.04014,-0.01920,0.68766,0.00000,0.00000,0.00000,32,11,61,13,43,-5,59,10,ok,2,0,0.003,11,0.79,0.33,10.34,65,0.152,7.94
11.5625,0.04014,-0.01920,0.68766,0.00000,0.00000,0.00000,33,10,62,14,40,-5,60,11,ok,2,0,0.003,11,0.79,0.33,10.34,65,0.165,7.94
11.5851,0.04014,-0.01920,0.68766,0.00000,0.00000,0.00000,34,9,62,14,37,-4,60,12,ok,2,0,0.003,11,0.79,0.33,10.34,65,0.177,7.94
11.5884,0.04014,-0.01920,0.68766,0.00000,0.00000,0.00000,34,8,63,15,35,-3,61,13,ok,2,0,0.003,11,0.79,0.33,10.34,65,0.190,7.94
11.6013,-0.07505,0.06458,0.70337,0.00000,0.00000,0.00000,36,7,63,16,31,-2,61,13,ok,2,0,0.003,11,0.00,-0.74,8.12,66,0.000,7.94
11.6211,-0.07505,0.06458,0.70337,0.00000,0.00000,0.00000,36,7,63,17,29,-1,62,14,ok,2,0,0.003,11,0.00,-0.74,8.12,66,0.013,7.94
11.6260,-0.07505,0.06458,0.70337,0.00000,0.00000,0.00000,36,6,64,19,27,1,62,15,ok,2,0,0.003,11,0.00,-0.74,8.12,66,0.025,7.94
11.6385,-0.07505,0.06458,0.70337,0.00000,0.00000,0.00000,37,4,64,20,25,4,63,15,ok,2,0,0.003,11,0.00,-0.74,8.12,66,0.037,7.94
11.6612,-0.07505,0.06458,0.70337,0.00000,0.00000,0.00000,38,4,64,21,24,7,63,17,ok,2,0,0.003,11,0.00,-0.74,8.12,66,0.050,7.94
11.6643,-0.07505,0.06458,0.70337,0.00000,0.00000,0.00000,38,3,64,23,23,10,63,18,ok,2,0,0.003,11,0.00,-0.74,8.12,66,0.063,7.94
11.6770,-0.07505,0.06458,0.70337,0.00000,0.00000,0.00000,38,2,64,24,22,13,64,18,ok,2,0,0.003,11,0.00,-0.74,8.12,66,0.076,7.94
11.6971,-0.07505,0.06458,0.70337,0.00000,0.00000,0.00000,38,2,63,27,24,13,64,19,ok,2,0,0.003,11,0.00,-0.74,8.12,66,0.089,7.94
11.7019,-0.07505,0.06458,0.70337,0.00000,0.00000,0.00000,39,1,63,28,24,13,64,20,ok,2,0,0.003,11,0.00,-0.74,8.12,66,0.101,7.94
11.7145,-0.07505,0.06458,0.70337,0.00000,0.00000,0.00000,40,1,64,26,25,11,64,21,ok,2,0,0.003,12,0.00,-0.74,8.12,66,0.114,7.94
11.7372,-0.07505,0.06458,0.70337,0.00000,0.00000,0.00000,40,1,67,23,27,10,65,22,ok,2,0,0.003,12,0.00,-0.74,8.12,66,0.126,7.94
11.7406,-0.07505,0.06458,0.70337,0.00000,0.00000,0.00000,41,0,69,19,28,10,65,23,ok,2,0,0.003,12,0.00,-0.74,8.12,66,0.139,7.94
11.7530,-0.07505,0.06458,0.70337,0.00000,0.00000,0.00000,42,1,70,15,29,10,65,24,ok,2,0,0.003,12,0.00,-0.74,8.12,66,0.152,7.94
11.7731,-0.07505,0.06458,0.70337,0.00000,0.00000,0.00000,42,1,70,13,30,8,65,26,ok,2,0,0.003,12,0.00,-0.74,8.12,66,0.165,7.94
11.7780,-0.07505,0.06458,0.70337,0.00000,0.00000,0.00000,44,1,70,12,33,9,65,27,ok,2,0,0.003,12,0.00,-0.74,8.12,66,0.177,7.94
11.7907,-0.07505,0.06458,0.70337,0.00000,0.00000,0.00000,44,1,70,9,33,9,64,29,ok,2,0,0.003,12,0.00,-0.74,8.12,66,0.190,7.94
11.8132,-0.07505,0.06458,0.70337,0.00000,0.00000,0.00000,45,2,69,6,35,8,64,30,ok,2,0,0.003,12,0.00,-0.74,8.12,66,0.202,7.94
11.8166,-0.14835,-0.04712,0.73478,0.00000,0.00000,0.00000,46,2,68,3,37,8,64,31,ok,2,0,0.003,12,-0.53,-2.34,10.43,67,0.000,7.94
11.8289,-0.14835,-0.04712,0.73478,0.00000,0.00000,0.00000,46,2,67,0,38,8,64,33,ok,2,0,0.003,12,-0.53,-2.34,10.43,67,0.013,7.94
11.8491,-0.14835,-0.04712,0.73478,0.00000,0.00000,0.00000,47,2,66,-2,39,7,64,35,ok,2,0,0.003,12,-0.53,-2.34,10.43,67,0.025,7.94
11.8539,-0.14835,-0.04712,0.73478,0.00000,0.00000,0.00000,48,2,64,-3,40,8,64,36,ok,2,0,0.003,12,-0.53,-2.34,10.43,67,0.038,7.94
11.8666,-0.14835,-0.04712,0.73478,0.00000,0.00000,0.00000,48,2,62,-4,41,7,65,36,ok,2,0,0.003,12,-0.53,-2.34,10.43,67,0.050,7.94
11.8892,-0.14835,-0.04712,0.73478,0.00000,0.00000,0.00000,48,2,61,-6,42,7,66,35,ok,2,0,0.003,12,-0.53,-2.34,10.43,67,0.063,7.94
11.8925,-0.14835,-0.04712,0.73478,0.00000,0.00000,0.00000,49,3,60,-8,43,7,68,33,ok,2,0,0.003,12,-0.53,-2.34,10.43,67,0.076,7.94
11.9049,-0.14835,-0.04712,0.73478,0.00000,0.00000,0.00000,50,3,58,-8,44,7,69,28,ok,2,0,0.003,12,-0.53,-2.34,10.43,67,0.089,7.94
11.9252,-0.14835,-0.04712,0.73478,0.00000,0.00000,0.00000,50,3,56,-9,45,7,70,24,ok,2,0,0.003,12,-0.53,-2.34,10.43,67,0.101,7.94
11.9299,-0.14835,-0.04712,0.73478,0.00000,0.00000,0.00000,50,3,54,-9,46,7,72,21,ok,2,0,0.003,12,-0.53,-2.34,10.43,67,0.114,7.94
11.9427,-0.14835,-0.04712,0.73478,0.00000,0.00000,0.00000,50,5,51,-10,47,7,72,21,ok,2,0,0.003,12,-0.53,-2.34,10.43,67,0.126,7.94
11.9652,-0.14835,-0.04712,0.73478,0.00000,0.00000,0.00000,52,6,49,-10,47,7,72,19,ok,2,0,0.003,12,-0.53,-2.34,10.43,67,0.139,7.94
11.9683,-0.14835,-0.04712,0.73478,0.00000,0.00000,0.00000,52,6,46,-10,48,7,72,15,ok,2,0,0.003,12,-0.53,-2.34,10.43,67,0.152,7.94
11.9808,-0.14835,-0.04712,0.73478,0.00000,0.00000,0.00000,52,7,45,-10,49,7,72,13,ok,2,0,0.003,12,-0.53,-2.34,10.43,67,0.165,7.94
12.0011,-0.14835,-0.04712,0.73478,0.00000,0.00000,0.00000,52,7,42,-10,50,7,71,11,ok,2,0,0.003,12,-0.53,-2.34,10.43,67,0.177,7.94
12.0062,-0.14835,-0.04712,0.73478,0.00000,0.00000,0.00000,54,8,39,-10,50,7,70,8,ok,2,0,0.003,12,-0.53,-2.34,10.43,67,0.190,7.94
12.0188,-0.12915,0.00873,0.74526,0.00000,0.00000,0.00000,54,8,37,-9,52,6,70,6,ok,2,0,0.003,12,-0.36,-1.00,9.19,68,0.000,7.94
12.0411,-0.12915,0.00873,0.74526,0.00000,0.00000,0.00000,54,8,34,-8,52,7,69,5,ok,2,0,0.003,12,-0.36,-1.00,9.19,68,0.013,7.94
12.0444,-0.12915,0.00873,0.74526,0.00000,0.00000,0.00000,54,9,31,-7,52,7,67,2,ok,2,0,0.003,12,-0.36,-1.00,9.19,68,0.026,7.94
12.0572,-0.12915,0.00873,0.74526,0.00000,0.00000,0.00000,54,9,27,-6,54,7,65,2,ok,2,0,0.003,12,-0.36,-1.00,9.19,68,0.038,7.94
12.0771,-0.12915,0.00873,0.74526,0.00000,0.00000,0.00000,55,9,25,-4,55,7,64,0,ok,2,0,0.003,12,-0.36,-1.00,9.19,68,0.051,7.94
12.0819,-0.12915,0.00873,0.74526,0.00000,0.00000,0.00000,56,10,21,-2,56,8,64,-1,ok,2,0,0.003,12,-0.36,-1.00,9.19,68,0.063,7.94
12.0945,-0.12915,0.00873,0.74526,0.00000,0.00000,0.00000,56,10,19,-1,58,5,61,-3,ok,2,0,0.003,12,-0.36,-1.00,9.19,68,0.076,7.94
12.1172,-0.12915,0.00873,0.74526,0.00000,0.00000,0.00000,56,10,18,1,58,7,59,-4,ok,2,0,0.003,12,-0.36,-1.00,9.19,68,0.088,7.94
12.1204,-0.12915,0.00873,0.74526,0.00000,0.00000,0.00000,56,11,16,3,59,8,58,-4,ok,2,0,0.003,12,-0.36,-1.00,9.19,68,0.102,7.94
12.1329,-0.12915,0.00873,0.74526,0.00000,0.00000,0.00000,56,11,15,6,59,8,55,-5,ok,2,0,0.003,12,-0.36,-1.00,9.19,68,0.114,7.94
12.1531,-0.12915,0.00873,0.74526,0.00000,0.00000,0.00000,56,12,13,9,60,8,53,-6,ok,2,0,0.003,12,-0.36,-1.00,9.19,68,0.127,7.94
12.1579,-0.12915,0.00873,0.74526,0.00000,0.00000,0.00000,56,12,13,12,60,9,50,-5,ok,2,0,0.003,12,-0.36,-1.00,9.19,68,0.139,7.94
12.1706,-0.12915,0.00873,0.74526,0.00000,0.00000,0.00000,56,13,14,12,60,9,48,-4,ok,2,0,0.003,12,-0.36,-1.00,9.19,68,0.152,7.94
12.1931,-0.12915,0.00873,0.74526,0.00000,0.00000,0.00000,56,13,15,11,61,10,46,-5,ok,2,0,0.003,12,-0.36,-1.00,9.19,68,0.165,7.94
12.1963,-0.12915,0.00873,0.74526,0.00000,0.00000,0.00000,56,14,16,10,61,10,42,-4,ok,2,0,0.003,12,-0.36,-1.00,9.19,68,0.178,7.94
12.2092,-0.12915,0.00873,0.74526,0.00000,0.00000,0.00000,56,15,18,9,61,11,41,-4,ok,2,0,0.003,12,-0.36,-1.00,9.19,68,0.190,7.94
12.2292,-0.08203,0.13788,0.72257,0.00000,0.00000,0.00000,56,15,19,9,61,12,37,-3,ok,2,0,0.003,12,1.54,-1.40,9.55,69,0.000,7.94
12.2341,-0.08203,0.13788,0.72257,0.00000,0.00000,0.00000,56,16,21,8,61,12,35,-2,ok,2,0,0.003,12,1.54,-1.40,9.55,69,0.012,7.94
12.2466,-0.08203,0.13788,0.72257,0.00000,0.00000,0.00000,56,18,21,8,62,14,31,-1,ok,2,0,0.003,12,1.54,-1.40,9.55,69,0.025,7.94
