# run_gait log  cmd_fwd=0.100 hz=80.0 fw_balance=off policy_yaw_sign=-1
t,roll,pitch,yaw,gx,gy,gz,j0,j1,j2,j3,j4,j5,j6,j7,guard_state,hottest_j,hottest_tier,hottest_frac,duty_s,ax,ay,az,imu_n,imu_age_s,volt
0.0414,0.00175,0.02269,0.00000,0.00000,0.00000,0.00000,28,0,57,10,60,-3,54,8,ok,3,0,0.000,0,0.44,-0.09,10.65,8,0.028,nan
0.0467,0.00175,0.02269,0.00000,0.00000,0.00000,0.00000,25,1,59,10,59,-4,56,6,ok,0,0,0.000,0,0.44,-0.09,10.65,8,0.054,nan
0.0597,0.00175,0.02269,0.00000,0.00000,0.00000,0.00000,24,4,59,11,56,-5,56,8,ok,4,0,0.000,0,0.44,-0.09,10.65,8,0.067,8.30
0.0812,0.00175,0.02269,0.00000,0.00000,0.00000,0.00000,22,7,60,12,55,-6,56,8,ok,0,0,0.000,0,0.44,-0.09,10.65,8,0.079,8.30
0.0853,0.00175,0.02269,0.00000,0.00000,0.00000,0.00000,21,10,59,13,52,-5,57,9,ok,4,0,0.000,0,0.44,-0.09,10.65,8,0.094,8.30
0.0982,-0.06458,0.01396,0.19024,0.00000,0.00000,0.00000,20,12,60,13,50,-5,58,10,ok,4,0,0.000,0,2.62,-5.03,16.06,9,0.000,8.30
0.1212,-0.06458,0.01396,0.19024,0.00000,0.00000,0.00000,21,13,60,14,47,-5,59,11,ok,4,0,0.000,0,2.62,-5.03,16.06,9,0.013,8.30
0.1255,-0.06458,0.01396,0.19024,0.00000,0.00000,0.00000,21,13,60,15,44,-4,59,11,ok,4,0,0.000,0,2.62,-5.03,16.06,9,0.027,8.30
0.1379,-0.06458,0.01396,0.19024,0.00000,0.00000,0.00000,23,11,61,15,42,-4,60,12,ok,4,0,0.000,0,2.62,-5.03,16.06,9,0.040,8.30
0.1612,-0.06458,0.01396,0.19024,0.00000,0.00000,0.00000,24,11,60,16,38,-3,61,12,ok,4,0,0.000,0,2.62,-5.03,16.06,9,0.052,8.30
0.1651,-0.06458,0.01396,0.19024,0.00000,0.00000,0.00000,24,10,61,17,35,-2,61,13,ok,4,0,0.000,0,2.62,-5.03,16.06,9,0.067,8.30
0.1771,-0.06458,0.01396,0.19024,0.00000,0.00000,0.00000,25,9,61,18,32,-1,61,14,ok,4,0,0.000,0,2.62,-5.03,16.06,9,0.080,8.30
0.1971,-0.06458,0.01396,0.19024,0.00000,0.00000,0.00000,25,8,61,19,30,0,62,15,ok,4,0,0.000,0,2.62,-5.03,16.06,9,0.092,8.30
0.2022,-0.06458,0.01396,0.19024,0.00000,0.00000,0.00000,28,7,62,20,27,2,62,16,ok,4,0,0.000,0,2.62,-5.03,16.06,9,0.105,8.30
0.2147,-0.06458,0.01396,0.19024,0.00000,0.00000,0.00000,28,6,62,21,25,5,63,16,ok,4,0,0.000,0,2.62,-5.03,16.06,9,0.117,8.30
0.2371,-0.06458,0.01396,0.19024,0.00000,0.00000,0.00000,29,6,62,22,23,8,64,17,ok,4,0,0.000,0,2.62,-5.03,16.06,9,0.130,8.30
0.2403,-0.06458,0.01396,0.19024,0.00000,0.00000,0.00000,30,6,62,23,22,11,64,18,ok,4,0,0.000,0,2.62,-5.03,16.06,9,0.143,8.30
0.2529,-0.06458,0.01396,0.19024,0.00000,0.00000,0.00000,31,6,62,23,21,14,64,19,ok,4,0,0.000,0,2.62,-5.03,16.06,9,0.156,8.30
0.2731,-0.06458,0.01396,0.19024,0.00000,0.00000,0.00000,32,5,61,26,23,13,65,19,ok,4,0,0.000,0,2.62,-5.03,16.06,9,0.168,8.30
0.2781,-0.06458,0.01396,0.19024,0.00000,0.00000,0.00000,32,4,61,28,23,14,65,20,ok,4,0,0.000,0,2.62,-5.03,16.06,9,0.181,8.30
0.2905,-0.06458,0.01396,0.19024,0.00000,0.00000,0.00000,33,4,63,26,24,11,65,21,ok,4,0,0.000,0,2.62,-5.03,16.06,9,0.193,8.30
0.3131,-0.06458,0.01396,0.19024,0.00000,0.00000,0.00000,35,4,66,23,25,11,66,23,ok,4,0,0.000,0,2.62,-5.03,16.06,9,0.206,8.30
0.3166,-0.31416,-0.39619,0.01920,0.00000,0.00000,0.00000,36,3,68,20,26,11,66,24,ok,4,0,0.000,0,-2.00,-1.48,5.87,10,0.000,8.30
0.3292,-0.31416,-0.39619,0.01920,0.00000,0.00000,0.00000,37,2,69,16,28,10,66,26,ok,4,0,0.000,0,-2.00,-1.48,5.87,10,0.013,8.30
0.3491,-0.31416,-0.39619,0.01920,0.00000,0.00000,0.00000,38,3,70,14,29,9,67,27,ok,4,0,0.000,0,-2.00,-1.48,5.87,10,0.025,8.30
0.3540,-0.31416,-0.39619,0.01920,0.00000,0.00000,0.00000,40,1,71,13,31,9,68,28,ok,4,0,0.000,0,-2.00,-1.48,5.87,10,0.038,8.30
0.3665,-0.31416,-0.39619,0.01920,0.00000,0.00000,0.00000,41,2,71,10,30,10,67,30,ok,4,0,0.000,0,-2.00,-1.48,5.87,10,0.050,8.30
0.3891,-0.31416,-0.39619,0.01920,0.00000,0.00000,0.00000,43,2,71,7,32,10,67,31,ok,4,0,0.000,0,-2.00,-1.48,5.87,10,0.063,8.30
0.3925,-0.31416,-0.39619,0.01920,0.00000,0.00000,0.00000,44,3,71,5,33,9,67,33,ok,4,0,0.000,0,-2.00,-1.48,5.87,10,0.076,8.30
0.4049,-0.31416,-0.39619,0.01920,0.00000,0.00000,0.00000,45,3,71,2,34,9,65,34,ok,4,0,0.000,0,-2.00,-1.48,5.87,10,0.089,8.30
0.4251,-0.31416,-0.39619,0.01920,0.00000,0.00000,0.00000,47,3,70,0,36,8,64,36,ok,4,0,0.000,0,-2.00,-1.48,5.87,10,0.101,8.30
0.4299,-0.31416,-0.39619,0.01920,0.00000,0.00000,0.00000,48,3,69,-2,38,7,64,36,ok,4,0,0.000,0,-2.00,-1.48,5.87,10,0.114,8.30
0.4425,-0.31416,-0.39619,0.01920,0.00000,0.00000,0.00000,48,4,67,-3,39,6,64,37,ok,4,0,0.000,0,-2.00,-1.48,5.87,10,0.126,8.30
0.4651,-0.31416,-0.39619,0.01920,0.00000,0.00000,0.00000,50,5,65,-5,40,6,65,35,ok,4,0,0.000,0,-2.00,-1.48,5.87,10,0.139,8.30
0.4683,-0.31416,-0.39619,0.01920,0.00000,0.00000,0.00000,51,6,64,-7,41,6,67,34,ok,4,0,0.000,0,-2.00,-1.48,5.87,10,0.152,8.30
0.4810,-0.31416,-0.39619,0.01920,0.00000,0.00000,0.00000,52,7,62,-7,42,6,69,28,ok,4,0,0.000,0,-2.00,-1.48,5.87,10,0.165,8.30
0.5012,-0.31416,-0.39619,0.01920,0.00000,0.00000,0.00000,53,6,59,-9,43,6,70,25,ok,4,0,0.000,0,-2.00,-1.48,5.87,10,0.177,8.30
0.5064,-0.15359,-0.50091,-0.56723,0.00000,0.00000,0.00000,54,6,57,-9,45,6,72,22,ok,4,0,0.000,0,-3.87,-0.11,5.59,11,0.000,8.30
0.5188,-0.15359,-0.50091,-0.56723,0.00000,0.00000,0.00000,54,8,55,-10,46,6,72,21,ok,4,0,0.000,0,-3.87,-0.11,5.59,11,0.013,8.30
0.5411,-0.15359,-0.50091,-0.56723,0.00000,0.00000,0.00000,55,8,53,-10,47,7,71,19,ok,4,0,0.000,1,-3.87,-0.11,5.59,11,0.025,8.30
0.5443,-0.15359,-0.50091,-0.56723,0.00000,0.00000,0.00000,55,8,50,-10,48,7,71,15,ok,4,0,0.000,1,-3.87,-0.11,5.59,11,0.038,8.30
0.5571,-0.15359,-0.50091,-0.56723,0.00000,0.00000,0.00000,56,9,49,-10,49,7,71,13,ok,4,0,0.000,1,-3.87,-0.11,5.59,11,0.051,8.30
0.5773,-0.15359,-0.50091,-0.56723,0.00000,0.00000,0.00000,56,10,47,-10,50,6,70,11,ok,4,0,0.000,1,-3.87,-0.11,5.59,11,0.064,8.30
0.5820,-0.15359,-0.50091,-0.56723,0.00000,0.00000,0.00000,58,10,44,-11,50,6,70,7,ok,4,0,0.000,1,-3.87,-0.11,5.59,11,0.076,8.30
0.5945,-0.15359,-0.50091,-0.56723,0.00000,0.00000,0.00000,58,10,42,-10,51,5,70,6,ok,4,0,0.000,1,-3.87,-0.11,5.59,11,0.089,8.30
0.6171,-0.15359,-0.50091,-0.56723,0.00000,0.00000,0.00000,59,10,38,-9,51,6,69,4,ok,4,0,0.000,1,-3.87,-0.11,5.59,11,0.101,8.30
0.6204,-0.15359,-0.50091,-0.56723,0.00000,0.00000,0.00000,59,11,35,-7,51,6,67,2,ok,4,0,0.000,1,-3.87,-0.11,5.59,11,0.114,8.30
0.6329,-0.15359,-0.50091,-0.56723,0.00000,0.00000,0.00000,60,11,32,-6,52,7,65,1,ok,4,0,0.000,1,-3.87,-0.11,5.59,11,0.127,8.30
0.6531,-0.15359,-0.50091,-0.56723,0.00000,0.00000,0.00000,60,11,29,-4,53,7,63,0,ok,4,0,0.000,1,-3.87,-0.11,5.59,11,0.140,8.30
0.6579,-0.15359,-0.50091,-0.56723,0.00000,0.00000,0.00000,61,12,25,-1,54,8,62,-2,ok,2,0,0.000,1,-3.87,-0.11,5.59,11,0.152,8.30
0.6705,-0.15359,-0.50091,-0.56723,0.00000,0.00000,0.00000,61,12,23,0,56,6,60,-3,ok,2,0,0.000,1,-3.87,-0.11,5.59,11,0.165,8.30
0.6931,-0.15359,-0.50091,-0.56723,0.00000,0.00000,0.00000,62,12,22,2,56,7,58,-4,ok,2,0,0.000,1,-3.87,-0.11,5.59,11,0.177,8.30
0.6965,-0.15359,-0.50091,-0.56723,0.00000,0.00000,0.00000,62,13,20,4,57,8,57,-4,ok,2,0,0.000,1,-3.87,-0.11,5.59,11,0.190,8.30
0.7092,-0.15359,-0.50091,-0.56723,0.00000,0.00000,0.00000,62,13,18,7,57,8,54,-4,ok,2,0,0.000,1,-3.87,-0.11,5.59,11,0.203,8.30
0.7291,-0.10647,-0.12217,-0.32289,0.00000,0.00000,0.00000,62,14,17,11,57,9,52,-5,ok,2,0,0.000,1,-2.18,0.68,9.89,12,0.000,8.30
0.7340,-0.10647,-0.12217,-0.32289,0.00000,0.00000,0.00000,63,15,16,13,57,9,48,-4,ok,2,0,0.000,1,-2.18,0.68,9.89,12,0.012,8.30
0.7466,-0.10647,-0.12217,-0.32289,0.00000,0.00000,0.00000,63,16,17,14,57,9,45,-4,ok,2,0,0.000,1,-2.18,0.68,9.89,12,0.025,8.30
0.7731,-0.10647,-0.12217,-0.32289,0.00000,0.00000,0.00000,63,16,18,13,58,9,43,-4,ok,2,0,0.000,1,-2.18,0.68,9.89,12,0.038,8.30
0.7765,-0.10647,-0.12217,-0.32289,0.00000,0.00000,0.00000,63,16,19,12,59,10,40,-3,ok,2,0,0.000,1,-2.18,0.68,9.89,12,0.055,8.30
0.7889,-0.10647,-0.12217,-0.32289,0.00000,0.00000,0.00000,62,17,21,10,59,11,38,-3,ok,2,0,0.000,1,-2.18,0.68,9.89,12,0.067,8.30
0.8091,-0.10647,-0.12217,-0.32289,0.00000,0.00000,0.00000,63,17,21,10,60,11,34,-2,ok,2,0,0.000,1,-2.18,0.68,9.89,12,0.080,8.30
0.8139,-0.10647,-0.12217,-0.32289,0.00000,0.00000,0.00000,63,18,22,8,60,12,33,-1,ok,2,0,0.000,1,-2.18,0.68,9.89,12,0.092,8.30
0.8267,-0.10647,-0.12217,-0.32289,0.00000,0.00000,0.00000,63,19,22,8,61,14,29,0,ok,2,0,0.000,1,-2.18,0.68,9.89,12,0.105,8.30
0.8492,-0.10647,-0.12217,-0.32289,0.00000,0.00000,0.00000,64,20,24,7,62,14,28,1,ok,2,0,0.000,1,-2.18,0.68,9.89,12,0.117,8.30
0.8529,-0.10647,-0.12217,-0.32289,0.00000,0.00000,0.00000,64,21,25,6,62,15,26,3,ok,2,0,0.000,1,-2.18,0.68,9.89,12,0.131,8.30
0.8655,-0.10647,-0.12217,-0.32289,0.00000,0.00000,0.00000,64,22,25,5,62,16,24,6,ok,2,0,0.000,1,-2.18,0.68,9.89,12,0.144,8.30
0.8852,-0.10647,-0.12217,-0.32289,0.00000,0.00000,0.00000,64,23,26,4,63,16,23,8,ok,2,0,0.000,1,-2.18,0.68,9.89,12,0.156,8.30
0.8903,-0.10647,-0.12217,-0.32289,0.00000,0.00000,0.00000,64,24,27,3,64,17,22,11,ok,2,0,0.000,1,-2.18,0.68,9.89,12,0.169,8.30
0.9030,-0.10647,-0.12217,-0.32289,0.00000,0.00000,0.00000,63,27,28,3,64,18,22,13,ok,2,0,0.000,1,-2.18,0.68,9.89,12,0.181,8.30
0.9252,-0.15010,-0.09250,0.15533,0.00000,0.00000,0.00000,63,28,29,2,64,19,24,13,ok,2,0,0.000,1,0.27,-1.27,12.64,13,0.000,8.30
0.9287,-0.15010,-0.09250,0.15533,0.00000,0.00000,0.00000,64,26,30,2,64,20,24,12,ok,2,0,0.000,1,0.27,-1.27,12.64,13,0.013,8.30
0.9412,-0.15010,-0.09250,0.15533,0.00000,0.00000,0.00000,65,23,31,2,64,21,25,11,ok,2,0,0.000,1,0.27,-1.27,12.64,13,0.026,8.30
0.9611,-0.15010,-0.09250,0.15533,0.00000,0.00000,0.00000,68,19,32,1,63,22,26,10,ok,2,0,0.000,1,0.27,-1.27,12.64,13,0.038,8.30
0.9660,-0.15010,-0.09250,0.15533,0.00000,0.00000,0.00000,68,14,34,2,63,24,27,11,ok,2,0,0.000,1,0.27,-1.27,12.64,13,0.051,8.30
0.9787,-0.15010,-0.09250,0.15533,0.00000,0.00000,0.00000,68,12,35,2,64,25,28,10,ok,2,0,0.000,1,0.27,-1.27,12.64,13,0.063,8.30
1.0011,-0.15010,-0.09250,0.15533,0.00000,0.00000,0.00000,68,12,36,2,63,27,30,10,ok,2,0,0.000,1,0.27,-1.27,12.64,13,0.076,8.30
1.0044,-0.15010,-0.09250,0.15533,0.00000,0.00000,0.00000,68,8,37,2,63,28,32,10,ok,2,0,0.000,1,0.27,-1.27,12.64,13,0.089,8.30
1.0170,-0.15010,-0.09250,0.15533,0.00000,0.00000,0.00000,68,6,39,3,64,30,32,10,ok,2,0,0.000,1,0.27,-1.27,12.64,13,0.102,8.30
1.0371,-0.15010,-0.09250,0.15533,0.00000,0.00000,0.00000,67,3,41,3,64,31,34,9,ok,2,0,0.000,1,0.27,-1.27,12.64,13,0.114,8.30
1.0419,-0.15010,-0.09250,0.15533,0.00000,0.00000,0.00000,66,0,42,3,63,33,35,9,ok,2,0,0.000,1,0.27,-1.27,12.64,13,0.127,8.30
1.0545,-0.15010,-0.09250,0.15533,0.00000,0.00000,0.00000,65,-1,43,2,63,34,36,9,ok,2,0,0.000,1,0.27,-1.27,12.64,13,0.139,8.30
1.0771,-0.15010,-0.09250,0.15533,0.00000,0.00000,0.00000,64,-2,45,2,64,35,37,9,ok,2,0,0.000,1,0.27,-1.27,12.64,13,0.152,8.30
1.0805,-0.15010,-0.09250,0.15533,0.00000,0.00000,0.00000,62,-4,45,2,65,34,39,9,ok,2,0,0.000,1,0.27,-1.27,12.64,13,0.165,8.30
1.0930,-0.15010,-0.09250,0.15533,0.00000,0.00000,0.00000,61,-5,46,3,67,32,40,8,ok,2,0,0.000,1,0.27,-1.27,12.64,13,0.178,8.30
1.1131,-0.15010,-0.09250,0.15533,0.00000,0.00000,0.00000,60,-7,48,3,69,28,41,8,ok,2,0,0.000,1,0.27,-1.27,12.64,13,0.190,8.30
1.1181,-0.15010,-0.09250,0.15533,0.00000,0.00000,0.00000,58,-8,49,4,71,23,43,8,ok,2,0,0.000,1,0.27,-1.27,12.64,13,0.203,8.30
1.1308,0.00175,0.01745,0.21642,0.00000,0.00000,0.00000,56,-9,50,4,72,21,43,8,ok,2,0,0.000,1,0.60,-0.33,12.90,14,0.000,8.30
1.1531,0.00175,0.01745,0.21642,0.00000,0.00000,0.00000,55,-9,51,3,73,20,44,8,ok,2,0,0.000,1,0.60,-0.33,12.90,14,0.012,8.30
1.1563,0.00175,0.01745,0.21642,0.00000,0.00000,0.00000,52,-10,51,5,73,18,45,8,ok,2,0,0.000,1,0.60,-0.33,12.90,14,0.026,8.30
1.1689,0.00175,0.01745,0.21642,0.00000,0.00000,0.00000,51,-9,52,6,74,14,45,9,ok,2,0,0.000,1,0.60,-0.33,12.90,14,0.038,8.30
1.1891,0.00175,0.01745,0.21642,0.00000,0.00000,0.00000,48,-9,53,5,74,11,47,9,ok,2,0,0.000,1,0.60,-0.33,12.90,14,0.051,8.30
1.1941,0.00175,0.01745,0.21642,0.00000,0.00000,0.00000,46,-9,54,5,73,10,47,9,ok,2,0,0.000,1,0.60,-0.33,12.90,14,0.063,8.30
1.2065,0.00175,0.01745,0.21642,0.00000,0.00000,0.00000,44,-9,54,6,72,6,48,9,ok,2,0,0.000,1,0.60,-0.33,12.90,14,0.076,8.30
1.2291,0.00175,0.01745,0.21642,0.00000,0.00000,0.00000,42,-9,56,6,72,4,49,8,ok,2,0,0.000,1,0.60,-0.33,12.90,14,0.088,8.30
1.2324,0.00175,0.01745,0.21642,0.00000,0.00000,0.00000,40,-8,56,6,71,3,50,9,ok,2,0,0.000,1,0.60,-0.33,12.90,14,0.102,8.30
1.2451,0.00175,0.01745,0.21642,0.00000,0.00000,0.00000,37,-7,57,6,69,1,51,8,ok,2,0,0.000,1,0.60,-0.33,12.90,14,0.114,8.30
1.2651,0.00175,0.01745,0.21642,0.00000,0.00000,0.00000,35,-6,57,7,66,1,52,9,ok,2,0,0.000,1,0.60,-0.33,12.90,14,0.127,8.30
1.2699,0.00175,0.01745,0.21642,0.00000,0.00000,0.00000,32,-5,58,7,65,-1,52,9,ok,2,0,0.000,1,0.60,-0.33,12.90,14,0.139,8.30
1.2825,0.00175,0.01745,0.21642,0.00000,0.00000,0.00000,29,-4,58,8,64,-3,54,9,ok,2,0,0.000,1,0.60,-0.33,12.90,14,0.152,8.30
1.3051,0.00175,0.01745,0.21642,0.00000,0.00000,0.00000,27,-2,59,9,62,-4,55,9,ok,2,0,0.000,1,0.60,-0.33,12.90,14,0.164,8.30
1.3084,0.00175,0.01745,0.21642,0.00000,0.00000,0.00000,26,-1,60,10,61,-5,54,8,ok,2,0,0.000,1,0.60,-0.33,12.90,14,0.178,8.30
1.3212,0.00175,0.01745,0.21642,0.00000,0.00000,0.00000,25,0,60,10,59,-6,56,6,ok,2,0,0.000,1,0.60,-0.33,12.90,14,0.190,8.30
1.3411,-0.05585,-0.04712,0.23387,0.00000,0.00000,0.00000,24,2,61,11,56,-7,57,8,ok,2,0,0.000,1,-0.43,-1.63,9.45,15,0.000,8.30
1.3460,-0.05585,-0.04712,0.23387,0.00000,0.00000,0.00000,22,5,61,11,54,-8,58,8,ok,2,0,0.000,1,-0.43,-1.63,9.45,15,0.012,8.30
1.3585,-0.05585,-0.04712,0.23387,0.00000,0.00000,0.00000,21,8,61,12,51,-7,59,9,ok,4,0,0.000,1,-0.43,-1.63,9.45,15,0.025,8.30
1.3811,-0.05585,-0.04712,0.23387,0.00000,0.00000,0.00000,20,10,61,12,48,-6,59,9,ok,4,0,0.000,1,-0.43,-1.63,9.45,15,0.038,8.30
1.3843,-0.05585,-0.04712,0.23387,0.00000,0.00000,0.00000,21,11,62,13,46,-6,60,10,ok,4,0,0.000,1,-0.43,-1.63,9.45,15,0.051,8.30
1.3970,-0.05585,-0.04712,0.23387,0.00000,0.00000,0.00000,22,11,61,14,43,-6,60,10,ok,4,0,0.000,1,-0.43,-1.63,9.45,15,0.063,8.30
1.4171,-0.05585,-0.04712,0.23387,0.00000,0.00000,0.00000,23,9,62,14,40,-5,61,11,ok,4,0,0.000,1,-0.43,-1.63,9.45,15,0.076,8.30
1.4219,-0.05585,-0.04712,0.23387,0.00000,0.00000,0.00000,24,9,62,15,37,-4,61,12,ok,4,0,0.000,1,-0.43,-1.63,9.45,15,0.088,8.30
1.4345,-0.05585,-0.04712,0.23387,0.00000,0.00000,0.00000,25,8,63,15,34,-4,61,13,ok,4,0,0.000,1,-0.43,-1.63,9.45,15,0.101,8.30
1.4571,-0.05585,-0.04712,0.23387,0.00000,0.00000,0.00000,27,7,63,16,32,-2,61,14,ok,4,0,0.000,1,-0.43,-1.63,9.45,15,0.113,8.30
1.4603,-0.05585,-0.04712,0.23387,0.00000,0.00000,0.00000,27,7,63,17,30,-1,62,15,ok,4,0,0.000,1,-0.43,-1.63,9.45,15,0.127,8.30
1.4729,-0.05585,-0.04712,0.23387,0.00000,0.00000,0.00000,28,6,64,18,28,1,62,16,ok,4,0,0.000,1,-0.43,-1.63,9.45,15,0.139,8.30
1.4931,-0.05585,-0.04712,0.23387,0.00000,0.00000,0.00000,30,5,64,19,25,4,63,16,ok,4,0,0.000,1,-0.43,-1.63,9.45,15,0.152,8.30
1.4979,-0.05585,-0.04712,0.23387,0.00000,0.00000,0.00000,31,5,64,20,24,7,63,17,ok,4,0,0.000,1,-0.43,-1.63,9.45,15,0.164,8.30
1.5106,-0.05585,-0.04712,0.23387,0.00000,0.00000,0.00000,32,5,64,21,23,11,63,18,ok,4,0,0.000,1,-0.43,-1.63,9.45,15,0.177,8.30
1.5331,-0.05585,-0.04712,0.23387,0.00000,0.00000,0.00000,32,4,64,22,22,14,63,18,ok,4,0,0.000,1,-0.43,-1.63,9.45,15,0.189,8.30
1.5367,-0.04189,-0.04712,0.27925,0.00000,0.00000,0.00000,33,4,63,25,24,13,64,19,ok,4,0,0.000,1,-0.91,-1.15,9.69,16,0.000,8.30
1.5490,-0.04189,-0.04712,0.27925,0.00000,0.00000,0.00000,34,3,63,27,24,13,64,20,ok,4,0,0.000,1,-0.91,-1.15,9.69,16,0.013,8.30
1.5691,-0.04189,-0.04712,0.27925,0.00000,0.00000,0.00000,35,3,65,25,26,11,64,21,ok,4,0,0.000,2,-0.91,-1.15,9.69,16,0.025,8.30
1.5740,-0.04189,-0.04712,0.27925,0.00000,0.00000,0.00000,36,2,67,22,27,10,64,22,ok,4,0,0.000,2,-0.91,-1.15,9.69,16,0.038,8.30
1.5866,-0.04189,-0.04712,0.27925,0.00000,0.00000,0.00000,36,2,70,18,28,10,64,23,ok,4,0,0.000,2,-0.91,-1.15,9.69,16,0.050,8.30
1.6091,-0.04189,-0.04712,0.27925,0.00000,0.00000,0.00000,38,2,71,14,29,10,64,24,ok,4,0,0.000,2,-0.91,-1.15,9.69,16,0.063,8.30
1.6125,-0.04189,-0.04712,0.27925,0.00000,0.00000,0.00000,39,2,71,12,30,9,64,26,ok,4,0,0.000,2,-0.91,-1.15,9.69,16,0.076,8.30
1.6249,-0.04189,-0.04712,0.27925,0.00000,0.00000,0.00000,40,2,71,11,33,9,65,27,ok,4,0,0.000,2,-0.91,-1.15,9.69,16,0.089,8.30
1.6451,-0.04189,-0.04712,0.27925,0.00000,0.00000,0.00000,41,2,71,8,33,9,64,29,ok,4,0,0.000,2,-0.91,-1.15,9.69,16,0.101,8.30
1.6500,-0.04189,-0.04712,0.27925,0.00000,0.00000,0.00000,43,3,70,5,35,9,63,30,ok,4,0,0.000,2,-0.91,-1.15,9.69,16,0.114,8.30
1.6626,-0.04189,-0.04712,0.27925,0.00000,0.00000,0.00000,44,3,69,2,36,8,64,31,ok,4,0,0.000,2,-0.91,-1.15,9.69,16,0.126,8.30
1.6851,-0.04189,-0.04712,0.27925,0.00000,0.00000,0.00000,44,3,68,0,37,9,63,33,ok,4,0,0.000,2,-0.91,-1.15,9.69,16,0.139,8.30
1.6884,-0.04189,-0.04712,0.27925,0.00000,0.00000,0.00000,46,3,67,-2,39,8,63,35,ok,4,0,0.000,2,-0.91,-1.15,9.69,16,0.152,8.30
1.7010,-0.04189,-0.04712,0.27925,0.00000,0.00000,0.00000,47,3,65,-3,39,8,63,36,ok,4,0,0.000,2,-0.91,-1.15,9.69,16,0.165,8.30
1.7211,-0.04189,-0.04712,0.27925,0.00000,0.00000,0.00000,47,3,63,-4,41,7,64,36,ok,4,0,0.000,2,-0.91,-1.15,9.69,16,0.177,8.30
1.7260,-0.04189,-0.04712,0.27925,0.00000,0.00000,0.00000,48,3,61,-6,42,7,65,35,ok,4,0,0.000,2,-0.91,-1.15,9.69,16,0.190,8.30
1.7389,-0.11345,0.04538,0.28449,0.00000,0.00000,0.00000,48,3,61,-8,43,7,67,33,ok,4,0,0.001,2,-0.60,-1.19,8.16,17,0.000,8.30
1.7611,-0.11345,0.04538,0.28449,0.00000,0.00000,0.00000,50,4,58,-8,43,6,69,28,ok,4,0,0.001,2,-0.60,-1.19,8.16,17,0.013,8.30
1.7643,-0.11345,0.04538,0.28449,0.00000,0.00000,0.00000,51,4,56,-9,44,6,70,24,ok,4,0,0.001,2,-0.60,-1.19,8.16,17,0.026,8.30
1.7770,-0.11345,0.04538,0.28449,0.00000,0.00000,0.00000,52,3,54,-9,45,6,72,21,ok,4,0,0.001,2,-0.60,-1.19,8.16,17,0.038,8.30
1.7971,-0.11345,0.04538,0.28449,0.00000,0.00000,0.00000,52,5,51,-10,46,6,72,21,ok,4,0,0.001,2,-0.60,-1.19,8.16,17,0.051,8.30
1.8020,-0.11345,0.04538,0.28449,0.00000,0.00000,0.00000,52,5,49,-10,47,7,72,19,ok,4,0,0.001,2,-0.60,-1.19,8.16,17,0.063,8.30
1.8145,-0.11345,0.04538,0.28449,0.00000,0.00000,0.00000,52,5,46,-10,49,7,72,15,ok,4,0,0.001,2,-0.60,-1.19,8.16,17,0.076,8.30
1.8371,-0.11345,0.04538,0.28449,0.00000,0.00000,0.00000,53,5,44,-9,49,7,72,13,ok,4,0,0.001,2,-0.60,-1.19,8.16,17,0.088,8.30
1.8405,-0.11345,0.04538,0.28449,0.00000,0.00000,0.00000,53,6,41,-9,50,7,71,11,ok,4,0,0.001,2,-0.60,-1.19,8.16,17,0.102,8.30
1.8529,-0.11345,0.04538,0.28449,0.00000,0.00000,0.00000,55,6,39,-10,51,7,71,8,ok,4,0,0.001,2,-0.60,-1.19,8.16,17,0.114,8.30
1.8731,-0.11345,0.04538,0.28449,0.00000,0.00000,0.00000,56,7,36,-9,52,6,70,6,ok,4,0,0.001,2,-0.60,-1.19,8.16,17,0.127,8.30
1.8779,-0.11345,0.04538,0.28449,0.00000,0.00000,0.00000,56,7,33,-8,52,7,70,4,ok,4,0,0.001,2,-0.60,-1.19,8.16,17,0.139,8.30
1.8907,-0.11345,0.04538,0.28449,0.00000,0.00000,0.00000,56,8,30,-7,53,7,68,2,ok,2,0,0.001,2,-0.60,-1.19,8.16,17,0.152,8.30
1.9131,-0.11345,0.04538,0.28449,0.00000,0.00000,0.00000,57,8,27,-6,54,8,66,2,ok,2,0,0.001,2,-0.60,-1.19,8.16,17,0.164,8.30
1.9164,-0.11345,0.04538,0.28449,0.00000,0.00000,0.00000,57,9,24,-5,55,8,65,0,ok,2,0,0.001,2,-0.60,-1.19,8.16,17,0.178,8.30
1.9289,-0.11345,0.04538,0.28449,0.00000,0.00000,0.00000,58,10,20,-2,56,8,64,-2,ok,2,0,0.001,2,-0.60,-1.19,8.16,17,0.190,8.30
1.9491,-0.11345,0.04538,0.28449,0.00000,0.00000,0.00000,58,10,18,-1,58,6,62,-3,ok,2,0,0.001,2,-0.60,-1.19,8.16,17,0.203,8.30
1.9542,-0.04189,0.02967,0.28623,0.00000,0.00000,0.00000,59,10,18,0,58,7,60,-4,ok,2,0,0.001,2,0.63,-0.05,10.35,18,0.000,8.30
1.9667,-0.04189,0.02967,0.28623,0.00000,0.00000,0.00000,59,11,16,3,59,8,58,-4,ok,2,0,0.001,2,0.63,-0.05,10.35,18,0.013,8.30
1.9891,-0.04189,0.02967,0.28623,0.00000,0.00000,0.00000,59,11,14,5,59,8,55,-5,ok,2,0,0.001,2,0.63,-0.05,10.35,18,0.025,8.30
1.9923,-0.04189,0.02967,0.28623,0.00000,0.00000,0.00000,59,12,13,9,60,9,53,-6,ok,2,0,0.001,2,0.63,-0.05,10.35,18,0.038,8.30
2.0049,-0.04189,0.02967,0.28623,0.00000,0.00000,0.00000,60,12,12,11,61,9,50,-5,ok,2,0,0.001,2,0.63,-0.05,10.35,18,0.051,8.30
2.0251,-0.04189,0.02967,0.28623,0.00000,0.00000,0.00000,60,13,14,11,61,9,47,-5,ok,2,0,0.001,2,0.63,-0.05,10.35,18,0.064,8.30
2.0301,-0.04189,0.02967,0.28623,0.00000,0.00000,0.00000,60,14,15,11,61,10,45,-5,ok,2,0,0.001,2,0.63,-0.05,10.35,18,0.076,8.30
2.0425,-0.04189,0.02967,0.28623,0.00000,0.00000,0.00000,60,14,16,10,61,11,42,-4,ok,2,0,0.001,2,0.63,-0.05,10.35,18,0.089,8.30
2.0651,-0.04189,0.02967,0.28623,0.00000,0.00000,0.00000,60,15,18,9,61,12,40,-4,ok,2,0,0.001,2,0.63,-0.05,10.35,18,0.101,8.30
2.0683,-0.04189,0.02967,0.28623,0.00000,0.00000,0.00000,60,16,19,8,61,12,37,-3,ok,2,0,0.001,2,0.63,-0.05,10.35,18,0.114,8.30
2.0809,-0.04189,0.02967,0.28623,0.00000,0.00000,0.00000,60,17,21,7,62,13,35,-3,ok,2,0,0.001,2,0.63,-0.05,10.35,18,0.127,8.30
2.1011,-0.04189,0.02967,0.28623,0.00000,0.00000,0.00000,60,18,21,7,62,14,31,-1,ok,2,0,0.001,2,0.63,-0.05,10.35,18,0.140,8.30
2.1059,-0.04189,0.02967,0.28623,0.00000,0.00000,0.00000,62,19,23,6,63,14,30,0,ok,2,0,0.001,2,0.63,-0.05,10.35,18,0.152,8.30
2.1185,-0.04189,0.02967,0.28623,0.00000,0.00000,0.00000,62,20,24,5,63,15,27,2,ok,2,0,0.001,2,0.63,-0.05,10.35,18,0.165,8.30
2.1451,-0.04189,0.02967,0.28623,0.00000,0.00000,0.00000,62,21,24,5,63,16,25,5,ok,2,0,0.001,2,0.63,-0.05,10.35,18,0.177,8.30
2.1486,-0.06632,0.10821,0.32289,0.00000,0.00000,0.00000,62,22,25,4,63,17,24,7,ok,2,0,0.001,2,1.92,-1.72,11.14,19,0.000,8.30
2.1610,-0.06632,0.10821,0.32289,0.00000,0.00000,0.00000,62,23,26,3,64,17,23,11,ok,2,0,0.001,2,1.92,-1.72,11.14,19,0.013,8.30
2.1811,-0.06632,0.10821,0.32289,0.00000,0.00000,0.00000,61,26,27,3,64,18,22,13,ok,2,0,0.001,2,1.92,-1.72,11.14,19,0.025,8.30
2.1860,-0.06632,0.10821,0.32289,0.00000,0.00000,0.00000,61,26,27,2,64,19,24,12,ok,2,0,0.001,2,1.92,-1.72,11.14,19,0.038,8.30
2.1984,-0.06632,0.10821,0.32289,0.00000,0.00000,0.00000,62,25,28,2,64,20,25,12,ok,2,0,0.001,2,1.92,-1.72,11.14,19,0.050,8.30
2.2211,-0.06632,0.10821,0.32289,0.00000,0.00000,0.00000,64,21,29,2,65,22,25,10,ok,2,0,0.001,2,1.92,-1.72,11.14,19,0.063,8.30
2.2245,-0.06632,0.10821,0.32289,0.00000,0.00000,0.00000,66,17,30,1,64,23,27,10,ok,2,0,0.001,2,1.92,-1.72,11.14,19,0.076,8.30
2.2370,-0.06632,0.10821,0.32289,0.00000,0.00000,0.00000,66,13,32,2,64,25,28,10,ok,2,0,0.001,2,1.92,-1.72,11.14,19,0.089,8.30
2.2571,-0.06632,0.10821,0.32289,0.00000,0.00000,0.00000,66,11,33,2,65,25,29,10,ok,2,0,0.001,2,1.92,-1.72,11.14,19,0.101,8.30
2.2619,-0.06632,0.10821,0.32289,0.00000,0.00000,0.00000,66,10,35,2,64,27,30,9,ok,2,0,0.001,2,1.92,-1.72,11.14,19,0.114,8.30
2.2745,-0.06632,0.10821,0.32289,0.00000,0.00000,0.00000,66,7,36,2,64,29,32,9,ok,2,0,0.001,2,1.92,-1.72,11.14,19,0.126,8.30
2.2971,-0.06632,0.10821,0.32289,0.00000,0.00000,0.00000,65,5,38,3,64,30,33,9,ok,2,0,0.001,2,1.92,-1.72,11.14,19,0.139,8.30
2.3005,-0.06632,0.10821,0.32289,0.00000,0.00000,0.00000,65,2,39,3,65,32,35,9,ok,2,0,0.001,2,1.92,-1.72,11.14,19,0.152,8.30
2.3129,-0.06632,0.10821,0.32289,0.00000,0.00000,0.00000,64,-1,41,2,64,33,36,9,ok,2,0,0.001,2,1.92,-1.72,11.14,19,0.165,8.30
2.3331,-0.06632,0.10821,0.32289,0.00000,0.00000,0.00000,64,-2,42,2,64,35,37,9,ok,2,0,0.001,2,1.92,-1.72,11.14,19,0.177,8.30
2.3379,-0.06632,0.10821,0.32289,0.00000,0.00000,0.00000,62,-4,43,2,65,35,38,8,ok,2,0,0.001,2,1.92,-1.72,11.14,19,0.190,8.30
2.3507,-0.06632,0.10821,0.32289,0.00000,0.00000,0.00000,60,-5,43,2,66,35,39,8,ok,2,0,0.001,2,1.92,-1.72,11.14,19,0.202,8.30
2.3731,0.04014,0.05585,0.36477,0.00000,0.00000,0.00000,60,-6,45,3,68,33,41,7,ok,2,0,0.001,2,1.57,0.78,9.97,20,0.000,8.30
2.3765,0.04014,0.05585,0.36477,0.00000,0.00000,0.00000,59,-8,46,2,70,29,42,7,ok,2,0,0.001,2,1.57,0.78,9.97,20,0.013,8.30
2.3889,0.04014,0.05585,0.36477,0.00000,0.00000,0.00000,56,-9,47,3,72,24,43,7,ok,2,0,0.001,2,1.57,0.78,9.97,20,0.026,8.30
2.4091,0.04014,0.05585,0.36477,0.00000,0.00000,0.00000,55,-10,48,3,74,22,44,7,ok,2,0,0.001,2,1.57,0.78,9.97,20,0.038,8.30
2.4141,0.04014,0.05585,0.36477,0.00000,0.00000,0.00000,53,-10,49,3,75,21,44,7,ok,2,0,0.001,2,1.57,0.78,9.97,20,0.051,8.30
2.4265,0.04014,0.05585,0.36477,0.00000,0.00000,0.00000,52,-11,49,5,74,19,46,7,ok,2,0,0.001,2,1.57,0.78,9.97,20,0.064,8.30
2.4491,0.04014,0.05585,0.36477,0.00000,0.00000,0.00000,49,-10,51,6,74,15,47,8,ok,2,0,0.001,2,1.57,0.78,9.97,20,0.076,8.30
2.4523,0.04014,0.05585,0.36477,0.00000,0.00000,0.00000,48,-10,52,5,74,12,48,8,ok,2,0,0.001,2,1.57,0.78,9.97,20,0.089,8.30
2.4649,0.04014,0.05585,0.36477,0.00000,0.00000,0.00000,45,-10,53,5,73,10,49,8,ok,2,0,0.001,2,1.57,0.78,9.97,20,0.102,8.30
2.4851,0.04014,0.05585,0.36477,0.00000,0.00000,0.00000,43,-10,53,6,72,6,49,8,ok,2,0,0.001,2,1.57,0.78,9.97,20,0.114,8.30
2.4900,0.04014,0.05585,0.36477,0.00000,0.00000,0.00000,41,-11,55,7,72,5,50,8,ok,2,0,0.001,2,1.57,0.78,9.97,20,0.127,8.30
2.5027,0.04014,0.05585,0.36477,0.00000,0.00000,0.00000,39,-10,56,7,71,4,51,9,ok,2,0,0.001,2,1.57,0.78,9.97,20,0.139,8.30
2.5251,0.04014,0.05585,0.36477,0.00000,0.00000,0.00000,36,-9,56,7,69,1,52,7,ok,2,0,0.001,2,1.57,0.78,9.97,20,0.152,8.30
2.5284,0.04014,0.05585,0.36477,0.00000,0.00000,0.00000,34,-8,57,8,66,2,52,8,ok,2,0,0.001,2,1.57,0.78,9.97,20,0.165,8.30
2.5412,0.04014,0.05585,0.36477,0.00000,0.00000,0.00000,31,-6,57,8,65,-1,53,8,ok,2,0,0.001,2,1.57,0.78,9.97,20,0.178,8.30
2.5611,0.02618,-0.07330,0.38397,0.00000,0.00000,0.00000,29,-4,58,8,64,-2,54,9,ok,2,0,0.001,2,-0.33,0.32,10.29,21,0.000,8.30
2.5660,0.02618,-0.07330,0.38397,0.00000,0.00000,0.00000,26,-2,59,9,62,-4,55,8,ok,2,0,0.001,3,-0.33,0.32,10.29,21,0.012,8.30
2.5786,0.02618,-0.07330,0.38397,0.00000,0.00000,0.00000,25,-2,60,10,61,-5,55,8,ok,2,0,0.001,3,-0.33,0.32,10.29,21,0.025,8.30
2.6012,0.02618,-0.07330,0.38397,0.00000,0.00000,0.00000,24,-1,61,10,59,-5,57,6,ok,2,0,0.001,3,-0.33,0.32,10.29,21,0.038,8.30
2.6044,0.02618,-0.07330,0.38397,0.00000,0.00000,0.00000,23,2,61,11,56,-6,57,7,ok,2,0,0.001,3,-0.33,0.32,10.29,21,0.051,8.30
2.6172,0.02618,-0.07330,0.38397,0.00000,0.00000,0.00000,22,5,61,11,54,-7,58,8,ok,2,0,0.001,3,-0.33,0.32,10.29,21,0.063,8.30
2.6371,0.02618,-0.07330,0.38397,0.00000,0.00000,0.00000,20,8,61,12,51,-6,59,8,ok,2,0,0.001,3,-0.33,0.32,10.29,21,0.076,8.30
2.6419,0.02618,-0.07330,0.38397,0.00000,0.00000,0.00000,20,11,62,12,48,-6,59,9,ok,2,0,0.001,3,-0.33,0.32,10.29,21,0.088,8.30
2.6545,0.02618,-0.07330,0.38397,0.00000,0.00000,0.00000,21,11,62,12,46,-6,60,10,ok,2,0,0.001,3,-0.33,0.32,10.29,21,0.101,8.30
2.6771,0.02618,-0.07330,0.38397,0.00000,0.00000,0.00000,22,11,62,13,43,-5,60,10,ok,2,0,0.001,3,-0.33,0.32,10.29,21,0.113,8.30
2.6803,0.02618,-0.07330,0.38397,0.00000,0.00000,0.00000,23,10,63,13,40,-5,60,11,ok,4,0,0.001,3,-0.33,0.32,10.29,21,0.127,8.30
2.6929,0.02618,-0.07330,0.38397,0.00000,0.00000,0.00000,24,9,62,14,37,-4,60,12,ok,4,0,0.001,3,-0.33,0.32,10.29,21,0.139,8.30
2.7131,0.02618,-0.07330,0.38397,0.00000,0.00000,0.00000,25,9,63,15,34,-3,61,13,ok,4,0,0.001,3,-0.33,0.32,10.29,21,0.152,8.30
2.7179,0.02618,-0.07330,0.38397,0.00000,0.00000,0.00000,27,8,63,15,31,-2,61,13,ok,4,0,0.001,3,-0.33,0.32,10.29,21,0.164,8.30
2.7305,0.02618,-0.07330,0.38397,0.00000,0.00000,0.00000,28,8,63,17,29,0,62,14,ok,4,0,0.001,3,-0.33,0.32,10.29,21,0.177,8.30
2.7531,0.02618,-0.07330,0.38397,0.00000,0.00000,0.00000,28,6,65,18,27,1,62,15,ok,4,0,0.001,3,-0.33,0.32,10.29,21,0.189,8.30
2.7566,-0.16057,0.01047,0.41713,0.00000,0.00000,0.00000,30,6,65,19,25,5,63,15,ok,4,0,0.001,3,-0.04,-1.55,10.33,22,0.000,8.30
2.7689,-0.16057,0.01047,0.41713,0.00000,0.00000,0.00000,31,5,65,21,23,7,63,17,ok,4,0,0.001,3,-0.04,-1.55,10.33,22,0.013,8.30
2.7891,-0.16057,0.01047,0.41713,0.00000,0.00000,0.00000,32,4,65,22,22,10,63,18,ok,4,0,0.001,3,-0.04,-1.55,10.33,22,0.025,8.30
2.7939,-0.16057,0.01047,0.41713,0.00000,0.00000,0.00000,32,3,64,23,21,13,64,18,ok,4,0,0.001,3,-0.04,-1.55,10.33,22,0.038,8.30
2.8065,-0.16057,0.01047,0.41713,0.00000,0.00000,0.00000,33,3,63,27,23,13,64,19,ok,4,0,0.001,3,-0.04,-1.55,10.33,22,0.050,8.30
2.8291,-0.16057,0.01047,0.41713,0.00000,0.00000,0.00000,33,1,63,28,23,12,64,20,ok,4,0,0.001,3,-0.04,-1.55,10.33,22,0.063,8.30
2.8323,-0.16057,0.01047,0.41713,0.00000,0.00000,0.00000,34,1,64,27,25,11,64,21,ok,4,0,0.001,3,-0.04,-1.55,10.33,22,0.076,8.30
2.8449,-0.16057,0.01047,0.41713,0.00000,0.00000,0.00000,35,0,67,24,26,10,65,22,ok,4,0,0.001,3,-0.04,-1.55,10.33,22,0.089,8.30
2.8651,-0.16057,0.01047,0.41713,0.00000,0.00000,0.00000,36,0,69,20,27,10,65,23,ok,4,0,0.001,3,-0.04,-1.55,10.33,22,0.101,8.30
2.8701,-0.16057,0.01047,0.41713,0.00000,0.00000,0.00000,37,0,70,16,29,10,64,25,ok,4,0,0.001,3,-0.04,-1.55,10.33,22,0.114,8.30
2.8825,-0.16057,0.01047,0.41713,0.00000,0.00000,0.00000,38,0,71,13,30,9,65,26,ok,4,0,0.001,3,-0.04,-1.55,10.33,22,0.126,8.30
2.9051,-0.16057,0.01047,0.41713,0.00000,0.00000,0.00000,40,1,70,12,32,9,65,27,ok,4,0,0.001,3,-0.04,-1.55,10.33,22,0.139,8.30
2.9083,-0.16057,0.01047,0.41713,0.00000,0.00000,0.00000,40,2,70,9,33,9,64,29,ok,4,0,0.001,3,-0.04,-1.55,10.33,22,0.152,8.30
2.9211,-0.16057,0.01047,0.41713,0.00000,0.00000,0.00000,42,3,69,6,35,8,64,30,ok,4,0,0.001,3,-0.04,-1.55,10.33,22,0.165,8.30
2.9411,-0.16057,0.01047,0.41713,0.00000,0.00000,0.00000,43,3,69,3,36,8,64,32,ok,4,0,0.001,3,-0.04,-1.55,10.33,22,0.177,8.30
2.9459,-0.16057,0.01047,0.41713,0.00000,0.00000,0.00000,44,3,67,0,38,8,64,33,ok,4,0,0.001,3,-0.04,-1.55,10.33,22,0.190,8.30
2.9587,-0.09774,0.02269,0.42237,0.00000,0.00000,0.00000,45,2,66,-2,39,7,64,35,ok,4,0,0.001,3,0.69,-1.02,8.72,23,0.000,8.30
2.9811,-0.09774,0.02269,0.42237,0.00000,0.00000,0.00000,46,3,64,-3,39,8,63,36,ok,4,0,0.001,3,0.69,-1.02,8.72,23,0.013,8.30
2.9843,-0.09774,0.02269,0.42237,0.00000,0.00000,0.00000,46,3,62,-5,41,7,64,36,ok,4,0,0.001,3,0.69,-1.02,8.72,23,0.026,8.30
2.9969,-0.09774,0.02269,0.42237,0.00000,0.00000,0.00000,48,4,61,-6,42,7,65,35,ok,4,0,0.001,3,0.69,-1.02,8.72,23,0.039,8.30
3.0171,-0.09774,0.02269,0.42237,0.00000,0.00000,0.00000,48,4,60,-8,43,7,67,33,ok,4,0,0.001,3,0.69,-1.02,8.72,23,0.051,8.30
3.0219,-0.09774,0.02269,0.42237,0.00000,0.00000,0.00000,49,4,58,-8,44,7,69,27,ok,4,0,0.001,3,0.69,-1.02,8.72,23,0.064,8.30
3.0344,-0.09774,0.02269,0.42237,0.00000,0.00000,0.00000,51,4,55,-10,45,7,70,24,ok,4,0,0.001,3,0.69,-1.02,8.72,23,0.076,8.30
3.0571,-0.09774,0.02269,0.42237,0.00000,0.00000,0.00000,51,4,53,-10,46,7,72,21,ok,4,0,0.001,3,0.69,-1.02,8.72,23,0.089,8.30
3.0603,-0.09774,0.02269,0.42237,0.00000,0.00000,0.00000,51,6,51,-11,47,7,72,21,ok,4,0,0.001,3,0.69,-1.02,8.72,23,0.102,8.30
3.0729,-0.09774,0.02269,0.42237,0.00000,0.00000,0.00000,52,6,49,-10,47,7,72,18,ok,4,0,0.001,3,0.69,-1.02,8.72,23,0.115,8.30
3.0931,-0.09774,0.02269,0.42237,0.00000,0.00000,0.00000,52,6,46,-10,49,7,72,15,ok,4,0,0.001,3,0.69,-1.02,8.72,23,0.127,8.30
3.0979,-0.09774,0.02269,0.42237,0.00000,0.00000,0.00000,53,6,44,-10,49,7,72,12,ok,4,0,0.001,3,0.69,-1.02,8.72,23,0.140,8.30
3.1105,-0.09774,0.02269,0.42237,0.00000,0.00000,0.00000,53,7,41,-10,50,7,71,11,ok,2,0,0.001,3,0.69,-1.02,8.72,23,0.152,8.30
3.1331,-0.09774,0.02269,0.42237,0.00000,0.00000,0.00000,55,7,39,-10,51,7,71,7,ok,2,0,0.001,3,0.69,-1.02,8.72,23,0.165,8.30
3.1363,-0.09774,0.02269,0.42237,0.00000,0.00000,0.00000,56,7,36,-9,52,6,70,6,ok,2,0,0.001,3,0.69,-1.02,8.72,23,0.178,8.30
3.1490,-0.09774,0.02269,0.42237,0.00000,0.00000,0.00000,56,7,33,-9,52,7,70,4,ok,2,0,0.001,3,0.69,-1.02,8.72,23,0.191,8.30
3.1691,-0.05934,0.00000,0.42586,0.00000,0.00000,0.00000,56,8,30,-7,53,7,68,2,ok,2,0,0.001,3,-0.18,-0.42,9.10,24,0.000,8.30
3.1741,-0.05934,0.00000,0.42586,0.00000,0.00000,0.00000,56,8,27,-6,54,8,66,2,ok,2,0,0.001,3,-0.18,-0.42,9.10,24,0.012,8.30
3.1865,-0.05934,0.00000,0.42586,0.00000,0.00000,0.00000,57,9,24,-5,55,8,65,0,ok,2,0,0.001,3,-0.18,-0.42,9.10,24,0.025,8.30
3.2092,-0.05934,0.00000,0.42586,0.00000,0.00000,0.00000,58,10,20,-2,56,8,64,-2,ok,2,0,0.001,3,-0.18,-0.42,9.10,24,0.038,8.30
3.2125,-0.05934,0.00000,0.42586,0.00000,0.00000,0.00000,58,10,19,-1,58,6,61,-3,ok,2,0,0.001,3,-0.18,-0.42,9.10,24,0.051,8.30
3.2250,-0.05934,0.00000,0.42586,0.00000,0.00000,0.00000,59,10,18,0,58,7,60,-4,ok,2,0,0.001,3,-0.18,-0.42,9.10,24,0.064,8.30
3.2451,-0.05934,0.00000,0.42586,0.00000,0.00000,0.00000,59,11,16,3,59,8,58,-4,ok,2,0,0.001,3,-0.18,-0.42,9.10,24,0.076,8.30
3.2499,-0.05934,0.00000,0.42586,0.00000,0.00000,0.00000,60,11,15,5,59,8,55,-5,ok,2,0,0.001,3,-0.18,-0.42,9.10,24,0.089,8.30
3.2625,-0.05934,0.00000,0.42586,0.00000,0.00000,0.00000,60,12,13,9,60,9,53,-6,ok,2,0,0.001,3,-0.18,-0.42,9.10,24,0.101,8.30
3.2851,-0.05934,0.00000,0.42586,0.00000,0.00000,0.00000,60,12,13,11,60,9,50,-5,ok,2,0,0.001,3,-0.18,-0.42,9.10,24,0.114,8.30
3.2883,-0.05934,0.00000,0.42586,0.00000,0.00000,0.00000,60,13,14,12,60,9,48,-5,ok,2,0,0.001,3,-0.18,-0.42,9.10,24,0.127,8.30
3.3011,-0.05934,0.00000,0.42586,0.00000,0.00000,0.00000,60,14,15,11,61,10,46,-5,ok,2,0,0.001,3,-0.18,-0.42,9.10,24,0.139,8.30
3.3211,-0.05934,0.00000,0.42586,0.00000,0.00000,0.00000,60,14,17,10,61,10,42,-4,ok,2,0,0.001,3,-0.18,-0.42,9.10,24,0.152,8.30
3.3259,-0.05934,0.00000,0.42586,0.00000,0.00000,0.00000,60,15,19,9,61,12,40,-4,ok,2,0,0.001,3,-0.18,-0.42,9.10,24,0.164,8.30
3.3385,-0.05934,0.00000,0.42586,0.00000,0.00000,0.00000,60,15,19,9,61,12,37,-3,ok,2,0,0.001,3,-0.18,-0.42,9.10,24,0.177,8.30
3.3612,-0.05934,0.00000,0.42586,0.00000,0.00000,0.00000,60,16,21,8,62,13,35,-3,ok,2,0,0.001,3,-0.18,-0.42,9.10,24,0.189,8.30
3.3647,-0.03316,0.11170,0.43633,0.00000,0.00000,0.00000,60,17,22,7,62,14,31,-1,ok,2,0,0.001,3,1.68,-0.77,10.05,25,0.000,8.30
3.3770,-0.03316,0.11170,0.43633,0.00000,0.00000,0.00000,62,19,23,6,63,14,29,0,ok,2,0,0.001,3,1.68,-0.77,10.05,25,0.013,8.30
3.3971,-0.03316,0.11170,0.43633,0.00000,0.00000,0.00000,62,20,24,5,63,15,27,2,ok,2,0,0.001,3,1.68,-0.77,10.05,25,0.025,8.30
3.4020,-0.03316,0.11170,0.43633,0.00000,0.00000,0.00000,62,21,24,5,63,16,25,5,ok,2,0,0.001,3,1.68,-0.77,10.05,25,0.038,8.30
3.4146,-0.03316,0.11170,0.43633,0.00000,0.00000,0.00000,62,22,25,4,63,16,24,7,ok,2,0,0.001,3,1.68,-0.77,10.05,25,0.050,8.30
3.4371,-0.03316,0.11170,0.43633,0.00000,0.00000,0.00000,62,23,25,3,64,17,23,11,ok,2,0,0.001,3,1.68,-0.77,10.05,25,0.063,8.30
3.4403,-0.03316,0.11170,0.43633,0.00000,0.00000,0.00000,61,26,26,3,64,18,22,13,ok,2,0,0.001,3,1.68,-0.77,10.05,25,0.076,8.30
3.4532,-0.03316,0.11170,0.43633,0.00000,0.00000,0.00000,61,26,27,2,64,19,24,12,ok,2,0,0.001,3,1.68,-0.77,10.05,25,0.089,8.30
3.4731,-0.03316,0.11170,0.43633,0.00000,0.00000,0.00000,62,25,28,2,64,21,25,12,ok,2,0,0.001,3,1.68,-0.77,10.05,25,0.101,8.30
3.4779,-0.03316,0.11170,0.43633,0.00000,0.00000,0.00000,64,21,29,2,65,22,25,10,ok,2,0,0.001,3,1.68,-0.77,10.05,25,0.114,8.30
3.4905,-0.03316,0.11170,0.43633,0.00000,0.00000,0.00000,65,18,30,1,64,23,27,10,ok,2,0,0.001,3,1.68,-0.77,10.05,25,0.126,8.30
3.5131,-0.03316,0.11170,0.43633,0.00000,0.00000,0.00000,66,13,32,2,64,25,28,10,ok,2,0,0.001,3,1.68,-0.77,10.05,25,0.139,8.30
3.5164,-0.03316,0.11170,0.43633,0.00000,0.00000,0.00000,66,11,33,2,65,25,29,9,ok,2,0,0.001,3,1.68,-0.77,10.05,25,0.152,8.30
3.5291,-0.03316,0.11170,0.43633,0.00000,0.00000,0.00000,66,10,35,2,64,27,30,9,ok,2,0,0.001,3,1.68,-0.77,10.05,25,0.165,8.30
3.5491,-0.03316,0.11170,0.43633,0.00000,0.00000,0.00000,66,7,36,2,64,29,32,9,ok,2,0,0.001,3,1.68,-0.77,10.05,25,0.177,8.30
3.5540,-0.03316,0.11170,0.43633,0.00000,0.00000,0.00000,65,4,38,3,64,30,33,9,ok,2,0,0.001,3,1.68,-0.77,10.05,25,0.190,8.30
3.5667,-0.01745,0.02618,0.49916,0.00000,0.00000,0.00000,65,2,39,3,65,32,35,9,ok,2,0,0.001,3,-0.12,0.93,11.77,26,0.000,8.30
3.5891,-0.01745,0.02618,0.49916,0.00000,0.00000,0.00000,64,-1,41,2,64,34,36,8,ok,2,0,0.001,4,-0.12,0.93,11.77,26,0.013,8.30
3.5925,-0.01745,0.02618,0.49916,0.00000,0.00000,0.00000,63,-3,42,2,64,35,37,8,ok,2,0,0.001,4,-0.12,0.93,11.77,26,0.026,8.30
3.6054,-0.01745,0.02618,0.49916,0.00000,0.00000,0.00000,62,-4,44,2,65,35,38,8,ok,2,0,0.001,4,-0.12,0.93,11.77,26,0.039,8.30
3.6251,-0.01745,0.02618,0.49916,0.00000,0.00000,0.00000,60,-5,44,2,66,35,39,8,ok,2,0,0.001,4,-0.12,0.93,11.77,26,0.051,8.30
3.6300,-0.01745,0.02618,0.49916,0.00000,0.00000,0.00000,60,-6,45,2,68,33,41,7,ok,2,0,0.001,4,-0.12,0.93,11.77,26,0.064,8.30
3.6425,-0.01745,0.02618,0.49916,0.00000,0.00000,0.00000,59,-8,46,2,70,29,42,7,ok,2,0,0.001,4,-0.12,0.93,11.77,26,0.076,8.30
3.6651,-0.01745,0.02618,0.49916,0.00000,0.00000,0.00000,57,-9,48,4,71,24,43,7,ok,2,0,0.001,4,-0.12,0.93,11.77,26,0.089,8.30
3.6685,-0.01745,0.02618,0.49916,0.00000,0.00000,0.00000,56,-10,49,3,73,21,44,7,ok,2,0,0.001,4,-0.12,0.93,11.77,26,0.102,8.30
3.6809,-0.01745,0.02618,0.49916,0.00000,0.00000,0.00000,54,-10,50,3,74,20,45,7,ok,2,0,0.001,4,-0.12,0.93,11.77,26,0.115,8.30
3.7011,-0.01745,0.02618,0.49916,0.00000,0.00000,0.00000,52,-11,50,5,74,18,46,7,ok,2,0,0.001,4,-0.12,0.93,11.77,26,0.127,8.30
3.7059,-0.01745,0.02618,0.49916,0.00000,0.00000,0.00000,50,-11,51,6,74,15,47,8,ok,2,0,0.001,4,-0.12,0.93,11.77,26,0.140,8.30
3.7187,-0.01745,0.02618,0.49916,0.00000,0.00000,0.00000,48,-11,52,6,73,11,48,8,ok,2,0,0.001,4,-0.12,0.93,11.77,26,0.152,8.30
3.7411,-0.01745,0.02618,0.49916,0.00000,0.00000,0.00000,45,-10,53,6,73,10,49,8,ok,2,0,0.001,4,-0.12,0.93,11.77,26,0.165,8.30
3.7443,-0.01745,0.02618,0.49916,0.00000,0.00000,0.00000,44,-11,53,7,72,6,49,9,ok,2,0,0.001,4,-0.12,0.93,11.77,26,0.178,8.30
3.7571,-0.01745,0.02618,0.49916,0.00000,0.00000,0.00000,41,-11,55,7,72,5,50,8,ok,2,0,0.001,4,-0.12,0.93,11.77,26,0.191,8.30
3.7771,0.03665,-0.02618,0.53407,0.00000,0.00000,0.00000,39,-10,56,7,71,4,51,9,ok,2,0,0.001,4,0.34,0.30,10.30,27,0.000,8.30
3.7819,0.03665,-0.02618,0.53407,0.00000,0.00000,0.00000,36,-9,57,7,69,1,52,8,ok,2,0,0.001,4,0.34,0.30,10.30,27,0.012,8.30
3.7945,0.03665,-0.02618,0.53407,0.00000,0.00000,0.00000,34,-7,57,8,66,2,52,8,ok,2,0,0.001,4,0.34,0.30,10.30,27,0.025,8.30
3.8171,0.03665,-0.02618,0.53407,0.00000,0.00000,0.00000,32,-6,58,7,65,-1,52,8,ok,2,0,0.001,4,0.34,0.30,10.30,27,0.038,8.30
3.8203,0.03665,-0.02618,0.53407,0.00000,0.00000,0.00000,29,-4,58,8,64,-2,54,9,ok,2,0,0.001,4,0.34,0.30,10.30,27,0.051,8.30
3.8329,0.03665,-0.02618,0.53407,0.00000,0.00000,0.00000,26,-1,59,9,62,-4,55,8,ok,2,0,0.001,4,0.34,0.30,10.30,27,0.064,8.30
3.8531,0.03665,-0.02618,0.53407,0.00000,0.00000,0.00000,26,-1,60,10,61,-5,54,8,ok,2,0,0.001,4,0.34,0.30,10.30,27,0.076,8.30
3.8579,0.03665,-0.02618,0.53407,0.00000,0.00000,0.00000,25,0,61,10,58,-6,57,6,ok,2,0,0.001,4,0.34,0.30,10.30,27,0.088,8.30
3.8705,0.03665,-0.02618,0.53407,0.00000,0.00000,0.00000,24,3,61,11,56,-6,57,7,ok,2,0,0.001,4,0.34,0.30,10.30,27,0.101,8.30
3.8931,0.03665,-0.02618,0.53407,0.00000,0.00000,0.00000,22,6,61,10,54,-7,58,8,ok,2,0,0.001,4,0.34,0.30,10.30,27,0.114,8.30
3.8963,0.03665,-0.02618,0.53407,0.00000,0.00000,0.00000,20,9,61,12,51,-6,58,8,ok,2,0,0.001,4,0.34,0.30,10.30,27,0.127,8.30
3.9089,0.03665,-0.02618,0.53407,0.00000,0.00000,0.00000,20,11,62,11,48,-6,59,9,ok,2,0,0.001,4,0.34,0.30,10.30,27,0.140,8.30
3.9291,0.03665,-0.02618,0.53407,0.00000,0.00000,0.00000,21,11,62,13,46,-6,60,10,ok,2,0,0.001,4,0.34,0.30,10.30,27,0.152,8.30
3.9339,0.03665,-0.02618,0.53407,0.00000,0.00000,0.00000,22,11,62,13,43,-5,59,10,ok,2,0,0.001,4,0.34,0.30,10.30,27,0.164,8.30
3.9464,0.03665,-0.02618,0.53407,0.00000,0.00000,0.00000,23,10,62,14,40,-5,60,11,ok,2,0,0.001,4,0.34,0.30,10.30,27,0.177,8.30
3.9691,0.03665,-0.02618,0.53407,0.00000,0.00000,0.00000,24,9,62,14,37,-4,60,12,ok,2,0,0.001,4,0.34,0.30,10.30,27,0.189,8.30
3.9726,-0.11345,0.00698,0.54280,0.00000,0.00000,0.00000,24,8,63,15,35,-3,61,13,ok,2,0,0.001,4,0.36,-1.91,9.69,28,0.000,8.30
3.9849,-0.11345,0.00698,0.54280,0.00000,0.00000,0.00000,27,7,63,16,31,-2,61,13,ok,4,0,0.001,4,0.36,-1.91,9.69,28,0.013,8.30
4.0051,-0.11345,0.00698,0.54280,0.00000,0.00000,0.00000,27,7,63,17,29,-1,62,14,ok,4,0,0.001,4,0.36,-1.91,9.69,28,0.025,8.30
4.0099,-0.11345,0.00698,0.54280,0.00000,0.00000,0.00000,28,5,64,19,27,1,63,15,ok,4,0,0.001,4,0.36,-1.91,9.69,28,0.038,8.30
4.0225,-0.11345,0.00698,0.54280,0.00000,0.00000,0.00000,29,4,64,20,25,4,64,15,ok,4,0,0.001,4,0.36,-1.91,9.69,28,0.050,8.30
4.0451,-0.11345,0.00698,0.54280,0.00000,0.00000,0.00000,30,4,64,21,24,7,63,17,ok,4,0,0.001,4,0.36,-1.91,9.69,28,0.063,8.30
4.0483,-0.11345,0.00698,0.54280,0.00000,0.00000,0.00000,31,3,64,23,23,11,63,18,ok,4,0,0.001,4,0.36,-1.91,9.69,28,0.076,8.30
4.0609,-0.11345,0.00698,0.54280,0.00000,0.00000,0.00000,32,2,64,24,22,14,64,18,ok,4,0,0.001,4,0.36,-1.91,9.69,28,0.089,8.30
4.0811,-0.11345,0.00698,0.54280,0.00000,0.00000,0.00000,32,2,63,27,24,13,64,19,ok,4,0,0.001,4,0.36,-1.91,9.69,28,0.101,8.30
4.0859,-0.11345,0.00698,0.54280,0.00000,0.00000,0.00000,33,1,63,28,24,13,64,20,ok,4,0,0.001,4,0.36,-1.91,9.69,28,0.114,8.30
4.0987,-0.11345,0.00698,0.54280,0.00000,0.00000,0.00000,34,1,65,26,25,11,64,21,ok,4,0,0.001,4,0.36,-1.91,9.69,28,0.126,8.30
4.1211,-0.11345,0.00698,0.54280,0.00000,0.00000,0.00000,35,1,67,23,26,10,65,22,ok,4,0,0.001,4,0.36,-1.91,9.69,28,0.139,8.30
4.1243,-0.11345,0.00698,0.54280,0.00000,0.00000,0.00000,36,1,69,19,28,10,65,23,ok,4,0,0.001,4,0.36,-1.91,9.69,28,0.152,8.30
4.1369,-0.11345,0.00698,0.54280,0.00000,0.00000,0.00000,37,2,70,15,29,10,64,24,ok,4,0,0.001,4,0.36,-1.91,9.69,28,0.165,8.30
4.1571,-0.11345,0.00698,0.54280,0.00000,0.00000,0.00000,38,2,71,12,30,8,64,26,ok,4,0,0.001,4,0.36,-1.91,9.69,28,0.177,8.30
4.1620,-0.11345,0.00698,0.54280,0.00000,0.00000,0.00000,40,2,70,12,33,9,65,27,ok,4,0,0.001,4,0.36,-1.91,9.69,28,0.190,8.30
4.1748,-0.10821,0.03316,0.52185,0.00000,0.00000,0.00000,41,2,70,8,33,9,64,29,ok,4,0,0.001,4,0.22,-1.30,8.59,29,0.000,8.30
4.1971,-0.10821,0.03316,0.52185,0.00000,0.00000,0.00000,42,3,69,6,35,8,64,30,ok,4,0,0.001,4,0.22,-1.30,8.59,29,0.013,8.30
4.2004,-0.10821,0.03316,0.52185,0.00000,0.00000,0.00000,43,3,69,3,36,8,64,31,ok,4,0,0.001,4,0.22,-1.30,8.59,29,0.026,8.30
4.2132,-0.10821,0.03316,0.52185,0.00000,0.00000,0.00000,44,3,67,0,37,8,64,33,ok,4,0,0.001,4,0.22,-1.30,8.59,29,0.039,8.30
4.2331,-0.10821,0.03316,0.52185,0.00000,0.00000,0.00000,45,2,66,-2,39,8,63,35,ok,4,0,0.001,4,0.22,-1.30,8.59,29,0.051,8.30
4.2380,-0.10821,0.03316,0.52185,0.00000,0.00000,0.00000,46,3,64,-3,40,7,63,36,ok,4,0,0.001,4,0.22,-1.30,8.59,29,0.064,8.30
4.2505,-0.10821,0.03316,0.52185,0.00000,0.00000,0.00000,46,3,62,-4,41,6,64,36,ok,4,0,0.001,4,0.22,-1.30,8.59,29,0.076,8.30
4.2731,-0.10821,0.03316,0.52185,0.00000,0.00000,0.00000,48,3,61,-6,42,7,65,35,ok,4,0,0.001,4,0.22,-1.30,8.59,29,0.089,8.30
4.2764,-0.10821,0.03316,0.52185,0.00000,0.00000,0.00000,48,3,60,-8,43,7,67,33,ok,4,0,0.001,4,0.22,-1.30,8.59,29,0.102,8.30
4.2889,-0.10821,0.03316,0.52185,0.00000,0.00000,0.00000,49,3,58,-8,44,7,69,28,ok,4,0,0.001,4,0.22,-1.30,8.59,29,0.114,8.30
4.3091,-0.10821,0.03316,0.52185,0.00000,0.00000,0.00000,50,3,55,-9,45,7,70,24,ok,4,0,0.001,4,0.22,-1.30,8.59,29,0.127,8.30
4.3139,-0.10821,0.03316,0.52185,0.00000,0.00000,0.00000,51,3,53,-9,46,7,72,21,ok,4,0,0.001,4,0.22,-1.30,8.59,29,0.139,8.30
4.3265,-0.10821,0.03316,0.52185,0.00000,0.00000,0.00000,51,5,51,-10,47,7,72,21,ok,4,0,0.001,4,0.22,-1.30,8.59,29,0.152,8.30
4.3491,-0.10821,0.03316,0.52185,0.00000,0.00000,0.00000,52,6,49,-10,48,7,72,18,ok,2,0,0.001,4,0.22,-1.30,8.59,29,0.164,8.30
4.3523,-0.10821,0.03316,0.52185,0.00000,0.00000,0.00000,52,5,46,-10,49,7,72,15,ok,2,0,0.001,4,0.22,-1.30,8.59,29,0.178,8.30
4.3649,-0.10821,0.03316,0.52185,0.00000,0.00000,0.00000,52,6,44,-10,49,7,72,12,ok,2,0,0.001,4,0.22,-1.30,8.59,29,0.190,8.30
4.3851,-0.06632,-0.02443,0.53233,0.00000,0.00000,0.00000,53,7,41,-10,50,7,71,11,ok,2,0,0.001,4,0.12,-0.62,9.92,30,0.000,8.30
4.3900,-0.06632,-0.02443,0.53233,0.00000,0.00000,0.00000,55,7,39,-11,51,7,71,7,ok,2,0,0.001,4,0.12,-0.62,9.92,30,0.013,8.30
4.4027,-0.06632,-0.02443,0.53233,0.00000,0.00000,0.00000,55,7,36,-10,52,7,70,6,ok,2,0,0.001,4,0.12,-0.62,9.92,30,0.025,8.30
4.4251,-0.06632,-0.02443,0.53233,0.00000,0.00000,0.00000,56,7,33,-9,52,7,70,4,ok,2,0,0.001,4,0.12,-0.62,9.92,30,0.038,8.30
4.4283,-0.06632,-0.02443,0.53233,0.00000,0.00000,0.00000,56,8,31,-8,53,8,68,2,ok,2,0,0.001,4,0.12,-0.62,9.92,30,0.051,8.30
4.4411,-0.06632,-0.02443,0.53233,0.00000,0.00000,0.00000,57,8,27,-7,54,8,66,2,ok,2,0,0.001,4,0.12,-0.62,9.92,30,0.063,8.30
4.4611,-0.06632,-0.02443,0.53233,0.00000,0.00000,0.00000,57,9,25,-5,55,8,65,0,ok,2,0,0.001,4,0.12,-0.62,9.92,30,0.076,8.30
4.4659,-0.06632,-0.02443,0.53233,0.00000,0.00000,0.00000,58,10,21,-2,56,8,64,-2,ok,2,0,0.001,4,0.12,-0.62,9.92,30,0.088,8.30
4.4784,-0.06632,-0.02443,0.53233,0.00000,0.00000,0.00000,59,10,19,-1,58,6,62,-3,ok,2,0,0.001,4,0.12,-0.62,9.92,30,0.101,8.30
4.5011,-0.06632,-0.02443,0.53233,0.00000,0.00000,0.00000,59,10,18,0,58,7,60,-4,ok,2,0,0.001,4,0.12,-0.62,9.92,30,0.114,8.30
4.5044,-0.06632,-0.02443,0.53233,0.00000,0.00000,0.00000,60,11,16,3,59,8,58,-4,ok,2,0,0.001,4,0.12,-0.62,9.92,30,0.127,8.30
4.5170,-0.06632,-0.02443,0.53233,0.00000,0.00000,0.00000,60,11,15,6,59,8,55,-5,ok,2,0,0.001,4,0.12,-0.62,9.92,30,0.140,8.30
4.5371,-0.06632,-0.02443,0.53233,0.00000,0.00000,0.00000,60,12,13,9,60,9,53,-6,ok,2,0,0.001,4,0.12,-0.62,9.92,30,0.152,8.30
4.5419,-0.06632,-0.02443,0.53233,0.00000,0.00000,0.00000,60,12,13,12,60,9,50,-5,ok,2,0,0.001,4,0.12,-0.62,9.92,30,0.164,8.30
4.5545,-0.06632,-0.02443,0.53233,0.00000,0.00000,0.00000,60,13,15,12,60,9,47,-5,ok,2,0,0.001,4,0.12,-0.62,9.92,30,0.177,8.30
4.5771,-0.06632,-0.02443,0.53233,0.00000,0.00000,0.00000,60,13,15,11,61,10,45,-5,ok,2,0,0.001,4,0.12,-0.62,9.92,30,0.190,8.30
4.5806,0.02618,0.06632,0.52360,0.00000,0.00000,0.00000,60,14,17,10,61,11,42,-4,ok,2,0,0.001,4,1.06,0.66,9.62,31,0.000,8.30
4.5930,0.02618,0.06632,0.52360,0.00000,0.00000,0.00000,60,15,19,9,61,12,40,-4,ok,2,0,0.001,5,1.06,0.66,9.62,31,0.013,8.30
4.6131,0.02618,0.06632,0.52360,0.00000,0.00000,0.00000,60,16,19,9,61,13,36,-3,ok,2,0,0.001,5,1.06,0.66,9.62,31,0.025,8.30
4.6180,0.02618,0.06632,0.52360,0.00000,0.00000,0.00000,60,17,21,8,62,13,34,-3,ok,2,0,0.001,5,1.06,0.66,9.62,31,0.038,8.30
4.6306,0.02618,0.06632,0.52360,0.00000,0.00000,0.00000,60,18,21,7,62,14,30,-1,ok,2,0,0.001,5,1.06,0.66,9.62,31,0.050,8.30
4.6531,0.02618,0.06632,0.52360,0.00000,0.00000,0.00000,62,19,23,6,63,14,29,0,ok,2,0,0.001,5,1.06,0.66,9.62,31,0.063,8.30
4.6565,0.02618,0.06632,0.52360,0.00000,0.00000,0.00000,62,20,24,5,63,15,27,2,ok,2,0,0.001,5,1.06,0.66,9.62,31,0.076,8.30
4.6692,0.02618,0.06632,0.52360,0.00000,0.00000,0.00000,62,21,24,4,63,16,25,5,ok,2,0,0.001,5,1.06,0.66,9.62,31,0.089,8.30
4.6891,0.02618,0.06632,0.52360,0.00000,0.00000,0.00000,62,22,25,4,63,17,24,7,ok,2,0,0.001,5,1.06,0.66,9.62,31,0.101,8.30
4.6941,0.02618,0.06632,0.52360,0.00000,0.00000,0.00000,62,23,25,3,64,17,23,11,ok,2,0,0.001,5,1.06,0.66,9.62,31,0.114,8.30
4.7065,0.02618,0.06632,0.52360,0.00000,0.00000,0.00000,61,26,27,3,64,19,22,13,ok,2,0,0.001,5,1.06,0.66,9.62,31,0.126,8.30
4.7291,0.02618,0.06632,0.52360,0.00000,0.00000,0.00000,61,26,27,2,64,20,24,12,ok,2,0,0.001,5,1.06,0.66,9.62,31,0.139,8.30
4.7323,0.02618,0.06632,0.52360,0.00000,0.00000,0.00000,62,25,29,2,64,21,25,12,ok,2,0,0.001,5,1.06,0.66,9.62,31,0.152,8.30
4.7449,0.02618,0.06632,0.52360,0.00000,0.00000,0.00000,64,21,30,2,65,22,25,10,ok,2,0,0.001,5,1.06,0.66,9.62,31,0.165,8.30
4.7651,0.02618,0.06632,0.52360,0.00000,0.00000,0.00000,65,18,31,1,64,23,27,9,ok,2,0,0.001,5,1.06,0.66,9.62,31,0.177,8.30
4.7701,0.02618,0.06632,0.52360,0.00000,0.00000,0.00000,66,13,32,2,64,25,28,10,ok,2,0,0.001,5,1.06,0.66,9.62,31,0.190,8.30
4.7828,-0.01571,0.04014,0.61436,0.00000,0.00000,0.00000,67,11,34,2,65,25,29,9,ok,2,0,0.001,5,-0.86,0.12,10.00,32,0.000,8.30
4.8051,-0.01571,0.04014,0.61436,0.00000,0.00000,0.00000,66,10,35,2,64,28,30,9,ok,2,0,0.001,5,-0.86,0.12,10.00,32,0.013,8.30
4.8083,-0.01571,0.04014,0.61436,0.00000,0.00000,0.00000,66,7,37,2,64,29,32,9,ok,2,0,0.001,5,-0.86,0.12,10.00,32,0.026,8.30
4.8209,-0.01571,0.04014,0.61436,0.00000,0.00000,0.00000,66,4,39,3,64,30,33,9,ok,2,0,0.001,5,-0.86,0.12,10.00,32,0.039,8.30
4.8411,-0.01571,0.04014,0.61436,0.00000,0.00000,0.00000,65,2,40,3,64,32,35,8,ok,2,0,0.001,5,-0.86,0.12,10.00,32,0.051,8.30
4.8459,-0.01571,0.04014,0.61436,0.00000,0.00000,0.00000,64,-1,41,3,64,34,36,8,ok,2,0,0.001,5,-0.86,0.12,10.00,32,0.064,8.30
4.8585,-0.01571,0.04014,0.61436,0.00000,0.00000,0.00000,64,-3,43,2,64,35,37,8,ok,2,0,0.001,5,-0.86,0.12,10.00,32,0.076,8.30
4.8811,-0.01571,0.04014,0.61436,0.00000,0.00000,0.00000,62,-4,44,3,64,35,38,8,ok,2,0,0.001,5,-0.86,0.12,10.00,32,0.089,8.30
4.8843,-0.01571,0.04014,0.61436,0.00000,0.00000,0.00000,60,-5,44,3,66,35,39,8,ok,2,0,0.001,5,-0.86,0.12,10.00,32,0.102,8.30
4.8969,-0.01571,0.04014,0.61436,0.00000,0.00000,0.00000,60,-6,45,3,67,33,41,7,ok,2,0,0.001,5,-0.86,0.12,10.00,32,0.115,8.30
4.9171,-0.01571,0.04014,0.61436,0.00000,0.00000,0.00000,59,-9,47,3,70,28,42,7,ok,2,0,0.001,5,-0.86,0.12,10.00,32,0.127,8.30
4.9221,-0.01571,0.04014,0.61436,0.00000,0.00000,0.00000,57,-9,48,4,71,24,43,7,ok,2,0,0.001,5,-0.86,0.12,10.00,32,0.139,8.30
4.9345,-0.01571,0.04014,0.61436,0.00000,0.00000,0.00000,55,-10,49,4,73,21,44,7,ok,2,0,0.001,5,-0.86,0.12,10.00,32,0.152,8.30
4.9571,-0.01571,0.04014,0.61436,0.00000,0.00000,0.00000,53,-10,49,4,74,21,45,7,ok,2,0,0.001,5,-0.86,0.12,10.00,32,0.165,8.30
4.9605,-0.01571,0.04014,0.61436,0.00000,0.00000,0.00000,52,-11,50,6,74,18,46,7,ok,2,0,0.001,5,-0.86,0.12,10.00,32,0.178,8.30
4.9729,-0.01571,0.04014,0.61436,0.00000,0.00000,0.00000,49,-11,51,6,74,15,47,8,ok,2,0,0.001,5,-0.86,0.12,10.00,32,0.191,8.30
4.9931,-0.01571,0.04014,0.61436,0.00000,0.00000,0.00000,48,-11,52,6,73,11,48,8,ok,2,0,0.001,5,-0.86,0.12,10.00,32,0.203,8.30
4.9982,0.08029,0.04189,0.63879,0.00000,0.00000,0.00000,45,-10,53,6,73,10,49,8,ok,2,0,0.001,5,-0.41,0.16,9.88,33,0.000,8.30
5.0105,0.08029,0.04189,0.63879,0.00000,0.00000,0.00000,43,-11,53,7,72,7,49,9,ok,2,0,0.001,5,-0.41,0.16,9.88,33,0.013,8.30
5.0371,0.08029,0.04189,0.63879,0.00000,0.00000,0.00000,40,-11,55,7,72,5,49,8,ok,2,0,0.001,5,-0.41,0.16,9.88,33,0.025,8.30
5.0403,0.08029,0.04189,0.63879,0.00000,0.00000,0.00000,39,-10,56,7,71,4,50,9,ok,2,0,0.001,5,-0.41,0.16,9.88,33,0.042,8.30
5.0529,0.08029,0.04189,0.63879,0.00000,0.00000,0.00000,36,-8,57,7,69,1,51,7,ok,2,0,0.001,5,-0.41,0.16,9.88,33,0.055,8.30
5.0731,0.08029,0.04189,0.63879,0.00000,0.00000,0.00000,34,-7,57,7,66,2,52,8,ok,2,0,0.001,5,-0.41,0.16,9.88,33,0.068,8.30
5.0779,0.08029,0.04189,0.63879,0.00000,0.00000,0.00000,32,-5,58,7,65,-1,52,8,ok,2,0,0.001,5,-0.41,0.16,9.88,33,0.080,8.30
5.0904,0.08029,0.04189,0.63879,0.00000,0.00000,0.00000,29,-3,58,8,64,-2,54,9,ok,2,0,0.001,5,-0.41,0.16,9.88,33,0.093,8.30
5.1131,0.08029,0.04189,0.63879,0.00000,0.00000,0.00000,26,-1,59,8,62,-4,55,8,ok,2,0,0.001,5,-0.41,0.16,9.88,33,0.105,8.30
5.1166,0.08029,0.04189,0.63879,0.00000,0.00000,0.00000,25,-1,60,10,60,-5,55,8,ok,2,0,0.001,5,-0.41,0.16,9.88,33,0.118,8.30
5.1290,0.08029,0.04189,0.63879,0.00000,0.00000,0.00000,24,0,60,10,58,-5,56,6,ok,2,0,0.001,5,-0.41,0.16,9.88,33,0.131,8.30
5.1491,0.08029,0.04189,0.63879,0.00000,0.00000,0.00000,23,2,61,11,56,-6,57,7,ok,2,0,0.001,5,-0.41,0.16,9.88,33,0.144,8.30
5.1539,0.08029,0.04189,0.63879,0.00000,0.00000,0.00000,21,5,61,11,54,-7,58,7,ok,2,0,0.001,5,-0.41,0.16,9.88,33,0.156,8.30
5.1666,0.08029,0.04189,0.63879,0.00000,0.00000,0.00000,20,8,61,12,51,-6,58,8,ok,2,0,0.001,5,-0.41,0.16,9.88,33,0.169,8.30
5.1891,0.08029,0.04189,0.63879,0.00000,0.00000,0.00000,20,10,61,12,48,-6,59,9,ok,2,0,0.001,5,-0.41,0.16,9.88,33,0.181,8.30
5.1926,-0.07156,0.01745,0.66497,0.00000,0.00000,0.00000,21,11,61,13,46,-6,60,9,ok,2,0,0.001,5,0.48,-0.28,8.61,34,0.000,8.30
5.2049,-0.07156,0.01745,0.66497,0.00000,0.00000,0.00000,21,10,61,14,43,-5,60,10,ok,2,0,0.001,5,0.48,-0.28,8.61,34,0.013,8.30
5.2251,-0.07156,0.01745,0.66497,0.00000,0.00000,0.00000,23,9,62,14,40,-5,61,11,ok,2,0,0.001,5,0.48,-0.28,8.61,34,0.025,8.30
5.2299,-0.07156,0.01745,0.66497,0.00000,0.00000,0.00000,24,8,62,15,37,-4,61,12,ok,2,0,0.001,5,0.48,-0.28,8.61,34,0.038,8.30
5.2425,-0.07156,0.01745,0.66497,0.00000,0.00000,0.00000,24,7,62,16,34,-4,62,13,ok,2,0,0.001,5,0.48,-0.28,8.61,34,0.050,8.30
5.2651,-0.07156,0.01745,0.66497,0.00000,0.00000,0.00000,26,6,63,16,31,-2,62,13,ok,2,0,0.001,5,0.48,-0.28,8.61,34,0.063,8.30
5.2683,-0.07156,0.01745,0.66497,0.00000,0.00000,0.00000,26,6,63,18,29,0,63,14,ok,2,0,0.001,5,0.48,-0.28,8.61,34,0.076,8.30
5.2809,-0.07156,0.01745,0.66497,0.00000,0.00000,0.00000,28,4,64,19,28,1,63,15,ok,2,0,0.001,5,0.48,-0.28,8.61,34,0.089,8.30
5.3011,-0.07156,0.01745,0.66497,0.00000,0.00000,0.00000,28,4,64,20,25,5,64,15,ok,2,0,0.001,5,0.48,-0.28,8.61,34,0.101,8.30
5.3061,-0.07156,0.01745,0.66497,0.00000,0.00000,0.00000,29,3,64,21,24,7,63,17,ok,2,0,0.001,5,0.48,-0.28,8.61,34,0.114,8.30
5.3185,-0.07156,0.01745,0.66497,0.00000,0.00000,0.00000,30,3,64,22,23,11,63,18,ok,2,0,0.001,5,0.48,-0.28,8.61,34,0.126,8.30
5.3411,-0.07156,0.01745,0.66497,0.00000,0.00000,0.00000,31,3,64,23,22,14,64,18,ok,2,0,0.001,5,0.48,-0.28,8.61,34,0.139,8.30
5.3443,-0.07156,0.01745,0.66497,0.00000,0.00000,0.00000,32,3,63,26,24,13,64,19,ok,2,0,0.001,5,0.48,-0.28,8.61,34,0.152,8.30
5.3569,-0.07156,0.01745,0.66497,0.00000,0.00000,0.00000,33,3,63,27,24,13,64,20,ok,2,0,0.001,5,0.48,-0.28,8.61,34,0.165,8.30
5.3771,-0.07156,0.01745,0.66497,0.00000,0.00000,0.00000,34,2,64,26,25,11,64,21,ok,2,0,0.001,5,0.48,-0.28,8.61,34,0.177,8.30
5.3819,-0.07156,0.01745,0.66497,0.00000,0.00000,0.00000,35,2,67,22,27,10,65,21,ok,2,0,0.001,5,0.48,-0.28,8.61,34,0.190,8.30
5.3948,-0.13265,0.01571,0.68068,0.00000,0.00000,0.00000,36,1,69,19,28,10,65,23,ok,2,0,0.001,5,-0.73,-0.89,8.64,35,0.000,8.30
5.4171,-0.13265,0.01571,0.68068,0.00000,0.00000,0.00000,37,1,70,15,29,10,65,24,ok,2,0,0.001,5,-0.73,-0.89,8.64,35,0.013,8.30
5.4203,-0.13265,0.01571,0.68068,0.00000,0.00000,0.00000,38,1,71,13,30,8,65,26,ok,2,0,0.001,5,-0.73,-0.89,8.64,35,0.026,8.30
5.4331,-0.13265,0.01571,0.68068,0.00000,0.00000,0.00000,40,1,70,12,32,9,66,27,ok,2,0,0.001,5,-0.73,-0.89,8.64,35,0.039,8.30
5.4531,-0.13265,0.01571,0.68068,0.00000,0.00000,0.00000,40,1,70,9,32,9,65,29,ok,2,0,0.001,5,-0.73,-0.89,8.64,35,0.051,8.30
5.4579,-0.13265,0.01571,0.68068,0.00000,0.00000,0.00000,42,2,69,6,35,8,64,30,ok,2,0,0.001,5,-0.73,-0.89,8.64,35,0.064,8.30
5.4705,-0.13265,0.01571,0.68068,0.00000,0.00000,0.00000,43,2,69,3,36,8,64,32,ok,2,0,0.001,5,-0.73,-0.89,8.64,35,0.076,8.30
5.4931,-0.13265,0.01571,0.68068,0.00000,0.00000,0.00000,44,2,67,1,37,8,64,33,ok,2,0,0.001,5,-0.73,-0.89,8.64,35,0.089,8.30
5.4964,-0.13265,0.01571,0.68068,0.00000,0.00000,0.00000,45,2,66,-1,38,8,64,35,ok,2,0,0.001,5,-0.73,-0.89,8.64,35,0.102,8.30
5.5090,-0.13265,0.01571,0.68068,0.00000,0.00000,0.00000,46,2,64,-3,40,8,63,36,ok,2,0,0.001,5,-0.73,-0.89,8.64,35,0.115,8.30
5.5291,-0.13265,0.01571,0.68068,0.00000,0.00000,0.00000,46,2,62,-4,41,7,64,36,ok,2,0,0.001,5,-0.73,-0.89,8.64,35,0.127,8.30
5.5341,-0.13265,0.01571,0.68068,0.00000,0.00000,0.00000,47,3,61,-5,42,7,66,35,ok,2,0,0.001,5,-0.73,-0.89,8.64,35,0.139,8.30
5.5464,-0.13265,0.01571,0.68068,0.00000,0.00000,0.00000,48,3,60,-8,43,7,67,33,ok,2,0,0.001,5,-0.73,-0.89,8.64,35,0.152,8.30
5.5691,-0.13265,0.01571,0.68068,0.00000,0.00000,0.00000,49,4,58,-8,44,7,69,28,ok,2,0,0.001,5,-0.73,-0.89,8.64,35,0.165,8.30
5.5725,-0.13265,0.01571,0.68068,0.00000,0.00000,0.00000,50,3,55,-9,45,7,71,24,ok,2,0,0.001,5,-0.73,-0.89,8.64,35,0.178,8.30
5.5850,-0.13265,0.01571,0.68068,0.00000,0.00000,0.00000,51,3,53,-9,46,7,72,21,ok,2,0,0.001,5,-0.73,-0.89,8.64,35,0.191,8.30
5.6051,-0.06458,0.02793,0.70162,0.00000,0.00000,0.00000,51,5,51,-10,47,7,72,21,ok,2,0,0.001,5,-0.48,-0.76,9.47,36,0.000,8.30
5.6099,-0.06458,0.02793,0.70162,0.00000,0.00000,0.00000,52,6,49,-10,47,7,72,19,ok,2,0,0.001,6,-0.48,-0.76,9.47,36,0.012,8.30
5.6227,-0.06458,0.02793,0.70162,0.00000,0.00000,0.00000,52,6,46,-10,49,7,72,15,ok,2,0,0.001,6,-0.48,-0.76,9.47,36,0.025,8.30
5.6451,-0.06458,0.02793,0.70162,0.00000,0.00000,0.00000,52,6,44,-10,49,7,72,12,ok,2,0,0.001,6,-0.48,-0.76,9.47,36,0.038,8.30
5.6483,-0.06458,0.02793,0.70162,0.00000,0.00000,0.00000,53,7,41,-10,50,7,71,11,ok,2,0,0.001,6,-0.48,-0.76,9.47,36,0.051,8.30
5.6608,-0.06458,0.02793,0.70162,0.00000,0.00000,0.00000,55,8,39,-11,51,7,70,7,ok,2,0,0.001,6,-0.48,-0.76,9.47,36,0.063,8.30
5.6811,-0.06458,0.02793,0.70162,0.00000,0.00000,0.00000,56,8,37,-10,52,6,70,6,ok,2,0,0.001,6,-0.48,-0.76,9.47,36,0.076,8.30
5.6859,-0.06458,0.02793,0.70162,0.00000,0.00000,0.00000,56,8,33,-9,52,7,70,4,ok,2,0,0.002,6,-0.48,-0.76,9.47,36,0.088,8.30
5.6987,-0.06458,0.02793,0.70162,0.00000,0.00000,0.00000,56,8,30,-8,53,7,68,2,ok,2,0,0.002,6,-0.48,-0.76,9.47,36,0.101,8.30
5.7211,-0.06458,0.02793,0.70162,0.00000,0.00000,0.00000,56,8,27,-6,54,8,66,2,ok,2,0,0.002,6,-0.48,-0.76,9.47,36,0.113,8.30
5.7242,-0.06458,0.02793,0.70162,0.00000,0.00000,0.00000,57,9,24,-5,55,8,65,0,ok,2,0,0.002,6,-0.48,-0.76,9.47,36,0.127,8.30
5.7369,-0.06458,0.02793,0.70162,0.00000,0.00000,0.00000,58,10,20,-2,56,8,64,-2,ok,2,0,0.002,6,-0.48,-0.76,9.47,36,0.140,8.30
5.7571,-0.06458,0.02793,0.70162,0.00000,0.00000,0.00000,58,10,19,-1,58,6,62,-3,ok,2,0,0.002,6,-0.48,-0.76,9.47,36,0.152,8.30
5.7619,-0.06458,0.02793,0.70162,0.00000,0.00000,0.00000,59,9,18,1,58,7,60,-4,ok,2,0,0.002,6,-0.48,-0.76,9.47,36,0.164,8.30
5.7745,-0.06458,0.02793,0.70162,0.00000,0.00000,0.00000,59,10,16,3,59,8,58,-5,ok,2,0,0.002,6,-0.48,-0.76,9.47,36,0.177,8.30
5.7971,-0.06458,0.02793,0.70162,0.00000,0.00000,0.00000,59,10,15,6,59,8,55,-5,ok,2,0,0.002,6,-0.48,-0.76,9.47,36,0.190,8.30
5.8006,0.02793,0.08029,0.69464,0.00000,0.00000,0.00000,59,12,13,9,60,9,54,-6,ok,2,0,0.002,6,1.28,0.87,10.14,37,0.000,8.30
5.8129,0.02793,0.08029,0.69464,0.00000,0.00000,0.00000,60,12,12,11,60,10,50,-5,ok,2,0,0.002,6,1.28,0.87,10.14,37,0.013,8.30
5.8331,0.02793,0.08029,0.69464,0.00000,0.00000,0.00000,60,13,14,12,60,10,47,-5,ok,2,0,0.002,6,1.28,0.87,10.14,37,0.025,8.30
5.8382,0.02793,0.08029,0.69464,0.00000,0.00000,0.00000,59,14,15,11,61,11,45,-5,ok,2,0,0.002,6,1.28,0.87,10.14,37,0.038,8.30
5.8505,0.02793,0.08029,0.69464,0.00000,0.00000,0.00000,60,14,16,10,61,11,42,-4,ok,2,0,0.002,6,1.28,0.87,10.14,37,0.050,8.30
5.8731,0.02793,0.08029,0.69464,0.00000,0.00000,0.00000,60,15,18,9,62,12,40,-4,ok,2,0,0.002,6,1.28,0.87,10.14,37,0.063,8.30
5.8763,0.02793,0.08029,0.69464,0.00000,0.00000,0.00000,60,16,19,8,61,12,37,-3,ok,2,0,0.002,6,1.28,0.87,10.14,37,0.076,8.30
5.8892,0.02793,0.08029,0.69464,0.00000,0.00000,0.00000,60,17,20,7,62,13,35,-3,ok,2,0,0.002,6,1.28,0.87,10.14,37,0.089,8.30
5.9091,0.02793,0.08029,0.69464,0.00000,0.00000,0.00000,60,18,21,7,62,14,31,-1,ok,2,0,0.002,6,1.28,0.87,10.14,37,0.101,8.30
5.9139,0.02793,0.08029,0.69464,0.00000,0.00000,0.00000,61,19,22,6,63,14,30,0,ok,2,0,0.002,6,1.28,0.87,10.14,37,0.114,8.30
5.9265,0.02793,0.08029,0.69464,0.00000,0.00000,0.00000,61,20,23,5,63,15,27,1,ok,2,0,0.002,6,1.28,0.87,10.14,37,0.126,8.30
5.9492,0.02793,0.08029,0.69464,0.00000,0.00000,0.00000,61,21,24,5,63,16,25,5,ok,2,0,0.002,6,1.28,0.87,10.14,37,0.139,8.30
5.9524,0.02793,0.08029,0.69464,0.00000,0.00000,0.00000,61,21,25,4,64,17,24,7,ok,2,0,0.002,6,1.28,0.87,10.14,37,0.152,8.30
5.9650,0.02793,0.08029,0.69464,0.00000,0.00000,0.00000,61,22,25,3,64,18,23,11,ok,2,0,0.002,6,1.28,0.87,10.14,37,0.165,8.30
5.9851,0.02793,0.08029,0.69464,0.00000,0.00000,0.00000,60,25,26,3,64,19,23,13,ok,2,0,0.002,6,1.28,0.87,10.14,37,0.177,8.30
5.9902,0.02793,0.08029,0.69464,0.00000,0.00000,0.00000,60,26,27,2,64,20,25,12,ok,2,0,0.002,6,1.28,0.87,10.14,37,0.190,8.30
6.0028,-0.09948,0.08029,0.70511,0.00000,0.00000,0.00000,62,25,28,2,64,21,25,12,ok,2,0,0.002,6,0.17,-1.56,9.21,38,0.000,8.30
6.0251,-0.09948,0.08029,0.70511,0.00000,0.00000,0.00000,64,21,30,2,65,22,26,10,ok,2,0,0.002,6,0.17,-1.56,9.21,38,0.013,8.30
6.0283,-0.09948,0.08029,0.70511,0.00000,0.00000,0.00000,65,17,31,2,64,23,27,9,ok,2,0,0.002,6,0.17,-1.56,9.21,38,0.026,8.30
6.0411,-0.09948,0.08029,0.70511,0.00000,0.00000,0.00000,66,12,32,2,64,24,29,10,ok,2,0,0.002,6,0.17,-1.56,9.21,38,0.039,8.30
6.0611,-0.09948,0.08029,0.70511,0.00000,0.00000,0.00000,66,10,33,2,65,25,30,9,ok,2,0,0.002,6,0.17,-1.56,9.21,38,0.051,8.30
6.0659,-0.09948,0.08029,0.70511,0.00000,0.00000,0.00000,66,9,35,2,64,27,31,9,ok,2,0,0.002,6,0.17,-1.56,9.21,38,0.063,8.30
6.0785,-0.09948,0.08029,0.70511,0.00000,0.00000,0.00000,66,6,36,2,64,29,33,9,ok,2,0,0.002,6,0.17,-1.56,9.21,38,0.076,8.30
6.1011,-0.09948,0.08029,0.70511,0.00000,0.00000,0.00000,65,3,38,4,64,30,33,9,ok,2,0,0.002,6,0.17,-1.56,9.21,38,0.089,8.30
6.1044,-0.09948,0.08029,0.70511,0.00000,0.00000,0.00000,65,1,39,4,64,32,35,9,ok,2,0,0.002,6,0.17,-1.56,9.21,38,0.102,8.30
6.1171,-0.09948,0.08029,0.70511,0.00000,0.00000,0.00000,64,-2,41,3,64,34,36,9,ok,2,0,0.002,6,0.17,-1.56,9.21,38,0.114,8.30
6.1371,-0.09948,0.08029,0.70511,0.00000,0.00000,0.00000,63,-3,42,3,64,35,37,9,ok,2,0,0.002,6,0.17,-1.56,9.21,38,0.127,8.30
6.1419,-0.09948,0.08029,0.70511,0.00000,0.00000,0.00000,62,-4,43,3,64,35,38,8,ok,2,0,0.002,6,0.17,-1.56,9.21,38,0.139,8.30
6.1545,-0.09948,0.08029,0.70511,0.00000,0.00000,0.00000,60,-5,44,3,66,35,39,8,ok,2,0,0.002,6,0.17,-1.56,9.21,38,0.152,8.30
6.1771,-0.09948,0.08029,0.70511,0.00000,0.00000,0.00000,60,-6,45,3,68,33,41,7,ok,2,0,0.002,6,0.17,-1.56,9.21,38,0.164,8.30
6.1804,-0.09948,0.08029,0.70511,0.00000,0.00000,0.00000,59,-8,46,3,70,28,42,7,ok,2,0,0.002,6,0.17,-1.56,9.21,38,0.178,8.30
6.1930,-0.09948,0.08029,0.70511,0.00000,0.00000,0.00000,57,-9,47,4,71,24,44,7,ok,2,0,0.002,6,0.17,-1.56,9.21,38,0.190,8.30
6.2131,0.05585,0.07505,0.73129,0.00000,0.00000,0.00000,55,-10,49,4,73,21,44,7,ok,2,0,0.002,6,1.28,1.16,9.87,39,0.000,8.30
6.2179,0.05585,0.07505,0.73129,0.00000,0.00000,0.00000,53,-10,49,3,74,21,45,7,ok,2,0,0.002,6,1.28,1.16,9.87,39,0.012,8.30
6.2304,0.05585,0.07505,0.73129,0.00000,0.00000,0.00000,52,-11,49,5,74,19,46,7,ok,2,0,0.002,6,1.28,1.16,9.87,39,0.025,8.30
6.2531,0.05585,0.07505,0.73129,0.00000,0.00000,0.00000,49,-10,51,6,74,15,47,8,ok,2,0,0.002,6,1.28,1.16,9.87,39,0.038,8.30
6.2565,0.05585,0.07505,0.73129,0.00000,0.00000,0.00000,47,-10,52,5,74,12,48,8,ok,2,0,0.002,6,1.28,1.16,9.87,39,0.051,8.30
6.2689,0.05585,0.07505,0.73129,0.00000,0.00000,0.00000,45,-10,53,5,73,10,48,8,ok,2,0,0.002,6,1.28,1.16,9.87,39,0.064,8.30
6.2891,0.05585,0.07505,0.73129,0.00000,0.00000,0.00000,43,-10,53,6,72,7,49,9,ok,2,0,0.002,6,1.28,1.16,9.87,39,0.076,8.30
6.2939,0.05585,0.07505,0.73129,0.00000,0.00000,0.00000,40,-10,55,6,72,5,50,8,ok,2,0,0.002,6,1.28,1.16,9.87,39,0.088,8.30
6.3065,0.05585,0.07505,0.73129,0.00000,0.00000,0.00000,39,-9,55,6,71,4,51,8,ok,2,0,0.002,6,1.28,1.16,9.87,39,0.101,8.30
6.3291,0.05585,0.07505,0.73129,0.00000,0.00000,0.00000,36,-8,56,6,69,1,52,7,ok,2,0,0.002,6,1.28,1.16,9.87,39,0.114,8.30
6.3323,0.05585,0.07505,0.73129,0.00000,0.00000,0.00000,34,-7,57,7,66,2,52,8,ok,2,0,0.002,6,1.28,1.16,9.87,39,0.127,8.30
6.3449,0.05585,0.07505,0.73129,0.00000,0.00000,0.00000,31,-6,57,7,65,-1,53,8,ok,2,0,0.002,6,1.28,1.16,9.87,39,0.140,8.30
6.3651,0.05585,0.07505,0.73129,0.00000,0.00000,0.00000,28,-4,58,8,64,-2,54,8,ok,2,0,0.002,6,1.28,1.16,9.87,39,0.152,8.30
6.3701,0.05585,0.07505,0.73129,0.00000,0.00000,0.00000,26,-2,59,9,62,-4,55,8,ok,2,0,0.002,6,1.28,1.16,9.87,39,0.164,8.30
6.3825,0.05585,0.07505,0.73129,0.00000,0.00000,0.00000,25,-2,59,11,61,-5,55,8,ok,2,0,0.002,6,1.28,1.16,9.87,39,0.177,8.30
6.4051,0.05585,0.07505,0.73129,0.00000,0.00000,0.00000,24,-1,60,10,59,-5,57,6,ok,2,0,0.002,6,1.28,1.16,9.87,39,0.190,8.30
6.4086,0.06981,-0.05236,0.73478,0.00000,0.00000,0.00000,23,1,60,11,56,-6,57,7,ok,2,0,0.002,6,-0.22,0.25,10.53,40,0.000,8.30
6.4211,0.06981,-0.05236,0.73478,0.00000,0.00000,0.00000,21,4,60,11,55,-7,58,8,ok,2,0,0.002,6,-0.22,0.25,10.53,40,0.013,8.30
6.4411,0.06981,-0.05236,0.73478,0.00000,0.00000,0.00000,20,8,60,12,52,-6,59,8,ok,2,0,0.002,6,-0.22,0.25,10.53,40,0.025,8.30
6.4461,0.06981,-0.05236,0.73478,0.00000,0.00000,0.00000,20,10,61,11,49,-5,59,8,ok,2,0,0.002,6,-0.22,0.25,10.53,40,0.038,8.30
6.4585,0.06981,-0.05236,0.73478,0.00000,0.00000,0.00000,20,11,62,12,46,-5,60,9,ok,2,0,0.002,6,-0.22,0.25,10.53,40,0.050,8.30
6.4811,0.06981,-0.05236,0.73478,0.00000,0.00000,0.00000,21,11,62,13,43,-5,60,10,ok,2,0,0.002,6,-0.22,0.25,10.53,40,0.063,8.30
6.4843,0.06981,-0.05236,0.73478,0.00000,0.00000,0.00000,23,10,63,13,40,-4,61,11,ok,2,0,0.002,6,-0.22,0.25,10.53,40,0.076,8.30
6.4970,0.06981,-0.05236,0.73478,0.00000,0.00000,0.00000,24,9,62,14,37,-4,61,11,ok,2,0,0.002,6,-0.22,0.25,10.53,40,0.089,8.30
6.5171,0.06981,-0.05236,0.73478,0.00000,0.00000,0.00000,24,9,63,15,34,-3,61,12,ok,2,0,0.002,6,-0.22,0.25,10.53,40,0.101,8.30
6.5219,0.06981,-0.05236,0.73478,0.00000,0.00000,0.00000,26,8,63,15,31,-2,61,13,ok,2,0,0.002,6,-0.22,0.25,10.53,40,0.114,8.30
6.5345,0.06981,-0.05236,0.73478,0.00000,0.00000,0.00000,27,7,63,16,29,0,62,14,ok,2,0,0.002,6,-0.22,0.25,10.53,40,0.126,8.30
6.5571,0.06981,-0.05236,0.73478,0.00000,0.00000,0.00000,28,6,64,18,28,2,62,14,ok,2,0,0.002,6,-0.22,0.25,10.53,40,0.139,8.30
6.5603,0.06981,-0.05236,0.73478,0.00000,0.00000,0.00000,29,5,64,19,25,5,63,15,ok,2,0,0.002,6,-0.22,0.25,10.53,40,0.152,8.30
6.5731,0.06981,-0.05236,0.73478,0.00000,0.00000,0.00000,30,5,65,20,24,8,63,16,ok,2,0,0.002,6,-0.22,0.25,10.53,40,0.165,8.30
6.5931,0.06981,-0.05236,0.73478,0.00000,0.00000,0.00000,31,4,65,22,23,11,63,17,ok,2,0,0.002,6,-0.22,0.25,10.53,40,0.177,8.30
6.5982,0.06981,-0.05236,0.73478,0.00000,0.00000,0.00000,32,4,65,23,22,14,63,18,ok,2,0,0.002,6,-0.22,0.25,10.53,40,0.190,8.30
6.6108,-0.08901,0.02793,0.76096,0.00000,0.00000,0.00000,32,3,64,26,24,14,64,19,ok,2,0,0.002,6,1.02,-1.30,9.72,41,0.000,8.30
6.6331,-0.08901,0.02793,0.76096,0.00000,0.00000,0.00000,33,2,64,28,23,13,64,19,ok,2,0,0.002,7,1.02,-1.30,9.72,41,0.013,8.30
6.6363,-0.08901,0.02793,0.76096,0.00000,0.00000,0.00000,34,2,65,26,24,11,64,21,ok,2,0,0.002,7,1.02,-1.30,9.72,41,0.026,8.30
6.6490,-0.08901,0.02793,0.76096,0.00000,0.00000,0.00000,35,1,67,23,25,10,65,21,ok,2,0,0.002,7,1.02,-1.30,9.72,41,0.039,8.30
6.6691,-0.08901,0.02793,0.76096,0.00000,0.00000,0.00000,36,0,70,20,27,10,65,22,ok,2,0,0.002,7,1.02,-1.30,9.72,41,0.051,8.30
6.6739,-0.08901,0.02793,0.76096,0.00000,0.00000,0.00000,37,0,71,16,28,10,65,24,ok,2,0,0.002,7,1.02,-1.30,9.72,41,0.063,8.30
6.6865,-0.08901,0.02793,0.76096,0.00000,0.00000,0.00000,38,0,71,14,29,9,65,26,ok,2,0,0.002,7,1.02,-1.30,9.72,41,0.076,8.30
6.7091,-0.08901,0.02793,0.76096,0.00000,0.00000,0.00000,40,0,71,13,32,9,65,27,ok,2,0,0.002,7,1.02,-1.30,9.72,41,0.089,8.30
6.7123,-0.08901,0.02793,0.76096,0.00000,0.00000,0.00000,40,0,70,10,32,9,64,29,ok,2,0,0.002,7,1.02,-1.30,9.72,41,0.102,8.30
6.7251,-0.08901,0.02793,0.76096,0.00000,0.00000,0.00000,42,1,70,7,35,9,64,30,ok,2,0,0.002,7,1.02,-1.30,9.72,41,0.115,8.30
6.7451,-0.08901,0.02793,0.76096,0.00000,0.00000,0.00000,43,1,69,4,36,8,64,32,ok,2,0,0.002,7,1.02,-1.30,9.72,41,0.127,8.30
6.7498,-0.08901,0.02793,0.76096,0.00000,0.00000,0.00000,44,2,67,1,37,9,64,33,ok,2,0,0.002,7,1.02,-1.30,9.72,41,0.139,8.30
6.7626,-0.08901,0.02793,0.76096,0.00000,0.00000,0.00000,45,2,66,-2,38,8,64,34,ok,2,0,0.002,7,1.02,-1.30,9.72,41,0.152,8.30
6.7851,-0.08901,0.02793,0.76096,0.00000,0.00000,0.00000,46,3,64,-3,39,8,63,36,ok,2,0,0.002,7,1.02,-1.30,9.72,41,0.165,8.30
6.7883,-0.08901,0.02793,0.76096,0.00000,0.00000,0.00000,46,3,62,-4,41,7,65,36,ok,2,0,0.002,7,1.02,-1.30,9.72,41,0.178,8.30
6.8009,-0.08901,0.02793,0.76096,0.00000,0.00000,0.00000,47,3,61,-6,42,7,66,35,ok,2,0,0.002,7,1.02,-1.30,9.72,41,0.191,8.30
6.8211,-0.08552,0.06458,0.79238,0.00000,0.00000,0.00000,48,3,60,-8,43,7,68,33,ok,2,0,0.002,7,1.40,-1.19,11.92,42,0.000,8.30
6.8259,-0.08552,0.06458,0.79238,0.00000,0.00000,0.00000,49,4,58,-8,44,7,69,27,ok,2,0,0.002,7,1.40,-1.19,11.92,42,0.013,8.30
6.8385,-0.08552,0.06458,0.79238,0.00000,0.00000,0.00000,50,3,55,-9,45,7,71,24,ok,2,0,0.002,7,1.40,-1.19,11.92,42,0.025,8.30
6.8611,-0.08552,0.06458,0.79238,0.00000,0.00000,0.00000,51,3,53,-9,46,7,72,21,ok,2,0,0.002,7,1.40,-1.19,11.92,42,0.038,8.30
6.8643,-0.08552,0.06458,0.79238,0.00000,0.00000,0.00000,51,5,51,-10,47,7,72,20,ok,2,0,0.002,7,1.40,-1.19,11.92,42,0.051,8.30
6.8769,-0.08552,0.06458,0.79238,0.00000,0.00000,0.00000,52,6,49,-10,48,7,72,18,ok,2,0,0.002,7,1.40,-1.19,11.92,42,0.064,8.30
6.8971,-0.08552,0.06458,0.79238,0.00000,0.00000,0.00000,52,5,46,-10,49,7,73,15,ok,2,0,0.002,7,1.40,-1.19,11.92,42,0.076,8.30
6.9021,-0.08552,0.06458,0.79238,0.00000,0.00000,0.00000,52,6,44,-10,49,7,72,12,ok,2,0,0.002,7,1.40,-1.19,11.92,42,0.088,8.30
6.9144,-0.08552,0.06458,0.79238,0.00000,0.00000,0.00000,53,7,41,-10,50,7,71,11,ok,2,0,0.002,7,1.40,-1.19,11.92,42,0.101,8.30
6.9371,-0.08552,0.06458,0.79238,0.00000,0.00000,0.00000,55,7,39,-10,51,8,71,7,ok,2,0,0.002,7,1.40,-1.19,11.92,42,0.114,8.30
6.9403,-0.08552,0.06458,0.79238,0.00000,0.00000,0.00000,55,7,36,-9,52,7,71,5,ok,2,0,0.002,7,1.40,-1.19,11.92,42,0.127,8.30
6.9529,-0.08552,0.06458,0.79238,0.00000,0.00000,0.00000,56,7,33,-8,52,7,70,4,ok,2,0,0.002,7,1.40,-1.19,11.92,42,0.140,8.30
6.9732,-0.08552,0.06458,0.79238,0.00000,0.00000,0.00000,56,8,30,-7,53,8,68,2,ok,2,0,0.002,7,1.40,-1.19,11.92,42,0.152,8.30
6.9781,-0.08552,0.06458,0.79238,0.00000,0.00000,0.00000,56,8,27,-6,54,8,66,1,ok,2,0,0.002,7,1.40,-1.19,11.92,42,0.164,8.30
6.9905,-0.08552,0.06458,0.79238,0.00000,0.00000,0.00000,57,8,24,-4,55,8,65,-1,ok,2,0,0.002,7,1.40,-1.19,11.92,42,0.177,8.30
7.0131,-0.08552,0.06458,0.79238,0.00000,0.00000,0.00000,58,9,20,-2,56,8,64,-2,ok,2,0,0.002,7,1.40,-1.19,11.92,42,0.190,8.30
7.0166,-0.04014,0.02967,0.79936,0.00000,0.00000,0.00000,58,10,18,-1,58,6,62,-3,ok,2,0,0.002,7,0.54,-0.26,10.60,43,0.000,8.30
7.0291,-0.04014,0.02967,0.79936,0.00000,0.00000,0.00000,59,9,18,0,58,7,60,-5,ok,2,0,0.002,7,0.54,-0.26,10.60,43,0.013,8.30
7.0491,-0.04014,0.02967,0.79936,0.00000,0.00000,0.00000,59,10,16,3,59,8,58,-5,ok,2,0,0.002,7,0.54,-0.26,10.60,43,0.025,8.30
7.0539,-0.04014,0.02967,0.79936,0.00000,0.00000,0.00000,59,11,14,6,59,9,55,-6,ok,2,0,0.002,7,0.54,-0.26,10.60,43,0.038,8.30
7.0665,-0.04014,0.02967,0.79936,0.00000,0.00000,0.00000,59,12,13,9,60,9,54,-6,ok,2,0,0.002,7,0.54,-0.26,10.60,43,0.050,8.30
7.0891,-0.04014,0.02967,0.79936,0.00000,0.00000,0.00000,60,12,12,11,60,10,50,-5,ok,2,0,0.002,7,0.54,-0.26,10.60,43,0.063,8.30
7.0923,-0.04014,0.02967,0.79936,0.00000,0.00000,0.00000,60,13,14,12,60,10,48,-5,ok,2,0,0.002,7,0.54,-0.26,10.60,43,0.076,8.30
7.1049,-0.04014,0.02967,0.79936,0.00000,0.00000,0.00000,59,14,15,11,61,10,46,-5,ok,2,0,0.002,7,0.54,-0.26,10.60,43,0.089,8.30
7.1251,-0.04014,0.02967,0.79936,0.00000,0.00000,0.00000,60,14,17,10,61,11,43,-4,ok,2,0,0.002,7,0.54,-0.26,10.60,43,0.101,8.30
7.1299,-0.04014,0.02967,0.79936,0.00000,0.00000,0.00000,60,15,19,9,61,12,41,-4,ok,2,0,0.002,7,0.54,-0.26,10.60,43,0.114,8.30
7.1427,-0.04014,0.02967,0.79936,0.00000,0.00000,0.00000,60,15,19,8,61,12,37,-3,ok,2,0,0.002,7,0.54,-0.26,10.60,43,0.126,8.30
7.1651,-0.04014,0.02967,0.79936,0.00000,0.00000,0.00000,60,16,21,7,62,13,35,-3,ok,2,0,0.002,7,0.54,-0.26,10.60,43,0.139,8.30
7.1683,-0.04014,0.02967,0.79936,0.00000,0.00000,0.00000,60,17,21,7,62,14,31,-1,ok,2,0,0.002,7,0.54,-0.26,10.60,43,0.152,8.30
7.1811,-0.04014,0.02967,0.79936,0.00000,0.00000,0.00000,61,19,23,6,63,14,30,0,ok,2,0,0.002,7,0.54,-0.26,10.60,43,0.165,8.30
7.2011,-0.04014,0.02967,0.79936,0.00000,0.00000,0.00000,61,20,24,5,63,15,28,2,ok,2,0,0.002,7,0.54,-0.26,10.60,43,0.177,8.30
7.2062,-0.04014,0.02967,0.79936,0.00000,0.00000,0.00000,62,21,24,5,63,16,25,5,ok,2,0,0.002,7,0.54,-0.26,10.60,43,0.190,8.30
7.2187,-0.04712,0.10472,0.84648,0.00000,0.00000,0.00000,62,22,25,4,63,17,24,7,ok,2,0,0.002,7,1.49,-0.99,9.58,44,0.000,8.30
7.2411,-0.04712,0.10472,0.84648,0.00000,0.00000,0.00000,62,23,26,3,64,17,23,11,ok,2,0,0.002,7,1.49,-0.99,9.58,44,0.013,8.30
7.2443,-0.04712,0.10472,0.84648,0.00000,0.00000,0.00000,61,26,27,3,63,18,22,13,ok,2,0,0.002,7,1.49,-0.99,9.58,44,0.026,8.30
7.2570,-0.04712,0.10472,0.84648,0.00000,0.00000,0.00000,61,26,27,2,64,20,24,12,ok,2,0,0.002,7,1.49,-0.99,9.58,44,0.039,8.30
7.2771,-0.04712,0.10472,0.84648,0.00000,0.00000,0.00000,62,25,28,2,64,21,25,12,ok,2,0,0.002,7,1.49,-0.99,9.58,44,0.051,8.30
7.2820,-0.04712,0.10472,0.84648,0.00000,0.00000,0.00000,64,21,29,2,65,22,25,10,ok,2,0,0.002,7,1.49,-0.99,9.58,44,0.064,8.30
7.2947,-0.04712,0.10472,0.84648,0.00000,0.00000,0.00000,65,18,30,1,64,23,27,9,ok,2,0,0.002,7,1.49,-0.99,9.58,44,0.076,8.30
7.3171,-0.04712,0.10472,0.84648,0.00000,0.00000,0.00000,66,13,32,2,64,25,28,10,ok,2,0,0.002,7,1.49,-0.99,9.58,44,0.089,8.30
7.3204,-0.04712,0.10472,0.84648,0.00000,0.00000,0.00000,66,11,33,2,65,25,29,9,ok,2,0,0.002,7,1.49,-0.99,9.58,44,0.102,8.30
7.3330,-0.04712,0.10472,0.84648,0.00000,0.00000,0.00000,66,10,35,2,64,28,30,9,ok,2,0,0.002,7,1.49,-0.99,9.58,44,0.115,8.30
7.3531,-0.04712,0.10472,0.84648,0.00000,0.00000,0.00000,66,7,36,2,64,29,32,9,ok,2,0,0.002,7,1.49,-0.99,9.58,44,0.127,8.30
7.3579,-0.04712,0.10472,0.84648,0.00000,0.00000,0.00000,65,4,38,3,64,30,33,9,ok,2,0,0.002,7,1.49,-0.99,9.58,44,0.140,8.30
7.3705,-0.04712,0.10472,0.84648,0.00000,0.00000,0.00000,64,2,39,3,64,32,35,9,ok,2,0,0.002,7,1.49,-0.99,9.58,44,0.152,8.30
7.3971,-0.04712,0.10472,0.84648,0.00000,0.00000,0.00000,64,-1,41,3,64,34,36,8,ok,2,0,0.002,7,1.49,-0.99,9.58,44,0.165,8.30
7.4005,-0.04712,0.10472,0.84648,0.00000,0.00000,0.00000,63,-3,42,2,64,35,37,8,ok,2,0,0.002,7,1.49,-0.99,9.58,44,0.182,8.30
7.4133,-0.04712,0.10472,0.84648,0.00000,0.00000,0.00000,62,-4,43,3,65,35,38,8,ok,2,0,0.002,7,1.49,-0.99,9.58,44,0.195,8.30
7.4331,0.00349,0.01222,0.84648,0.00000,0.00000,0.00000,60,-5,44,3,66,35,39,8,ok,2,0,0.002,7,0.94,-0.09,10.07,45,0.000,8.30
7.4381,0.00349,0.01222,0.84648,0.00000,0.00000,0.00000,60,-7,45,2,68,33,41,7,ok,2,0,0.002,7,0.94,-0.09,10.07,45,0.012,8.30
7.4505,0.00349,0.01222,0.84648,0.00000,0.00000,0.00000,59,-9,46,2,70,29,42,7,ok,2,0,0.002,7,0.94,-0.09,10.07,45,0.025,8.30
7.4731,0.00349,0.01222,0.84648,0.00000,0.00000,0.00000,56,-9,48,4,72,24,44,7,ok,2,0,0.002,7,0.94,-0.09,10.07,45,0.037,8.30
7.4763,0.00349,0.01222,0.84648,0.00000,0.00000,0.00000,55,-10,49,3,73,22,44,7,ok,2,0,0.002,7,0.94,-0.09,10.07,45,0.051,8.30
7.4889,0.00349,0.01222,0.84648,0.00000,0.00000,0.00000,53,-10,49,3,74,21,45,7,ok,2,0,0.002,7,0.94,-0.09,10.07,45,0.063,8.30
7.5091,0.00349,0.01222,0.84648,0.00000,0.00000,0.00000,52,-11,50,5,74,19,46,7,ok,2,0,0.002,7,0.94,-0.09,10.07,45,0.076,8.30
7.5139,0.00349,0.01222,0.84648,0.00000,0.00000,0.00000,50,-10,51,6,74,15,47,8,ok,2,0,0.002,7,0.94,-0.09,10.07,45,0.088,8.30
7.5265,0.00349,0.01222,0.84648,0.00000,0.00000,0.00000,48,-11,52,5,73,12,48,7,ok,2,0,0.002,7,0.94,-0.09,10.07,45,0.101,8.30
7.5491,0.00349,0.01222,0.84648,0.00000,0.00000,0.00000,45,-10,53,6,73,10,49,8,ok,2,0,0.002,7,0.94,-0.09,10.07,45,0.113,8.30
7.5524,0.00349,0.01222,0.84648,0.00000,0.00000,0.00000,44,-10,53,7,72,7,49,8,ok,2,0,0.002,7,0.94,-0.09,10.07,45,0.127,8.30
7.5651,0.00349,0.01222,0.84648,0.00000,0.00000,0.00000,41,-11,56,7,72,5,50,8,ok,2,0,0.002,7,0.94,-0.09,10.07,45,0.139,8.30
7.5851,0.00349,0.01222,0.84648,0.00000,0.00000,0.00000,39,-10,56,7,70,4,51,9,ok,2,0,0.002,7,0.94,-0.09,10.07,45,0.152,8.30
7.5899,0.00349,0.01222,0.84648,0.00000,0.00000,0.00000,36,-9,57,7,69,1,52,7,ok,2,0,0.002,7,0.94,-0.09,10.07,45,0.164,8.30
7.6027,0.00349,0.01222,0.84648,0.00000,0.00000,0.00000,34,-7,57,8,66,2,52,8,ok,2,0,0.002,7,0.94,-0.09,10.07,45,0.177,8.30
7.6251,0.00349,0.01222,0.84648,0.00000,0.00000,0.00000,32,-6,58,8,65,-1,53,8,ok,2,0,0.002,7,0.94,-0.09,10.07,45,0.189,8.30
7.6286,0.13614,-0.01571,0.82205,0.00000,0.00000,0.00000,29,-4,58,8,63,-2,54,9,ok,2,0,0.002,7,0.91,0.74,10.33,46,0.000,8.30
7.6409,0.13614,-0.01571,0.82205,0.00000,0.00000,0.00000,26,-2,59,9,62,-3,54,8,ok,2,0,0.002,8,0.91,0.74,10.33,46,0.013,8.30
7.6614,0.13614,-0.01571,0.82205,0.00000,0.00000,0.00000,25,-1,60,10,61,-4,54,8,ok,2,0,0.002,8,0.91,0.74,10.33,46,0.025,8.30
7.6662,0.13614,-0.01571,0.82205,0.00000,0.00000,0.00000,24,0,61,10,59,-5,56,6,ok,2,0,0.002,8,0.91,0.74,10.33,46,0.038,8.30
7.6785,0.13614,-0.01571,0.82205,0.00000,0.00000,0.00000,23,3,61,10,56,-6,56,7,ok,2,0,0.002,8,0.91,0.74,10.33,46,0.050,8.30
7.7011,0.13614,-0.01571,0.82205,0.00000,0.00000,0.00000,22,6,61,10,54,-6,57,7,ok,2,0,0.002,8,0.91,0.74,10.33,46,0.063,8.30
7.7043,0.13614,-0.01571,0.82205,0.00000,0.00000,0.00000,20,9,61,11,51,-6,58,8,ok,2,0,0.002,8,0.91,0.74,10.33,46,0.076,8.30
7.7169,0.13614,-0.01571,0.82205,0.00000,0.00000,0.00000,20,12,62,11,48,-5,58,8,ok,2,0,0.002,8,0.91,0.74,10.33,46,0.089,8.30
7.7371,0.13614,-0.01571,0.82205,0.00000,0.00000,0.00000,21,12,62,12,46,-6,59,9,ok,2,0,0.002,8,0.91,0.74,10.33,46,0.101,8.30
7.7419,0.13614,-0.01571,0.82205,0.00000,0.00000,0.00000,22,12,62,13,42,-5,59,9,ok,2,0,0.002,8,0.91,0.74,10.33,46,0.114,8.30
7.7545,0.13614,-0.01571,0.82205,0.00000,0.00000,0.00000,23,10,62,13,40,-4,60,10,ok,2,0,0.002,8,0.91,0.74,10.33,46,0.126,8.30
7.7771,0.13614,-0.01571,0.82205,0.00000,0.00000,0.00000,24,9,62,14,37,-3,60,11,ok,2,0,0.002,8,0.91,0.74,10.33,46,0.139,8.30
7.7803,0.13614,-0.01571,0.82205,0.00000,0.00000,0.00000,24,8,63,15,34,-3,61,12,ok,2,0,0.002,8,0.91,0.74,10.33,46,0.152,8.30
7.7931,0.13614,-0.01571,0.82205,0.00000,0.00000,0.00000,26,7,63,16,31,-1,61,13,ok,2,0,0.002,8,0.91,0.74,10.33,46,0.165,8.30
7.8131,0.13614,-0.01571,0.82205,0.00000,0.00000,0.00000,27,7,63,17,29,0,62,13,ok,2,0,0.002,8,0.91,0.74,10.33,46,0.177,8.30
7.8179,0.13614,-0.01571,0.82205,0.00000,0.00000,0.00000,28,6,64,18,27,2,62,14,ok,2,0,0.002,8,0.91,0.74,10.33,46,0.190,8.30
7.8307,0.05760,0.13439,0.77493,0.00000,0.00000,0.00000,29,5,64,19,25,5,63,15,ok,2,0,0.002,8,0.84,1.31,7.28,47,0.000,8.30
7.8531,0.05760,0.13439,0.77493,0.00000,0.00000,0.00000,30,5,64,21,23,8,63,16,ok,2,0,0.002,8,0.84,1.31,7.28,47,0.013,8.30
7.8563,0.05760,0.13439,0.77493,0.00000,0.00000,0.00000,31,4,64,22,22,11,63,17,ok,2,0,0.002,8,0.84,1.31,7.28,47,0.026,8.30
7.8689,0.05760,0.13439,0.77493,0.00000,0.00000,0.00000,32,3,64,23,21,14,64,17,ok,2,0,0.002,8,0.84,1.31,7.28,47,0.039,8.30
7.8891,0.05760,0.13439,0.77493,0.00000,0.00000,0.00000,32,3,63,26,23,13,64,18,ok,2,0,0.002,8,0.84,1.31,7.28,47,0.051,8.30
7.8939,0.05760,0.13439,0.77493,0.00000,0.00000,0.00000,32,2,63,28,24,13,64,19,ok,2,0,0.002,8,0.84,1.31,7.28,47,0.064,8.30
7.9064,0.05760,0.13439,0.77493,0.00000,0.00000,0.00000,33,1,64,26,25,11,64,20,ok,2,0,0.002,8,0.84,1.31,7.28,47,0.076,8.30
7.9291,0.05760,0.13439,0.77493,0.00000,0.00000,0.00000,34,0,66,23,26,11,65,21,ok,2,0,0.002,8,0.84,1.31,7.28,47,0.089,8.30
7.9325,0.05760,0.13439,0.77493,0.00000,0.00000,0.00000,35,0,68,20,28,11,65,22,ok,2,0,0.002,8,0.84,1.31,7.28,47,0.102,8.30
7.9449,0.05760,0.13439,0.77493,0.00000,0.00000,0.00000,36,0,70,15,29,10,64,23,ok,2,0,0.002,8,0.84,1.31,7.28,47,0.115,8.30
7.9651,0.05760,0.13439,0.77493,0.00000,0.00000,0.00000,37,0,70,13,30,9,65,25,ok,2,0,0.002,8,0.84,1.31,7.28,47,0.127,8.30
7.9699,0.05760,0.13439,0.77493,0.00000,0.00000,0.00000,39,0,70,12,33,9,66,26,ok,2,0,0.002,8,0.84,1.31,7.28,47,0.140,8.30
7.9826,0.05760,0.13439,0.77493,0.00000,0.00000,0.00000,40,1,70,9,33,9,65,28,ok,2,0,0.002,8,0.84,1.31,7.28,47,0.152,8.30
8.0051,0.05760,0.13439,0.77493,0.00000,0.00000,0.00000,41,2,69,6,35,9,64,29,ok,2,0,0.002,8,0.84,1.31,7.28,47,0.165,8.30
8.0084,0.05760,0.13439,0.77493,0.00000,0.00000,0.00000,42,2,68,3,37,9,65,30,ok,2,0,0.002,8,0.84,1.31,7.28,47,0.178,8.30
8.0209,0.05760,0.13439,0.77493,0.00000,0.00000,0.00000,43,2,67,0,38,9,64,32,ok,2,0,0.002,8,0.84,1.31,7.28,47,0.191,8.30
8.0411,-0.14312,0.01920,0.85696,0.00000,0.00000,0.00000,44,1,66,-2,39,8,64,34,ok,2,0,0.002,8,-0.46,-1.92,6.76,48,0.000,8.30
8.0459,-0.14312,0.01920,0.85696,0.00000,0.00000,0.00000,45,1,64,-3,40,8,64,35,ok,2,0,0.002,8,-0.46,-1.92,6.76,48,0.013,8.30
8.0585,-0.14312,0.01920,0.85696,0.00000,0.00000,0.00000,45,1,62,-4,41,7,66,35,ok,2,0,0.002,8,-0.46,-1.92,6.76,48,0.025,8.30
8.0811,-0.14312,0.01920,0.85696,0.00000,0.00000,0.00000,47,1,61,-5,42,7,67,34,ok,2,0,0.002,8,-0.46,-1.92,6.76,48,0.038,8.30
8.0845,-0.14312,0.01920,0.85696,0.00000,0.00000,0.00000,48,1,60,-7,43,7,69,32,ok,2,0,0.002,8,-0.46,-1.92,6.76,48,0.051,8.30
8.0969,-0.14312,0.01920,0.85696,0.00000,0.00000,0.00000,48,2,57,-7,44,7,71,27,ok,2,0,0.002,8,-0.46,-1.92,6.76,48,0.063,8.30
8.1171,-0.14312,0.01920,0.85696,0.00000,0.00000,0.00000,50,1,55,-8,44,7,72,23,ok,2,0,0.002,8,-0.46,-1.92,6.76,48,0.076,8.30
8.1221,-0.14312,0.01920,0.85696,0.00000,0.00000,0.00000,50,1,53,-8,46,7,73,20,ok,2,0,0.002,8,-0.46,-1.92,6.76,48,0.088,8.30
8.1345,-0.14312,0.01920,0.85696,0.00000,0.00000,0.00000,50,3,51,-9,47,7,73,20,ok,2,0,0.002,8,-0.46,-1.92,6.76,48,0.101,8.30
8.1571,-0.14312,0.01920,0.85696,0.00000,0.00000,0.00000,52,4,49,-10,48,7,73,18,ok,2,0,0.002,8,-0.46,-1.92,6.76,48,0.113,8.30
8.1603,-0.14312,0.01920,0.85696,0.00000,0.00000,0.00000,52,4,46,-10,49,7,73,15,ok,2,0,0.002,8,-0.46,-1.92,6.76,48,0.127,8.30
8.1731,-0.14312,0.01920,0.85696,0.00000,0.00000,0.00000,52,6,44,-9,49,8,72,12,ok,2,0,0.002,8,-0.46,-1.92,6.76,48,0.139,8.30
8.1931,-0.14312,0.01920,0.85696,0.00000,0.00000,0.00000,53,7,41,-10,50,7,72,11,ok,2,0,0.002,8,-0.46,-1.92,6.76,48,0.152,8.30
8.1979,-0.14312,0.01920,0.85696,0.00000,0.00000,0.00000,55,7,39,-10,50,7,71,7,ok,2,0,0.002,8,-0.46,-1.92,6.76,48,0.164,8.30
8.2105,-0.14312,0.01920,0.85696,0.00000,0.00000,0.00000,56,7,37,-9,51,7,71,6,ok,2,0,0.002,8,-0.46,-1.92,6.76,48,0.177,8.30
8.2371,-0.14312,0.01920,0.85696,0.00000,0.00000,0.00000,56,8,33,-9,52,7,70,4,ok,2,0,0.002,8,-0.46,-1.92,6.76,48,0.189,8.30
8.2406,-0.07330,0.02269,0.87266,0.00000,0.00000,0.00000,56,8,30,-7,52,8,68,2,ok,2,0,0.002,8,0.25,-0.30,9.34,49,0.000,8.30
8.2532,-0.07330,0.02269,0.87266,0.00000,0.00000,0.00000,56,8,27,-6,54,8,66,2,ok,2,0,0.002,8,0.25,-0.30,9.34,49,0.013,8.30
8.2731,-0.07330,0.02269,0.87266,0.00000,0.00000,0.00000,57,9,24,-5,55,8,65,0,ok,2,0,0.002,8,0.25,-0.30,9.34,49,0.025,8.30
8.2779,-0.07330,0.02269,0.87266,0.00000,0.00000,0.00000,58,10,20,-2,56,8,64,-2,ok,2,0,0.002,8,0.25,-0.30,9.34,49,0.038,8.30
8.2906,-0.07330,0.02269,0.87266,0.00000,0.00000,0.00000,58,10,19,-1,58,6,62,-3,ok,2,0,0.002,8,0.25,-0.30,9.34,49,0.050,8.30
8.3131,-0.07330,0.02269,0.87266,0.00000,0.00000,0.00000,59,10,18,0,58,7,60,-4,ok,2,0,0.002,8,0.25,-0.30,9.34,49,0.063,8.30
8.3163,-0.07330,0.02269,0.87266,0.00000,0.00000,0.00000,59,11,16,2,59,8,58,-5,ok,2,0,0.002,8,0.25,-0.30,9.34,49,0.076,8.30
8.3289,-0.07330,0.02269,0.87266,0.00000,0.00000,0.00000,59,11,15,5,59,8,55,-6,ok,2,0,0.002,8,0.25,-0.30,9.34,49,0.089,8.30
8.3491,-0.07330,0.02269,0.87266,0.00000,0.00000,0.00000,59,12,13,9,60,9,54,-6,ok,2,0,0.002,8,0.25,-0.30,9.34,49,0.101,8.30
8.3539,-0.07330,0.02269,0.87266,0.00000,0.00000,0.00000,60,12,12,11,60,9,50,-5,ok,2,0,0.002,8,0.25,-0.30,9.34,49,0.114,8.30
8.3665,-0.07330,0.02269,0.87266,0.00000,0.00000,0.00000,60,13,14,12,60,10,48,-5,ok,2,0,0.002,8,0.25,-0.30,9.34,49,0.126,8.30
8.3891,-0.07330,0.02269,0.87266,0.00000,0.00000,0.00000,60,14,15,11,61,11,46,-5,ok,2,0,0.002,8,0.25,-0.30,9.34,49,0.139,8.30
8.3923,-0.07330,0.02269,0.87266,0.00000,0.00000,0.00000,60,14,17,10,61,11,42,-4,ok,2,0,0.002,8,0.25,-0.30,9.34,49,0.152,8.30
8.4049,-0.07330,0.02269,0.87266,0.00000,0.00000,0.00000,60,15,19,9,61,12,41,-4,ok,2,0,0.002,8,0.25,-0.30,9.34,49,0.165,8.30
8.4251,-0.07330,0.02269,0.87266,0.00000,0.00000,0.00000,60,15,19,9,61,12,37,-3,ok,2,0,0.002,8,0.25,-0.30,9.34,49,0.177,8.30
8.4299,-0.07330,0.02269,0.87266,0.00000,0.00000,0.00000,60,16,21,8,62,13,35,-3,ok,2,0,0.002,8,0.25,-0.30,9.34,49,0.190,8.30
8.4426,-0.07330,0.02269,0.87266,0.00000,0.00000,0.00000,60,17,21,7,62,14,31,-1,ok,2,0,0.002,8,0.25,-0.30,9.34,49,0.202,8.30
8.4651,-0.06807,0.13963,0.90757,0.00000,0.00000,0.00000,62,19,23,6,63,14,30,0,ok,2,0,0.002,8,0.71,-1.40,8.91,50,0.000,8.30
8.4683,-0.06807,0.13963,0.90757,0.00000,0.00000,0.00000,61,20,24,6,62,15,27,1,ok,2,0,0.002,8,0.71,-1.40,8.91,50,0.013,8.30
8.4809,-0.06807,0.13963,0.90757,0.00000,0.00000,0.00000,62,21,24,5,62,16,25,5,ok,2,0,0.002,8,0.71,-1.40,8.91,50,0.026,8.30
8.5011,-0.06807,0.13963,0.90757,0.00000,0.00000,0.00000,62,22,25,5,63,16,24,7,ok,2,0,0.002,8,0.71,-1.40,8.91,50,0.039,8.30
8.5059,-0.06807,0.13963,0.90757,0.00000,0.00000,0.00000,62,23,25,4,64,17,23,11,ok,2,0,0.002,8,0.71,-1.40,8.91,50,0.051,8.30
8.5185,-0.06807,0.13963,0.90757,0.00000,0.00000,0.00000,60,26,26,3,64,18,22,13,ok,2,0,0.002,8,0.71,-1.40,8.91,50,0.064,8.30
8.5411,-0.06807,0.13963,0.90757,0.00000,0.00000,0.00000,60,26,27,2,64,19,25,12,ok,2,0,0.002,8,0.71,-1.40,8.91,50,0.076,8.30
8.5445,-0.06807,0.13963,0.90757,0.00000,0.00000,0.00000,61,25,28,2,64,21,25,12,ok,2,0,0.002,8,0.71,-1.40,8.91,50,0.089,8.30
8.5569,-0.06807,0.13963,0.90757,0.00000,0.00000,0.00000,64,21,29,2,65,22,26,10,ok,2,0,0.002,8,0.71,-1.40,8.91,50,0.102,8.30
8.5771,-0.06807,0.13963,0.90757,0.00000,0.00000,0.00000,65,17,30,2,64,23,27,10,ok,2,0,0.002,8,0.71,-1.40,8.91,50,0.115,8.30
8.5819,-0.06807,0.13963,0.90757,0.00000,0.00000,0.00000,66,13,32,2,64,25,28,10,ok,2,0,0.002,8,0.71,-1.40,8.91,50,0.127,8.30
8.5945,-0.06807,0.13963,0.90757,0.00000,0.00000,0.00000,66,11,33,2,65,25,29,9,ok,2,0,0.002,8,0.71,-1.40,8.91,50,0.140,8.30
8.6171,-0.06807,0.13963,0.90757,0.00000,0.00000,0.00000,65,10,35,2,64,28,31,9,ok,2,0,0.002,8,0.71,-1.40,8.91,50,0.152,8.30
8.6205,-0.06807,0.13963,0.90757,0.00000,0.00000,0.00000,65,7,36,2,64,29,33,9,ok,2,0,0.002,8,0.71,-1.40,8.91,50,0.165,8.30
8.6329,-0.06807,0.13963,0.90757,0.00000,0.00000,0.00000,65,4,38,3,64,30,33,9,ok,2,0,0.002,8,0.71,-1.40,8.91,50,0.178,8.30
8.6571,0.02094,0.01396,0.96866,0.00000,0.00000,0.00000,64,1,39,3,65,32,35,8,ok,2,0,0.002,8,0.77,1.80,10.80,51,0.000,8.30
8.6603,0.02094,0.01396,0.96866,0.00000,0.00000,0.00000,64,-1,41,2,65,34,36,8,ok,2,0,0.002,9,0.77,1.80,10.80,51,0.015,8.30
8.6732,0.02094,0.01396,0.96866,0.00000,0.00000,0.00000,63,-3,42,2,65,35,37,8,ok,2,0,0.002,9,0.77,1.80,10.80,51,0.028,8.30
8.6931,0.02094,0.01396,0.96866,0.00000,0.00000,0.00000,61,-4,43,2,65,36,38,8,ok,2,0,0.002,9,0.77,1.80,10.80,51,0.040,8.30
8.6980,0.02094,0.01396,0.96866,0.00000,0.00000,0.00000,60,-5,44,2,66,36,39,8,ok,2,0,0.002,9,0.77,1.80,10.80,51,0.052,8.30
8.7105,0.02094,0.01396,0.96866,0.00000,0.00000,0.00000,60,-6,45,2,68,33,41,7,ok,2,0,0.002,9,0.77,1.80,10.80,51,0.065,8.30
8.7331,0.02094,0.01396,0.96866,0.00000,0.00000,0.00000,59,-8,46,2,70,29,42,7,ok,2,0,0.002,9,0.77,1.80,10.80,51,0.078,8.30
8.7363,0.02094,0.01396,0.96866,0.00000,0.00000,0.00000,57,-8,48,3,71,24,43,7,ok,2,0,0.002,9,0.77,1.80,10.80,51,0.091,8.30
8.7491,0.02094,0.01396,0.96866,0.00000,0.00000,0.00000,55,-9,49,3,73,21,44,6,ok,2,0,0.002,9,0.77,1.80,10.80,51,0.103,8.30
8.7691,0.02094,0.01396,0.96866,0.00000,0.00000,0.00000,53,-9,50,3,74,21,45,7,ok,2,0,0.002,9,0.77,1.80,10.80,51,0.116,8.30
8.7739,0.02094,0.01396,0.96866,0.00000,0.00000,0.00000,52,-11,50,5,74,18,46,7,ok,2,0,0.002,9,0.77,1.80,10.80,51,0.128,8.30
8.7866,0.02094,0.01396,0.96866,0.00000,0.00000,0.00000,49,-11,51,6,74,15,47,8,ok,2,0,0.002,9,0.77,1.80,10.80,51,0.141,8.30
8.8091,0.02094,0.01396,0.96866,0.00000,0.00000,0.00000,48,-11,52,6,73,12,48,8,ok,2,0,0.002,9,0.77,1.80,10.80,51,0.154,8.30
8.8122,0.02094,0.01396,0.96866,0.00000,0.00000,0.00000,45,-10,53,6,73,10,49,8,ok,2,0,0.002,9,0.77,1.80,10.80,51,0.167,8.30
8.8249,0.02094,0.01396,0.96866,0.00000,0.00000,0.00000,43,-11,54,7,72,7,49,9,ok,2,0,0.002,9,0.77,1.80,10.80,51,0.180,8.30
8.8451,0.02094,0.01396,0.96866,0.00000,0.00000,0.00000,41,-11,56,7,72,5,50,8,ok,2,0,0.002,9,0.77,1.80,10.80,51,0.192,8.30
8.8503,0.08378,-0.03316,0.95295,0.00000,0.00000,0.00000,39,-10,56,7,71,4,51,9,ok,2,0,0.002,9,-0.24,0.87,9.87,52,0.000,8.30
8.8627,0.08378,-0.03316,0.95295,0.00000,0.00000,0.00000,36,-9,57,7,69,1,52,7,ok,2,0,0.002,9,-0.24,0.87,9.87,52,0.013,8.30
8.8851,0.08378,-0.03316,0.95295,0.00000,0.00000,0.00000,34,-8,57,8,66,2,52,8,ok,2,0,0.002,9,-0.24,0.87,9.87,52,0.025,8.30
8.8882,0.08378,-0.03316,0.95295,0.00000,0.00000,0.00000,31,-6,58,7,65,0,52,8,ok,2,0,0.002,9,-0.24,0.87,9.87,52,0.038,8.30
8.9010,0.08378,-0.03316,0.95295,0.00000,0.00000,0.00000,29,-4,59,8,64,-2,54,9,ok,2,0,0.002,9,-0.24,0.87,9.87,52,0.051,8.30
8.9211,0.08378,-0.03316,0.95295,0.00000,0.00000,0.00000,26,-1,60,9,61,-4,55,8,ok,2,0,0.002,9,-0.24,0.87,9.87,52,0.064,8.30
8.9261,0.08378,-0.03316,0.95295,0.00000,0.00000,0.00000,25,-1,61,10,60,-5,54,8,ok,2,0,0.002,9,-0.24,0.87,9.87,52,0.076,8.30
8.9384,0.08378,-0.03316,0.95295,0.00000,0.00000,0.00000,24,0,61,10,58,-5,56,6,ok,2,0,0.002,9,-0.24,0.87,9.87,52,0.089,8.30
8.9611,0.08378,-0.03316,0.95295,0.00000,0.00000,0.00000,23,2,62,11,56,-6,57,7,ok,2,0,0.002,9,-0.24,0.87,9.87,52,0.101,8.30
8.9642,0.08378,-0.03316,0.95295,0.00000,0.00000,0.00000,22,5,62,10,54,-7,58,8,ok,2,0,0.002,9,-0.24,0.87,9.87,52,0.114,8.30
8.9770,0.08378,-0.03316,0.95295,0.00000,0.00000,0.00000,20,9,61,12,51,-6,58,8,ok,2,0,0.002,9,-0.24,0.87,9.87,52,0.127,8.30
8.9971,0.08378,-0.03316,0.95295,0.00000,0.00000,0.00000,20,11,62,11,48,-6,59,8,ok,2,0,0.002,9,-0.24,0.87,9.87,52,0.140,8.30
9.0020,0.08378,-0.03316,0.95295,0.00000,0.00000,0.00000,21,11,62,13,45,-6,60,9,ok,2,0,0.002,9,-0.24,0.87,9.87,52,0.152,8.30
9.0144,0.08378,-0.03316,0.95295,0.00000,0.00000,0.00000,22,11,62,14,42,-5,59,10,ok,2,0,0.002,9,-0.24,0.87,9.87,52,0.165,8.30
9.0371,0.08378,-0.03316,0.95295,0.00000,0.00000,0.00000,23,10,63,14,40,-5,60,11,ok,2,0,0.002,9,-0.24,0.87,9.87,52,0.177,8.30
9.0404,0.08378,-0.03316,0.95295,0.00000,0.00000,0.00000,24,9,62,14,37,-4,60,11,ok,2,0,0.002,9,-0.24,0.87,9.87,52,0.190,8.30
9.0533,0.08378,-0.03316,0.95295,0.00000,0.00000,0.00000,24,8,63,15,34,-3,61,12,ok,2,0,0.002,9,-0.24,0.87,9.87,52,0.203,8.30
9.0731,-0.00698,0.03665,0.98262,0.00000,0.00000,0.00000,27,7,63,16,31,-1,61,13,ok,2,0,0.002,9,-0.06,-1.18,7.59,53,0.000,8.30
9.0779,-0.00698,0.03665,0.98262,0.00000,0.00000,0.00000,27,7,63,17,29,0,62,14,ok,2,0,0.002,9,-0.06,-1.18,7.59,53,0.012,8.30
9.0905,-0.00698,0.03665,0.98262,0.00000,0.00000,0.00000,28,6,65,18,27,1,62,15,ok,2,0,0.002,9,-0.06,-1.18,7.59,53,0.025,8.30
9.1131,-0.00698,0.03665,0.98262,0.00000,0.00000,0.00000,29,5,64,20,25,4,63,15,ok,2,0,0.002,9,-0.06,-1.18,7.59,53,0.038,8.30
9.1165,-0.00698,0.03665,0.98262,0.00000,0.00000,0.00000,30,4,64,21,24,7,63,16,ok,2,0,0.002,9,-0.06,-1.18,7.59,53,0.051,8.30
9.1290,-0.00698,0.03665,0.98262,0.00000,0.00000,0.00000,31,3,64,22,23,11,63,17,ok,2,0,0.002,9,-0.06,-1.18,7.59,53,0.064,8.30
9.1491,-0.00698,0.03665,0.98262,0.00000,0.00000,0.00000,31,3,64,23,22,14,64,18,ok,2,0,0.002,9,-0.06,-1.18,7.59,53,0.076,8.30
9.1539,-0.00698,0.03665,0.98262,0.00000,0.00000,0.00000,32,2,63,26,24,13,64,19,ok,2,0,0.002,9,-0.06,-1.18,7.59,53,0.089,8.30
9.1664,-0.00698,0.03665,0.98262,0.00000,0.00000,0.00000,32,1,63,28,24,13,64,20,ok,2,0,0.002,9,-0.06,-1.18,7.59,53,0.101,8.30
9.1891,-0.00698,0.03665,0.98262,0.00000,0.00000,0.00000,33,1,64,26,25,11,64,21,ok,2,0,0.002,9,-0.06,-1.18,7.59,53,0.114,8.30
9.1922,-0.00698,0.03665,0.98262,0.00000,0.00000,0.00000,34,1,67,23,26,11,65,21,ok,2,0,0.002,9,-0.06,-1.18,7.59,53,0.127,8.30
9.2052,-0.00698,0.03665,0.98262,0.00000,0.00000,0.00000,36,1,69,19,27,11,65,22,ok,2,0,0.002,9,-0.06,-1.18,7.59,53,0.140,8.30
9.2251,-0.00698,0.03665,0.98262,0.00000,0.00000,0.00000,37,1,70,15,29,10,64,24,ok,2,0,0.002,9,-0.06,-1.18,7.59,53,0.152,8.30
9.2299,-0.00698,0.03665,0.98262,0.00000,0.00000,0.00000,38,1,71,12,30,9,64,26,ok,2,0,0.002,9,-0.06,-1.18,7.59,53,0.164,8.30
9.2426,-0.00698,0.03665,0.98262,0.00000,0.00000,0.00000,40,1,70,12,32,9,65,26,ok,2,0,0.002,9,-0.06,-1.18,7.59,53,0.177,8.30
9.2651,-0.00698,0.03665,0.98262,0.00000,0.00000,0.00000,40,1,70,9,33,9,64,28,ok,2,0,0.002,9,-0.06,-1.18,7.59,53,0.190,8.30
9.2685,-0.08552,-0.01047,0.99309,0.00000,0.00000,0.00000,42,2,69,6,35,9,64,30,ok,2,0,0.002,9,0.28,-2.25,9.15,54,0.000,8.30
9.2810,-0.08552,-0.01047,0.99309,0.00000,0.00000,0.00000,43,2,69,3,36,8,64,31,ok,2,0,0.002,9,0.28,-2.25,9.15,54,0.013,8.30
9.3011,-0.08552,-0.01047,0.99309,0.00000,0.00000,0.00000,44,2,67,0,37,8,64,33,ok,2,0,0.002,9,0.28,-2.25,9.15,54,0.025,8.30
9.3060,-0.08552,-0.01047,0.99309,0.00000,0.00000,0.00000,45,2,66,-2,38,8,64,34,ok,2,0,0.002,9,0.28,-2.25,9.15,54,0.038,8.30
9.3184,-0.08552,-0.01047,0.99309,0.00000,0.00000,0.00000,46,2,64,-3,39,8,64,36,ok,2,0,0.002,9,0.28,-2.25,9.15,54,0.050,8.30
9.3411,-0.08552,-0.01047,0.99309,0.00000,0.00000,0.00000,46,2,62,-4,40,7,65,36,ok,2,0,0.002,9,0.28,-2.25,9.15,54,0.063,8.30
9.3443,-0.08552,-0.01047,0.99309,0.00000,0.00000,0.00000,47,2,61,-5,42,7,66,35,ok,2,0,0.002,9,0.28,-2.25,9.15,54,0.076,8.30
9.3570,-0.08552,-0.01047,0.99309,0.00000,0.00000,0.00000,48,2,60,-7,43,7,68,32,ok,2,0,0.002,9,0.28,-2.25,9.15,54,0.089,8.30
9.3771,-0.08552,-0.01047,0.99309,0.00000,0.00000,0.00000,49,3,58,-8,44,7,69,27,ok,2,0,0.002,9,0.28,-2.25,9.15,54,0.101,8.30
9.3821,-0.08552,-0.01047,0.99309,0.00000,0.00000,0.00000,50,3,56,-9,45,7,71,24,ok,2,0,0.002,9,0.28,-2.25,9.15,54,0.114,8.30
9.3947,-0.08552,-0.01047,0.99309,0.00000,0.00000,0.00000,51,3,54,-9,46,7,72,21,ok,2,0,0.002,9,0.28,-2.25,9.15,54,0.126,8.30
9.4171,-0.08552,-0.01047,0.99309,0.00000,0.00000,0.00000,51,5,51,-10,47,7,72,20,ok,2,0,0.002,9,0.28,-2.25,9.15,54,0.139,8.30
9.4202,-0.08552,-0.01047,0.99309,0.00000,0.00000,0.00000,52,6,49,-10,47,7,72,18,ok,2,0,0.002,9,0.28,-2.25,9.15,54,0.152,8.30
9.4332,-0.08552,-0.01047,0.99309,0.00000,0.00000,0.00000,52,6,46,-10,48,7,72,15,ok,2,0,0.002,9,0.28,-2.25,9.15,54,0.165,8.30
9.4531,-0.08552,-0.01047,0.99309,0.00000,0.00000,0.00000,53,6,44,-10,49,7,72,12,ok,2,0,0.002,9,0.28,-2.25,9.15,54,0.177,8.30
9.4579,-0.08552,-0.01047,0.99309,0.00000,0.00000,0.00000,53,7,42,-10,49,7,71,11,ok,2,0,0.002,9,0.28,-2.25,9.15,54,0.190,8.30
9.4707,-0.11519,-0.01222,1.06640,0.00000,0.00000,0.00000,55,7,39,-10,50,7,71,7,ok,2,0,0.002,9,0.26,-1.14,10.86,55,0.000,8.30
9.4931,-0.11519,-0.01222,1.06640,0.00000,0.00000,0.00000,56,7,37,-9,51,6,71,6,ok,2,0,0.002,9,0.26,-1.14,10.86,55,0.013,8.30
9.4963,-0.11519,-0.01222,1.06640,0.00000,0.00000,0.00000,56,7,34,-8,52,7,70,4,ok,2,0,0.002,9,0.26,-1.14,10.86,55,0.026,8.30
9.5092,-0.11519,-0.01222,1.06640,0.00000,0.00000,0.00000,56,8,31,-7,52,7,68,2,ok,2,0,0.002,9,0.26,-1.14,10.86,55,0.038,8.30
9.5291,-0.11519,-0.01222,1.06640,0.00000,0.00000,0.00000,57,8,27,-6,53,8,66,2,ok,2,0,0.003,9,0.26,-1.14,10.86,55,0.051,8.30
9.5340,-0.11519,-0.01222,1.06640,0.00000,0.00000,0.00000,57,9,24,-4,54,8,65,0,ok,2,0,0.003,9,0.26,-1.14,10.86,55,0.063,8.30
9.5464,-0.11519,-0.01222,1.06640,0.00000,0.00000,0.00000,58,10,21,-2,55,8,64,-2,ok,2,0,0.003,9,0.26,-1.14,10.86,55,0.076,8.30
9.5691,-0.11519,-0.01222,1.06640,0.00000,0.00000,0.00000,59,10,19,-1,57,6,62,-3,ok,2,0,0.003,9,0.26,-1.14,10.86,55,0.089,8.30
9.5723,-0.11519,-0.01222,1.06640,0.00000,0.00000,0.00000,59,10,18,1,58,7,60,-4,ok,2,0,0.003,9,0.26,-1.14,10.86,55,0.102,8.30
9.5850,-0.11519,-0.01222,1.06640,0.00000,0.00000,0.00000,60,10,16,3,59,8,58,-4,ok,2,0,0.003,9,0.26,-1.14,10.86,55,0.115,8.30
9.6051,-0.11519,-0.01222,1.06640,0.00000,0.00000,0.00000,60,11,15,6,59,8,55,-5,ok,2,0,0.003,9,0.26,-1.14,10.86,55,0.127,8.30
9.6100,-0.11519,-0.01222,1.06640,0.00000,0.00000,0.00000,60,12,13,9,59,9,53,-6,ok,2,0,0.003,9,0.26,-1.14,10.86,55,0.140,8.30
9.6224,-0.11519,-0.01222,1.06640,0.00000,0.00000,0.00000,60,12,13,11,60,9,50,-5,ok,2,0,0.003,9,0.26,-1.14,10.86,55,0.152,8.30
9.6451,-0.11519,-0.01222,1.06640,0.00000,0.00000,0.00000,60,13,14,12,60,9,48,-5,ok,2,0,0.003,9,0.26,-1.14,10.86,55,0.165,8.30
9.6484,-0.11519,-0.01222,1.06640,0.00000,0.00000,0.00000,60,14,15,11,61,10,46,-5,ok,2,0,0.003,9,0.26,-1.14,10.86,55,0.178,8.30
9.6610,-0.11519,-0.01222,1.06640,0.00000,0.00000,0.00000,60,14,17,10,61,11,42,-4,ok,2,0,0.003,9,0.26,-1.14,10.86,55,0.191,8.30
9.6811,-0.00349,0.10123,1.05243,0.00000,0.00000,0.00000,60,15,19,9,61,12,41,-4,ok,2,0,0.003,9,1.22,0.32,9.88,56,0.000,8.30
9.6863,-0.00349,0.10123,1.05243,0.00000,0.00000,0.00000,60,16,19,9,61,12,37,-3,ok,2,0,0.003,10,1.22,0.32,9.88,56,0.012,8.30
9.6986,-0.00349,0.10123,1.05243,0.00000,0.00000,0.00000,60,17,21,8,61,13,34,-3,ok,2,0,0.003,10,1.22,0.32,9.88,56,0.025,8.30
9.7211,-0.00349,0.10123,1.05243,0.00000,0.00000,0.00000,60,18,21,7,62,14,30,-1,ok,2,0,0.003,10,1.22,0.32,9.88,56,0.038,8.30
9.7243,-0.00349,0.10123,1.05243,0.00000,0.00000,0.00000,62,19,23,6,63,14,29,0,ok,2,0,0.003,10,1.22,0.32,9.88,56,0.051,8.30
9.7370,-0.00349,0.10123,1.05243,0.00000,0.00000,0.00000,61,21,24,5,63,15,27,2,ok,2,0,0.003,10,1.22,0.32,9.88,56,0.064,8.30
9.7571,-0.00349,0.10123,1.05243,0.00000,0.00000,0.00000,62,21,24,4,63,16,25,5,ok,2,0,0.003,10,1.22,0.32,9.88,56,0.076,8.30
9.7622,-0.00349,0.10123,1.05243,0.00000,0.00000,0.00000,62,23,25,4,63,17,24,7,ok,2,0,0.003,10,1.22,0.32,9.88,56,0.089,8.30
9.7745,-0.00349,0.10123,1.05243,0.00000,0.00000,0.00000,62,23,25,3,64,17,23,11,ok,2,0,0.003,10,1.22,0.32,9.88,56,0.101,8.30
9.7971,-0.00349,0.10123,1.05243,0.00000,0.00000,0.00000,61,26,26,3,64,19,22,13,ok,2,0,0.003,10,1.22,0.32,9.88,56,0.114,8.30
9.8003,-0.00349,0.10123,1.05243,0.00000,0.00000,0.00000,61,27,27,2,64,20,24,12,ok,2,0,0.003,10,1.22,0.32,9.88,56,0.127,8.30
9.8130,-0.00349,0.10123,1.05243,0.00000,0.00000,0.00000,62,25,28,2,64,21,25,12,ok,2,0,0.003,10,1.22,0.32,9.88,56,0.140,8.30
9.8331,-0.00349,0.10123,1.05243,0.00000,0.00000,0.00000,64,21,29,2,65,22,26,10,ok,2,0,0.003,10,1.22,0.32,9.88,56,0.152,8.30
9.8380,-0.00349,0.10123,1.05243,0.00000,0.00000,0.00000,65,17,30,1,64,23,27,9,ok,2,0,0.003,10,1.22,0.32,9.88,56,0.165,8.30
9.8506,-0.00349,0.10123,1.05243,0.00000,0.00000,0.00000,66,13,32,2,64,25,28,10,ok,2,0,0.003,10,1.22,0.32,9.88,56,0.177,8.30
9.8731,-0.00349,0.10123,1.05243,0.00000,0.00000,0.00000,66,11,33,2,65,26,29,9,ok,2,0,0.003,10,1.22,0.32,9.88,56,0.190,8.30
9.8765,-0.02269,0.05934,1.09956,0.00000,0.00000,0.00000,66,10,35,2,64,28,30,9,ok,2,0,0.003,10,-1.94,0.02,8.61,57,0.000,8.30
9.8890,-0.02269,0.05934,1.09956,0.00000,0.00000,0.00000,66,7,36,2,64,29,33,9,ok,2,0,0.003,10,-1.94,0.02,8.61,57,0.013,8.30
9.9091,-0.02269,0.05934,1.09956,0.00000,0.00000,0.00000,65,4,38,3,64,30,33,9,ok,2,0,0.003,10,-1.94,0.02,8.61,57,0.025,8.30
9.9140,-0.02269,0.05934,1.09956,0.00000,0.00000,0.00000,65,2,39,3,64,32,35,8,ok,2,0,0.003,10,-1.94,0.02,8.61,57,0.038,8.30
9.9266,-0.02269,0.05934,1.09956,0.00000,0.00000,0.00000,64,-1,41,3,64,34,36,8,ok,2,0,0.003,10,-1.94,0.02,8.61,57,0.050,8.30
9.9491,-0.02269,0.05934,1.09956,0.00000,0.00000,0.00000,64,-3,42,2,64,35,37,8,ok,2,0,0.003,10,-1.94,0.02,8.61,57,0.063,8.30
9.9523,-0.02269,0.05934,1.09956,0.00000,0.00000,0.00000,62,-4,44,3,64,36,38,8,ok,2,0,0.003,10,-1.94,0.02,8.61,57,0.076,8.30
9.9650,-0.02269,0.05934,1.09956,0.00000,0.00000,0.00000,60,-5,44,3,66,35,39,8,ok,2,0,0.003,10,-1.94,0.02,8.61,57,0.089,8.30
9.9851,-0.02269,0.05934,1.09956,0.00000,0.00000,0.00000,60,-6,45,3,67,33,41,7,ok,2,0,0.003,10,-1.94,0.02,8.61,57,0.101,8.30
9.9899,-0.02269,0.05934,1.09956,0.00000,0.00000,0.00000,59,-8,46,3,70,28,42,7,ok,2,0,0.003,10,-1.94,0.02,8.61,57,0.114,8.30
10.0026,-0.02269,0.05934,1.09956,0.00000,0.00000,0.00000,57,-9,48,4,71,24,43,7,ok,2,0,0.003,10,-1.94,0.02,8.61,57,0.126,8.30
10.0251,-0.02269,0.05934,1.09956,0.00000,0.00000,0.00000,55,-10,49,4,73,21,44,7,ok,2,0,0.003,10,-1.94,0.02,8.61,57,0.139,8.30
10.0369,-0.02269,0.05934,1.09956,0.00000,0.00000,0.00000,53,-10,49,4,74,20,45,7,ok,2,0,0.003,10,-1.94,0.02,8.61,57,0.152,8.30
10.0410,-0.02269,0.05934,1.09956,0.00000,0.00000,0.00000,52,-11,49,6,74,18,46,7,ok,2,0,0.003,10,-1.94,0.02,8.61,57,0.165,8.30
10.0611,-0.02269,0.05934,1.09956,0.00000,0.00000,0.00000,49,-11,51,6,74,15,47,8,ok,2,0,0.003,10,-1.94,0.02,8.61,57,0.177,8.30
10.0662,-0.02269,0.05934,1.09956,0.00000,0.00000,0.00000,48,-11,52,6,73,11,48,8,ok,2,0,0.003,10,-1.94,0.02,8.61,57,0.190,8.30
10.0787,0.01920,0.00349,1.11527,0.00000,0.00000,0.00000,45,-11,53,6,73,10,49,8,ok,2,0,0.003,10,-0.45,-0.05,10.91,58,0.000,8.30
10.1011,0.01920,0.00349,1.11527,0.00000,0.00000,0.00000,43,-11,53,7,72,7,50,9,ok,2,0,0.003,10,-0.45,-0.05,10.91,58,0.013,8.30
10.1043,0.01920,0.00349,1.11527,0.00000,0.00000,0.00000,40,-11,55,7,72,5,50,8,ok,2,0,0.003,10,-0.45,-0.05,10.91,58,0.026,8.30
10.1170,0.01920,0.00349,1.11527,0.00000,0.00000,0.00000,39,-10,56,7,71,4,51,9,ok,2,0,0.003,10,-0.45,-0.05,10.91,58,0.039,8.30
10.1371,0.01920,0.00349,1.11527,0.00000,0.00000,0.00000,36,-9,57,7,69,1,52,7,ok,2,0,0.003,10,-0.45,-0.05,10.91,58,0.051,8.30
10.1420,0.01920,0.00349,1.11527,0.00000,0.00000,0.00000,34,-7,57,8,66,2,52,8,ok,2,0,0.003,10,-0.45,-0.05,10.91,58,0.064,8.30
10.1547,0.01920,0.00349,1.11527,0.00000,0.00000,0.00000,32,-6,58,7,65,-1,53,8,ok,2,0,0.003,10,-0.45,-0.05,10.91,58,0.076,8.30
10.1771,0.01920,0.00349,1.11527,0.00000,0.00000,0.00000,29,-4,58,8,64,-2,54,9,ok,2,0,0.003,10,-0.45,-0.05,10.91,58,0.089,8.30
10.1803,0.01920,0.00349,1.11527,0.00000,0.00000,0.00000,26,-1,59,9,61,-4,55,8,ok,2,0,0.003,10,-0.45,-0.05,10.91,58,0.102,8.30
10.1930,0.01920,0.00349,1.11527,0.00000,0.00000,0.00000,25,-1,60,10,60,-5,55,8,ok,2,0,0.003,10,-0.45,-0.05,10.91,58,0.115,8.30
10.2131,0.01920,0.00349,1.11527,0.00000,0.00000,0.00000,24,0,61,10,58,-6,57,6,ok,2,0,0.003,10,-0.45,-0.05,10.91,58,0.127,8.30
10.2181,0.01920,0.00349,1.11527,0.00000,0.00000,0.00000,23,2,61,11,56,-6,57,7,ok,2,0,0.003,10,-0.45,-0.05,10.91,58,0.139,8.30
10.2305,0.01920,0.00349,1.11527,0.00000,0.00000,0.00000,22,5,61,11,54,-7,58,8,ok,2,0,0.003,10,-0.45,-0.05,10.91,58,0.152,8.30
10.2531,0.01920,0.00349,1.11527,0.00000,0.00000,0.00000,20,8,61,12,51,-6,58,8,ok,2,0,0.003,10,-0.45,-0.05,10.91,58,0.165,8.30
10.2563,0.01920,0.00349,1.11527,0.00000,0.00000,0.00000,20,11,61,12,48,-6,59,9,ok,2,0,0.003,10,-0.45,-0.05,10.91,58,0.178,8.30
10.2692,-0.02269,-0.00000,1.15890,0.00000,0.00000,0.00000,21,11,62,13,46,-6,60,10,ok,2,0,0.003,10,1.52,-1.09,11.21,59,0.000,8.30
10.2891,-0.02269,-0.00000,1.15890,0.00000,0.00000,0.00000,22,11,61,14,43,-5,60,10,ok,2,0,0.003,10,1.52,-1.09,11.21,59,0.013,8.30
10.2942,-0.02269,-0.00000,1.15890,0.00000,0.00000,0.00000,23,9,62,14,40,-5,61,11,ok,2,0,0.003,10,1.52,-1.09,11.21,59,0.025,8.30
10.3065,-0.02269,-0.00000,1.15890,0.00000,0.00000,0.00000,24,9,62,15,37,-4,61,12,ok,2,0,0.003,10,1.52,-1.09,11.21,59,0.037,8.30
10.3291,-0.02269,-0.00000,1.15890,0.00000,0.00000,0.00000,24,8,62,15,34,-3,61,13,ok,2,0,0.003,10,1.52,-1.09,11.21,59,0.050,8.30
10.3323,-0.02269,-0.00000,1.15890,0.00000,0.00000,0.00000,26,7,63,16,31,-2,61,13,ok,2,0,0.003,10,1.52,-1.09,11.21,59,0.063,8.30
10.3451,-0.02269,-0.00000,1.15890,0.00000,0.00000,0.00000,27,7,63,17,29,0,62,14,ok,2,0,0.003,10,1.52,-1.09,11.21,59,0.076,8.30
10.3651,-0.02269,-0.00000,1.15890,0.00000,0.00000,0.00000,28,6,64,18,28,1,62,15,ok,2,0,0.003,10,1.52,-1.09,11.21,59,0.088,8.30
10.3701,-0.02269,-0.00000,1.15890,0.00000,0.00000,0.00000,29,5,64,20,25,5,63,15,ok,2,0,0.003,10,1.52,-1.09,11.21,59,0.101,8.30
10.3824,-0.02269,-0.00000,1.15890,0.00000,0.00000,0.00000,30,4,64,21,24,7,63,16,ok,2,0,0.003,10,1.52,-1.09,11.21,59,0.114,8.30
10.4051,-0.02269,-0.00000,1.15890,0.00000,0.00000,0.00000,31,4,64,22,23,11,63,18,ok,2,0,0.003,10,1.52,-1.09,11.21,59,0.126,8.30
10.4083,-0.02269,-0.00000,1.15890,0.00000,0.00000,0.00000,32,4,64,23,22,14,64,18,ok,2,0,0.003,10,1.52,-1.09,11.21,59,0.139,8.30
10.4210,-0.02269,-0.00000,1.15890,0.00000,0.00000,0.00000,32,3,63,26,24,13,64,19,ok,2,0,0.003,10,1.52,-1.09,11.21,59,0.152,8.30
10.4411,-0.02269,-0.00000,1.15890,0.00000,0.00000,0.00000,33,3,63,27,24,13,64,19,ok,2,0,0.003,10,1.52,-1.09,11.21,59,0.165,8.30
10.4460,-0.02269,-0.00000,1.15890,0.00000,0.00000,0.00000,34,2,65,25,25,11,64,21,ok,2,0,0.003,10,1.52,-1.09,11.21,59,0.177,8.30
10.4586,-0.02269,-0.00000,1.15890,0.00000,0.00000,0.00000,35,2,67,22,26,11,65,21,ok,2,0,0.003,10,1.52,-1.09,11.21,59,0.189,8.30
10.4811,-0.03316,0.06283,1.15890,0.00000,0.00000,0.00000,36,1,69,19,27,11,65,22,ok,2,0,0.003,10,-0.02,-0.20,8.43,60,0.000,8.30
10.4843,-0.03316,0.06283,1.15890,0.00000,0.00000,0.00000,37,2,70,15,29,10,64,24,ok,2,0,0.003,10,-0.02,-0.20,8.43,60,0.013,8.30
10.4972,-0.03316,0.06283,1.15890,0.00000,0.00000,0.00000,38,1,71,13,30,9,64,26,ok,2,0,0.003,10,-0.02,-0.20,8.43,60,0.026,8.30
10.5171,-0.03316,0.06283,1.15890,0.00000,0.00000,0.00000,40,1,70,12,32,9,65,26,ok,2,0,0.003,10,-0.02,-0.20,8.43,60,0.039,8.30
10.5220,-0.03316,0.06283,1.15890,0.00000,0.00000,0.00000,40,1,70,9,33,9,64,29,ok,2,0,0.003,10,-0.02,-0.20,8.43,60,0.051,8.30
10.5344,-0.03316,0.06283,1.15890,0.00000,0.00000,0.00000,42,2,69,6,35,9,63,30,ok,2,0,0.003,10,-0.02,-0.20,8.43,60,0.064,8.30
10.5571,-0.03316,0.06283,1.15890,0.00000,0.00000,0.00000,43,2,68,3,36,8,64,31,ok,2,0,0.003,10,-0.02,-0.20,8.43,60,0.076,8.30
10.5603,-0.03316,0.06283,1.15890,0.00000,0.00000,0.00000,44,2,67,0,37,9,64,33,ok,2,0,0.003,10,-0.02,-0.20,8.43,60,0.089,8.30
10.5730,-0.03316,0.06283,1.15890,0.00000,0.00000,0.00000,44,2,66,-1,39,8,64,34,ok,2,0,0.003,10,-0.02,-0.20,8.43,60,0.102,8.30
10.5931,-0.03316,0.06283,1.15890,0.00000,0.00000,0.00000,46,2,64,-3,40,8,63,36,ok,2,0,0.003,10,-0.02,-0.20,8.43,60,0.115,8.30
10.5982,-0.03316,0.06283,1.15890,0.00000,0.00000,0.00000,46,2,62,-4,41,7,64,36,ok,2,0,0.003,10,-0.02,-0.20,8.43,60,0.127,8.30
10.6104,-0.03316,0.06283,1.15890,0.00000,0.00000,0.00000,47,2,61,-5,42,7,66,35,ok,2,0,0.003,10,-0.02,-0.20,8.43,60,0.140,8.30
10.6331,-0.03316,0.06283,1.15890,0.00000,0.00000,0.00000,48,2,60,-8,43,7,67,32,ok,2,0,0.003,10,-0.02,-0.20,8.43,60,0.152,8.30
10.6363,-0.03316,0.06283,1.15890,0.00000,0.00000,0.00000,49,3,58,-8,44,7,69,27,ok,2,0,0.003,10,-0.02,-0.20,8.43,60,0.165,8.30
10.6493,-0.03316,0.06283,1.15890,0.00000,0.00000,0.00000,50,3,55,-9,45,7,71,24,ok,2,0,0.003,10,-0.02,-0.20,8.43,60,0.178,8.30
10.6691,-0.03316,0.06283,1.15890,0.00000,0.00000,0.00000,50,3,53,-9,46,7,72,21,ok,2,0,0.003,10,-0.02,-0.20,8.43,60,0.191,8.30
10.6742,-0.11519,0.04887,1.21649,0.00000,0.00000,0.00000,50,5,51,-10,47,7,73,20,ok,2,0,0.003,10,0.14,-1.33,9.49,61,0.000,8.30
10.6867,-0.11519,0.04887,1.21649,0.00000,0.00000,0.00000,52,5,49,-10,47,7,73,18,ok,2,0,0.003,10,0.14,-1.33,9.49,61,0.013,8.30
10.7091,-0.11519,0.04887,1.21649,0.00000,0.00000,0.00000,52,5,46,-10,49,7,73,15,ok,2,0,0.003,11,0.14,-1.33,9.49,61,0.025,8.30
10.7123,-0.11519,0.04887,1.21649,0.00000,0.00000,0.00000,52,5,44,-9,49,7,72,12,ok,2,0,0.003,11,0.14,-1.33,9.49,61,0.038,8.30
10.7250,-0.11519,0.04887,1.21649,0.00000,0.00000,0.00000,53,6,41,-10,49,7,72,11,ok,2,0,0.003,11,0.14,-1.33,9.49,61,0.051,8.30
10.7451,-0.11519,0.04887,1.21649,0.00000,0.00000,0.00000,55,6,39,-10,51,7,71,7,ok,2,0,0.003,11,0.14,-1.33,9.49,61,0.064,8.30
10.7501,-0.11519,0.04887,1.21649,0.00000,0.00000,0.00000,55,6,36,-9,52,6,71,6,ok,2,0,0.003,11,0.14,-1.33,9.49,61,0.076,8.30
10.7624,-0.11519,0.04887,1.21649,0.00000,0.00000,0.00000,56,6,33,-8,52,7,70,4,ok,2,0,0.003,11,0.14,-1.33,9.49,61,0.089,8.30
10.7851,-0.11519,0.04887,1.21649,0.00000,0.00000,0.00000,56,7,30,-7,53,8,68,2,ok,2,0,0.003,11,0.14,-1.33,9.49,61,0.101,8.30
10.7882,-0.11519,0.04887,1.21649,0.00000,0.00000,0.00000,56,7,27,-6,54,8,66,2,ok,2,0,0.003,11,0.14,-1.33,9.49,61,0.114,8.30
10.8010,-0.11519,0.04887,1.21649,0.00000,0.00000,0.00000,57,8,24,-4,55,8,65,0,ok,2,0,0.003,11,0.14,-1.33,9.49,61,0.127,8.30
10.8211,-0.11519,0.04887,1.21649,0.00000,0.00000,0.00000,58,9,20,-2,56,8,64,-2,ok,2,0,0.003,11,0.14,-1.33,9.49,61,0.139,8.30
10.8260,-0.11519,0.04887,1.21649,0.00000,0.00000,0.00000,58,10,19,-1,58,6,62,-3,ok,2,0,0.003,11,0.14,-1.33,9.49,61,0.152,8.30
10.8384,-0.11519,0.04887,1.21649,0.00000,0.00000,0.00000,59,9,18,0,58,7,60,-4,ok,2,0,0.003,11,0.14,-1.33,9.49,61,0.165,8.30
10.8611,-0.11519,0.04887,1.21649,0.00000,0.00000,0.00000,59,10,16,3,59,8,58,-4,ok,2,0,0.003,11,0.14,-1.33,9.49,61,0.177,8.30
10.8643,-0.11519,0.04887,1.21649,0.00000,0.00000,0.00000,59,11,14,6,59,8,56,-5,ok,2,0,0.003,11,0.14,-1.33,9.49,61,0.190,8.30
10.8772,-0.11519,0.04887,1.21649,0.00000,0.00000,0.00000,59,12,13,9,60,9,54,-6,ok,2,0,0.003,11,0.14,-1.33,9.49,61,0.203,8.30
10.8971,-0.07330,0.13090,1.21475,0.00000,0.00000,0.00000,60,12,12,11,60,9,50,-5,ok,2,0,0.003,11,2.18,0.08,8.77,62,0.000,8.30
10.9021,-0.07330,0.13090,1.21475,0.00000,0.00000,0.00000,60,13,14,12,60,9,48,-5,ok,2,0,0.003,11,2.18,0.08,8.77,62,0.012,8.30
10.9144,-0.07330,0.13090,1.21475,0.00000,0.00000,0.00000,59,13,15,11,61,10,46,-5,ok,2,0,0.003,11,2.18,0.08,8.77,62,0.025,8.30
10.9371,-0.07330,0.13090,1.21475,0.00000,0.00000,0.00000,60,14,16,10,61,10,42,-4,ok,2,0,0.003,11,2.18,0.08,8.77,62,0.038,8.30
10.9403,-0.07330,0.13090,1.21475,0.00000,0.00000,0.00000,60,15,18,9,62,12,40,-4,ok,2,0,0.003,11,2.18,0.08,8.77,62,0.051,8.30
10.9532,-0.07330,0.13090,1.21475,0.00000,0.00000,0.00000,60,15,18,9,62,12,37,-3,ok,2,0,0.003,11,2.18,0.08,8.77,62,0.064,8.30
10.9731,-0.07330,0.13090,1.21475,0.00000,0.00000,0.00000,60,16,20,8,62,13,35,-3,ok,2,0,0.003,11,2.18,0.08,8.77,62,0.076,8.30
10.9780,-0.07330,0.13090,1.21475,0.00000,0.00000,0.00000,60,17,20,7,62,14,31,-1,ok,2,0,0.003,11,2.18,0.08,8.77,62,0.088,8.30
10.9904,-0.07330,0.13090,1.21475,0.00000,0.00000,0.00000,61,18,22,6,63,14,30,0,ok,2,0,0.003,11,2.18,0.08,8.77,62,0.101,8.30
11.0131,-0.07330,0.13090,1.21475,0.00000,0.00000,0.00000,61,20,23,5,63,15,28,2,ok,2,0,0.003,11,2.18,0.08,8.77,62,0.114,8.30
11.0162,-0.07330,0.13090,1.21475,0.00000,0.00000,0.00000,61,20,23,5,63,16,26,5,ok,2,0,0.003,11,2.18,0.08,8.77,62,0.127,8.30
11.0292,-0.07330,0.13090,1.21475,0.00000,0.00000,0.00000,61,22,24,4,64,17,25,7,ok,2,0,0.003,11,2.18,0.08,8.77,62,0.139,8.30
11.0491,-0.07330,0.13090,1.21475,0.00000,0.00000,0.00000,61,22,25,3,64,17,23,11,ok,2,0,0.003,11,2.18,0.08,8.77,62,0.152,8.30
11.0539,-0.07330,0.13090,1.21475,0.00000,0.00000,0.00000,60,25,26,3,64,18,23,13,ok,2,0,0.003,11,2.18,0.08,8.77,62,0.164,8.30
11.0664,-0.07330,0.13090,1.21475,0.00000,0.00000,0.00000,60,26,27,2,64,19,25,12,ok,2,0,0.003,11,2.18,0.08,8.77,62,0.177,8.30
11.0892,-0.07330,0.13090,1.21475,0.00000,0.00000,0.00000,61,25,28,2,65,21,25,12,ok,2,0,0.003,11,2.18,0.08,8.77,62,0.190,8.30
11.0926,-0.05411,0.07156,1.26013,0.00000,0.00000,0.00000,64,21,29,2,65,22,26,10,ok,2,0,0.003,11,0.10,-1.71,9.56,63,0.000,8.30
11.1053,-0.05411,0.07156,1.26013,0.00000,0.00000,0.00000,65,17,30,1,65,23,27,9,ok,2,0,0.003,11,0.10,-1.71,9.56,63,0.013,8.30
11.1251,-0.05411,0.07156,1.26013,0.00000,0.00000,0.00000,66,13,32,2,65,25,28,10,ok,2,0,0.003,11,0.10,-1.71,9.56,63,0.025,8.30
11.1301,-0.05411,0.07156,1.26013,0.00000,0.00000,0.00000,66,11,33,1,66,25,30,9,ok,2,0,0.003,11,0.10,-1.71,9.56,63,0.038,8.30
11.1425,-0.05411,0.07156,1.26013,0.00000,0.00000,0.00000,66,10,35,1,64,28,31,9,ok,2,0,0.003,11,0.10,-1.71,9.56,63,0.050,8.30
11.1651,-0.05411,0.07156,1.26013,0.00000,0.00000,0.00000,66,7,36,1,64,29,33,9,ok,2,0,0.003,11,0.10,-1.71,9.56,63,0.063,8.30
11.1683,-0.05411,0.07156,1.26013,0.00000,0.00000,0.00000,65,5,38,3,64,30,33,9,ok,2,0,0.003,11,0.10,-1.71,9.56,63,0.076,8.30
11.1812,-0.05411,0.07156,1.26013,0.00000,0.00000,0.00000,65,2,39,3,65,32,35,9,ok,2,0,0.003,11,0.10,-1.71,9.56,63,0.089,8.30
11.2011,-0.05411,0.07156,1.26013,0.00000,0.00000,0.00000,64,0,41,2,64,34,36,8,ok,2,0,0.003,11,0.10,-1.71,9.56,63,0.101,8.30
11.2060,-0.05411,0.07156,1.26013,0.00000,0.00000,0.00000,64,-2,42,2,64,35,37,8,ok,2,0,0.003,11,0.10,-1.71,9.56,63,0.113,8.30
11.2185,-0.05411,0.07156,1.26013,0.00000,0.00000,0.00000,62,-4,43,2,65,35,38,8,ok,2,0,0.003,11,0.10,-1.71,9.56,63,0.126,8.30
11.2411,-0.05411,0.07156,1.26013,0.00000,0.00000,0.00000,60,-5,44,2,66,35,39,8,ok,2,0,0.003,11,0.10,-1.71,9.56,63,0.139,8.30
11.2443,-0.05411,0.07156,1.26013,0.00000,0.00000,0.00000,60,-6,45,3,68,33,41,7,ok,2,0,0.003,11,0.10,-1.71,9.56,63,0.152,8.30
11.2570,-0.05411,0.07156,1.26013,0.00000,0.00000,0.00000,59,-8,46,3,70,28,42,7,ok,2,0,0.003,11,0.10,-1.71,9.56,63,0.165,8.30
11.2771,-0.05411,0.07156,1.26013,0.00000,0.00000,0.00000,57,-9,47,4,71,24,43,7,ok,2,0,0.003,11,0.10,-1.71,9.56,63,0.177,8.30
11.2821,-0.05411,0.07156,1.26013,0.00000,0.00000,0.00000,55,-10,49,4,73,21,44,7,ok,2,0,0.003,11,0.10,-1.71,9.56,63,0.190,8.30
11.2947,0.03316,0.03840,1.26013,0.00000,0.00000,0.00000,53,-10,49,3,74,20,45,7,ok,2,0,0.003,11,0.03,0.19,10.19,64,0.000,8.30
11.3171,0.03316,0.03840,1.26013,0.00000,0.00000,0.00000,52,-11,49,5,74,19,46,7,ok,2,0,0.003,11,0.03,0.19,10.19,64,0.013,8.30
11.3203,0.03316,0.03840,1.26013,0.00000,0.00000,0.00000,49,-11,51,6,74,15,47,8,ok,2,0,0.003,11,0.03,0.19,10.19,64,0.026,8.30
11.3331,0.03316,0.03840,1.26013,0.00000,0.00000,0.00000,47,-11,51,6,74,12,48,8,ok,2,0,0.003,11,0.03,0.19,10.19,64,0.039,8.30
11.3531,0.03316,0.03840,1.26013,0.00000,0.00000,0.00000,45,-10,53,6,73,10,49,8,ok,2,0,0.003,11,0.03,0.19,10.19,64,0.051,8.30
11.3581,0.03316,0.03840,1.26013,0.00000,0.00000,0.00000,43,-10,53,6,72,7,49,9,ok,2,0,0.003,11,0.03,0.19,10.19,64,0.064,8.30
11.3704,0.03316,0.03840,1.26013,0.00000,0.00000,0.00000,41,-10,55,6,72,5,50,8,ok,2,0,0.003,11,0.03,0.19,10.19,64,0.076,8.30
11.3931,0.03316,0.03840,1.26013,0.00000,0.00000,0.00000,39,-9,56,6,71,4,51,9,ok,2,0,0.003,11,0.03,0.19,10.19,64,0.089,8.30
11.3963,0.03316,0.03840,1.26013,0.00000,0.00000,0.00000,36,-8,57,6,69,1,52,7,ok,2,0,0.003,11,0.03,0.19,10.19,64,0.102,8.30
11.4091,0.03316,0.03840,1.26013,0.00000,0.00000,0.00000,34,-7,57,7,66,1,52,8,ok,2,0,0.003,11,0.03,0.19,10.19,64,0.115,8.30
11.4291,0.03316,0.03840,1.26013,0.00000,0.00000,0.00000,32,-6,57,7,65,-1,53,8,ok,2,0,0.003,11,0.03,0.19,10.19,64,0.127,8.30
11.4339,0.03316,0.03840,1.26013,0.00000,0.00000,0.00000,29,-4,58,8,64,-3,54,9,ok,2,0,0.003,11,0.03,0.19,10.19,64,0.139,8.30
11.4464,0.03316,0.03840,1.26013,0.00000,0.00000,0.00000,26,-2,59,9,62,-4,55,8,ok,2,0,0.003,11,0.03,0.19,10.19,64,0.152,8.30
11.4691,0.03316,0.03840,1.26013,0.00000,0.00000,0.00000,25,-2,60,11,61,-5,55,8,ok,2,0,0.003,11,0.03,0.19,10.19,64,0.165,8.30
11.4723,0.03316,0.03840,1.26013,0.00000,0.00000,0.00000,24,-1,60,10,59,-6,57,6,ok,2,0,0.003,11,0.03,0.19,10.19,64,0.178,8.30
11.4855,0.03316,0.03840,1.26013,0.00000,0.00000,0.00000,23,2,61,11,56,-6,57,7,ok,2,0,0.003,11,0.03,0.19,10.19,64,0.190,8.30
11.5051,0.02443,0.02443,1.30900,0.00000,0.00000,0.00000,22,5,61,11,54,-7,58,8,ok,2,0,0.003,11,0.13,-0.82,10.33,65,0.000,8.30
11.5100,0.02443,0.02443,1.30900,0.00000,0.00000,0.00000,20,8,61,12,51,-6,59,8,ok,2,0,0.003,11,0.13,-0.82,10.33,65,0.012,8.30
11.5224,0.02443,0.02443,1.30900,0.00000,0.00000,0.00000,20,10,61,12,48,-6,59,9,ok,2,0,0.003,11,0.13,-0.82,10.33,65,0.025,8.30
11.5451,0.02443,0.02443,1.30900,0.00000,0.00000,0.00000,21,11,61,13,46,-6,60,10,ok,2,0,0.003,11,0.13,-0.82,10.33,65,0.038,8.30
11.5483,0.02443,0.02443,1.30900,0.00000,0.00000,0.00000,21,10,61,14,43,-5,60,10,ok,2,0,0.003,11,0.13,-0.82,10.33,65,0.051,8.30
11.5612,0.02443,0.02443,1.30900,0.00000,0.00000,0.00000,23,9,62,14,40,-5,61,11,ok,2,0,0.003,11,0.13,-0.82,10.33,65,0.064,8.30
11.5811,0.02443,0.02443,1.30900,0.00000,0.00000,0.00000,24,9,62,15,37,-4,61,11,ok,2,0,0.003,11,0.13,-0.82,10.33,65,0.076,8.30
11.5860,0.02443,0.02443,1.30900,0.00000,0.00000,0.00000,24,8,62,15,35,-3,61,13,ok,2,0,0.003,11,0.13,-0.82,10.33,65,0.089,8.30
11.5985,0.02443,0.02443,1.30900,0.00000,0.00000,0.00000,26,7,63,16,31,-2,61,13,ok,2,0,0.003,11,0.13,-0.82,10.33,65,0.101,8.30
11.6211,0.02443,0.02443,1.30900,0.00000,0.00000,0.00000,26,7,63,17,30,0,62,14,ok,2,0,0.003,11,0.13,-0.82,10.33,65,0.114,8.30
11.6244,0.02443,0.02443,1.30900,0.00000,0.00000,0.00000,28,6,64,18,28,1,62,15,ok,2,0,0.003,11,0.13,-0.82,10.33,65,0.127,8.30
11.6370,0.02443,0.02443,1.30900,0.00000,0.00000,0.00000,29,5,64,19,25,5,63,15,ok,2,0,0.003,11,0.13,-0.82,10.33,65,0.140,8.30
11.6571,0.02443,0.02443,1.30900,0.00000,0.00000,0.00000,29,4,64,20,24,8,63,16,ok,2,0,0.003,11,0.13,-0.82,10.33,65,0.152,8.30
11.6620,0.02443,0.02443,1.30900,0.00000,0.00000,0.00000,31,4,64,22,23,11,63,17,ok,2,0,0.003,11,0.13,-0.82,10.33,65,0.164,8.30
11.6744,0.02443,0.02443,1.30900,0.00000,0.00000,0.00000,32,3,64,23,22,14,64,18,ok,2,0,0.003,11,0.13,-0.82,10.33,65,0.177,8.30
11.6971,0.02443,0.02443,1.30900,0.00000,0.00000,0.00000,32,3,63,25,24,13,64,19,ok,2,0,0.003,11,0.13,-0.82,10.33,65,0.189,8.30
11.7006,-0.02967,0.04887,1.27060,0.00000,0.00000,0.00000,33,2,63,27,24,13,64,19,ok,2,0,0.003,11,1.04,1.09,10.30,66,0.000,8.30
11.7133,-0.02967,0.04887,1.27060,0.00000,0.00000,0.00000,34,2,64,26,25,11,64,21,ok,2,0,0.003,12,1.04,1.09,10.30,66,0.013,8.30
11.7331,-0.02967,0.04887,1.27060,0.00000,0.00000,0.00000,35,1,67,23,26,10,65,21,ok,2,0,0.003,12,1.04,1.09,10.30,66,0.025,8.30
11.7380,-0.02967,0.04887,1.27060,0.00000,0.00000,0.00000,36,1,69,19,27,10,65,22,ok,2,0,0.003,12,1.04,1.09,10.30,66,0.038,8.30
11.7506,-0.02967,0.04887,1.27060,0.00000,0.00000,0.00000,37,1,70,15,29,10,64,24,ok,2,0,0.003,12,1.04,1.09,10.30,66,0.050,8.30
11.7731,-0.02967,0.04887,1.27060,0.00000,0.00000,0.00000,38,1,71,13,30,9,64,26,ok,2,0,0.003,12,1.04,1.09,10.30,66,0.063,8.30
11.7763,-0.02967,0.04887,1.27060,0.00000,0.00000,0.00000,40,1,70,12,33,9,65,26,ok,2,0,0.003,12,1.04,1.09,10.30,66,0.076,8.30
11.7890,-0.02967,0.04887,1.27060,0.00000,0.00000,0.00000,40,1,70,9,33,9,64,28,ok,2,0,0.003,12,1.04,1.09,10.30,66,0.089,8.30
11.8091,-0.02967,0.04887,1.27060,0.00000,0.00000,0.00000,42,2,69,6,35,9,64,30,ok,2,0,0.003,12,1.04,1.09,10.30,66,0.101,8.30
11.8142,-0.02967,0.04887,1.27060,0.00000,0.00000,0.00000,43,2,69,3,37,8,64,31,ok,2,0,0.003,12,1.04,1.09,10.30,66,0.114,8.30
11.8264,-0.02967,0.04887,1.27060,0.00000,0.00000,0.00000,44,2,67,0,37,9,64,33,ok,2,0,0.003,12,1.04,1.09,10.30,66,0.126,8.30
11.8491,-0.02967,0.04887,1.27060,0.00000,0.00000,0.00000,44,2,66,-2,39,8,64,34,ok,2,0,0.003,12,1.04,1.09,10.30,66,0.139,8.30
11.8523,-0.02967,0.04887,1.27060,0.00000,0.00000,0.00000,46,2,64,-3,40,8,63,35,ok,2,0,0.003,12,1.04,1.09,10.30,66,0.152,8.30
11.8653,-0.02967,0.04887,1.27060,0.00000,0.00000,0.00000,46,2,62,-4,41,7,64,36,ok,2,0,0.003,12,1.04,1.09,10.30,66,0.165,8.30
11.8851,-0.02967,0.04887,1.27060,0.00000,0.00000,0.00000,47,3,61,-6,42,7,66,35,ok,2,0,0.003,12,1.04,1.09,10.30,66,0.177,8.30
11.8903,-0.10123,0.06981,1.30027,0.00000,0.00000,0.00000,48,3,60,-8,43,7,67,32,ok,2,0,0.003,12,0.75,-1.30,10.80,67,0.000,8.30
11.9025,-0.10123,0.06981,1.30027,0.00000,0.00000,0.00000,49,3,58,-8,44,7,70,27,ok,2,0,0.003,12,0.75,-1.30,10.80,67,0.013,8.30
11.9251,-0.10123,0.06981,1.30027,0.00000,0.00000,0.00000,50,3,55,-9,44,7,71,24,ok,2,0,0.003,12,0.75,-1.30,10.80,67,0.025,8.30
11.9283,-0.10123,0.06981,1.30027,0.00000,0.00000,0.00000,51,2,53,-9,46,7,73,21,ok,2,0,0.003,12,0.75,-1.30,10.80,67,0.038,8.30
11.9410,-0.10123,0.06981,1.30027,0.00000,0.00000,0.00000,51,4,51,-10,47,7,73,20,ok,2,0,0.003,12,0.75,-1.30,10.80,67,0.051,8.30
11.9611,-0.10123,0.06981,1.30027,0.00000,0.00000,0.00000,52,5,48,-10,47,7,73,18,ok,2,0,0.003,12,0.75,-1.30,10.80,67,0.063,8.30
11.9660,-0.10123,0.06981,1.30027,0.00000,0.00000,0.00000,52,5,46,-10,49,7,73,15,ok,2,0,0.003,12,0.75,-1.30,10.80,67,0.076,8.30
11.9786,-0.10123,0.06981,1.30027,0.00000,0.00000,0.00000,52,5,44,-9,49,7,72,12,ok,2,0,0.003,12,0.75,-1.30,10.80,67,0.088,8.30
12.0011,-0.10123,0.06981,1.30027,0.00000,0.00000,0.00000,53,6,41,-9,50,7,72,11,ok,2,0,0.003,12,0.75,-1.30,10.80,67,0.101,8.30
12.0043,-0.10123,0.06981,1.30027,0.00000,0.00000,0.00000,55,6,39,-10,51,7,71,7,ok,2,0,0.003,12,0.75,-1.30,10.80,67,0.114,8.30
12.0170,-0.10123,0.06981,1.30027,0.00000,0.00000,0.00000,55,6,36,-9,52,6,71,6,ok,2,0,0.003,12,0.75,-1.30,10.80,67,0.127,8.30
12.0371,-0.10123,0.06981,1.30027,0.00000,0.00000,0.00000,56,7,33,-8,52,7,70,4,ok,2,0,0.003,12,0.75,-1.30,10.80,67,0.139,8.30
12.0422,-0.10123,0.06981,1.30027,0.00000,0.00000,0.00000,56,8,30,-7,53,7,68,2,ok,2,0,0.003,12,0.75,-1.30,10.80,67,0.152,8.30
12.0545,-0.10123,0.06981,1.30027,0.00000,0.00000,0.00000,56,8,27,-6,54,8,66,1,ok,2,0,0.003,12,0.75,-1.30,10.80,67,0.164,8.30
12.0771,-0.10123,0.06981,1.30027,0.00000,0.00000,0.00000,57,8,24,-5,55,8,65,0,ok,2,0,0.003,12,0.75,-1.30,10.80,67,0.177,8.30
12.0803,-0.10123,0.06981,1.30027,0.00000,0.00000,0.00000,58,9,20,-2,56,8,64,-2,ok,2,0,0.003,12,0.75,-1.30,10.80,67,0.190,8.30
12.0931,-0.10123,0.06981,1.30027,0.00000,0.00000,0.00000,58,10,18,-1,58,6,62,-3,ok,2,0,0.003,12,0.75,-1.30,10.80,67,0.203,8.30
12.1131,-0.09599,0.05236,1.32820,0.00000,0.00000,0.00000,59,9,18,1,58,7,60,-4,ok,2,0,0.003,12,0.84,-0.46,10.57,68,0.000,8.30
12.1182,-0.09599,0.05236,1.32820,0.00000,0.00000,0.00000,59,10,16,3,59,8,58,-5,ok,2,0,0.003,12,0.84,-0.46,10.57,68,0.012,8.30
12.1304,-0.09599,0.05236,1.32820,0.00000,0.00000,0.00000,59,10,14,6,59,8,55,-5,ok,2,0,0.003,12,0.84,-0.46,10.57,68,0.025,8.30
12.1531,-0.09599,0.05236,1.32820,0.00000,0.00000,0.00000,59,12,12,9,60,9,54,-6,ok,2,0,0.003,12,0.84,-0.46,10.57,68,0.038,8.30
12.1563,-0.09599,0.05236,1.32820,0.00000,0.00000,0.00000,60,12,12,11,60,9,51,-5,ok,2,0,0.003,12,0.84,-0.46,10.57,68,0.051,8.30
12.1690,-0.09599,0.05236,1.32820,0.00000,0.00000,0.00000,60,13,14,12,60,9,48,-5,ok,2,0,0.003,12,0.84,-0.46,10.57,68,0.064,8.30
12.1891,-0.09599,0.05236,1.32820,0.00000,0.00000,0.00000,59,13,15,11,61,10,46,-5,ok,2,0,0.003,12,0.84,-0.46,10.57,68,0.076,8.30
12.1940,-0.09599,0.05236,1.32820,0.00000,0.00000,0.00000,60,14,16,10,61,11,43,-4,ok,2,0,0.003,12,0.84,-0.46,10.57,68,0.089,8.30
12.2066,-0.09599,0.05236,1.32820,0.00000,0.00000,0.00000,60,15,18,9,61,12,41,-4,ok,2,0,0.003,12,0.84,-0.46,10.57,68,0.101,8.30
12.2291,-0.09599,0.05236,1.32820,0.00000,0.00000,0.00000,60,15,19,9,61,12,37,-3,ok,2,0,0.003,12,0.84,-0.46,10.57,68,0.114,8.30
12.2323,-0.09599,0.05236,1.32820,0.00000,0.00000,0.00000,60,16,20,8,62,13,35,-3,ok,2,0,0.003,12,0.84,-0.46,10.57,68,0.127,8.30
12.2452,-0.09599,0.05236,1.32820,0.00000,0.00000,0.00000,60,17,21,7,62,14,31,-1,ok,2,0,0.003,12,0.84,-0.46,10.57,68,0.140,8.30
12.2651,-0.09599,0.05236,1.32820,0.00000,0.00000,0.00000,61,19,22,6,63,14,30,0,ok,2,0,0.003,12,0.84,-0.46,10.57,68,0.152,8.30
