# run_gait log  cmd_fwd=0.100 hz=80.0 fw_balance=off policy_yaw_sign=-1
t,roll,pitch,yaw,gx,gy,gz,j0,j1,j2,j3,j4,j5,j6,j7,guard_state,hottest_j,hottest_tier,hottest_frac,duty_s,ax,ay,az,imu_n,imu_age_s,volt
0.0381,-0.01920,0.01222,0.00000,0.00000,0.00000,0.00000,28,0,57,10,60,-3,54,8,ok,3,0,0.000,0,0.11,-0.20,10.00,2,0.000,nan
0.0430,-0.01920,0.01222,0.00000,0.00000,0.00000,0.00000,25,1,59,10,59,-4,56,6,ok,0,0,0.000,0,0.11,-0.20,10.00,2,0.023,nan
0.0559,-0.01920,0.01222,0.00000,0.00000,0.00000,0.00000,24,4,59,11,56,-5,56,8,ok,4,0,0.000,0,0.11,-0.20,10.00,2,0.035,8.28
0.0781,-0.01920,0.01222,0.00000,0.00000,0.00000,0.00000,23,6,60,12,55,-6,57,8,ok,4,0,0.000,0,0.11,-0.20,10.00,2,0.048,8.28
0.0832,-0.01920,0.01222,0.00000,0.00000,0.00000,0.00000,21,10,59,13,52,-5,57,9,ok,4,0,0.000,0,0.11,-0.20,10.00,2,0.063,8.28
0.0953,-0.01920,0.01222,0.00000,0.00000,0.00000,0.00000,20,12,60,13,50,-5,58,10,ok,4,0,0.000,0,0.11,-0.20,10.00,2,0.075,8.28
0.1181,-0.01920,0.01222,0.00000,0.00000,0.00000,0.00000,21,13,60,14,47,-5,59,11,ok,4,0,0.000,0,0.11,-0.20,10.00,2,0.088,8.28
0.1225,-0.01920,0.01222,0.00000,0.00000,0.00000,0.00000,21,13,60,15,44,-4,59,11,ok,4,0,0.000,0,0.11,-0.20,10.00,2,0.103,8.28
0.1341,-0.01920,0.01222,0.00000,0.00000,0.00000,0.00000,23,12,61,15,42,-4,60,12,ok,4,0,0.000,0,0.11,-0.20,10.00,2,0.115,8.28
0.1540,-0.01920,0.01222,0.00000,0.00000,0.00000,0.00000,24,11,61,16,39,-3,60,12,ok,4,0,0.000,0,0.11,-0.20,10.00,2,0.128,8.28
0.1590,-0.01920,0.01222,0.00000,0.00000,0.00000,0.00000,24,11,61,17,36,-2,61,13,ok,4,0,0.000,0,0.11,-0.20,10.00,2,0.140,8.28
0.1715,-0.01920,0.01222,0.00000,0.00000,0.00000,0.00000,25,9,61,18,32,-1,61,14,ok,4,0,0.000,0,0.11,-0.20,10.00,2,0.153,8.28
0.1980,-0.01920,0.01222,0.00000,0.00000,0.00000,0.00000,25,9,61,19,30,0,62,15,ok,4,0,0.000,0,0.11,-0.20,10.00,2,0.165,8.28
0.2015,-0.02443,-0.09599,-0.01571,0.00000,0.00000,0.00000,28,8,62,20,27,2,62,16,ok,4,0,0.000,0,-0.52,0.04,8.47,3,0.000,8.28
0.2139,-0.02443,-0.09599,-0.01571,0.00000,0.00000,0.00000,28,7,62,21,25,5,63,16,ok,4,0,0.000,0,-0.52,0.04,8.47,3,0.013,8.28
0.2340,-0.02443,-0.09599,-0.01571,0.00000,0.00000,0.00000,29,7,62,21,23,8,64,17,ok,4,0,0.000,0,-0.52,0.04,8.47,3,0.025,8.28
0.2388,-0.02443,-0.09599,-0.01571,0.00000,0.00000,0.00000,30,6,62,22,22,11,64,18,ok,4,0,0.000,0,-0.52,0.04,8.47,3,0.038,8.28
0.2513,-0.02443,-0.09599,-0.01571,0.00000,0.00000,0.00000,31,6,62,23,21,14,65,18,ok,4,0,0.000,0,-0.52,0.04,8.47,3,0.050,8.28
0.2740,-0.02443,-0.09599,-0.01571,0.00000,0.00000,0.00000,32,6,61,26,23,14,65,19,ok,4,0,0.000,0,-0.52,0.04,8.47,3,0.063,8.28
0.2771,-0.02443,-0.09599,-0.01571,0.00000,0.00000,0.00000,33,5,62,28,22,14,65,20,ok,4,0,0.000,0,-0.52,0.04,8.47,3,0.076,8.28
0.2898,-0.02443,-0.09599,-0.01571,0.00000,0.00000,0.00000,34,5,64,26,23,12,65,21,ok,4,0,0.000,0,-0.52,0.04,8.47,3,0.089,8.28
0.3100,-0.02443,-0.09599,-0.01571,0.00000,0.00000,0.00000,35,4,67,23,25,11,65,22,ok,4,0,0.000,0,-0.52,0.04,8.47,3,0.101,8.28
0.3149,-0.02443,-0.09599,-0.01571,0.00000,0.00000,0.00000,36,4,69,19,26,11,66,24,ok,4,0,0.000,0,-0.52,0.04,8.47,3,0.114,8.28
0.3275,-0.02443,-0.09599,-0.01571,0.00000,0.00000,0.00000,37,4,70,16,27,11,65,25,ok,4,0,0.000,0,-0.52,0.04,8.47,3,0.126,8.28
0.3500,-0.02443,-0.09599,-0.01571,0.00000,0.00000,0.00000,39,4,71,14,28,10,65,27,ok,4,0,0.000,0,-0.52,0.04,8.47,3,0.139,8.28
0.3531,-0.02443,-0.09599,-0.01571,0.00000,0.00000,0.00000,40,3,71,13,30,10,65,28,ok,4,0,0.000,0,-0.52,0.04,8.47,3,0.152,8.28
0.3658,-0.02443,-0.09599,-0.01571,0.00000,0.00000,0.00000,41,3,71,10,30,10,64,30,ok,4,0,0.000,0,-0.52,0.04,8.47,3,0.165,8.28
0.3860,-0.02443,-0.09599,-0.01571,0.00000,0.00000,0.00000,42,4,71,7,32,10,64,31,ok,4,0,0.000,0,-0.52,0.04,8.47,3,0.177,8.28
0.3910,-0.02443,-0.09599,-0.01571,0.00000,0.00000,0.00000,43,4,70,4,34,9,65,32,ok,4,0,0.000,0,-0.52,0.04,8.47,3,0.190,8.28
0.4036,-0.11868,0.03665,0.02269,0.00000,0.00000,0.00000,44,3,69,1,35,9,64,33,ok,4,0,0.000,0,0.51,-2.26,10.54,4,0.000,8.28
0.4260,-0.11868,0.03665,0.02269,0.00000,0.00000,0.00000,45,3,68,0,36,8,64,35,ok,4,0,0.000,0,0.51,-2.26,10.54,4,0.013,8.28
0.4291,-0.11868,0.03665,0.02269,0.00000,0.00000,0.00000,47,3,67,-1,37,7,64,36,ok,4,0,0.000,0,0.51,-2.26,10.54,4,0.026,8.28
0.4418,-0.11868,0.03665,0.02269,0.00000,0.00000,0.00000,47,3,65,-2,39,6,65,36,ok,4,0,0.000,0,0.51,-2.26,10.54,4,0.039,8.28
0.4620,-0.11868,0.03665,0.02269,0.00000,0.00000,0.00000,48,3,63,-4,41,6,66,34,ok,4,0,0.000,0,0.51,-2.26,10.54,4,0.051,8.28
0.4668,-0.11868,0.03665,0.02269,0.00000,0.00000,0.00000,48,3,61,-6,42,6,67,32,ok,4,0,0.000,0,0.51,-2.26,10.54,4,0.063,8.28
0.4793,-0.11868,0.03665,0.02269,0.00000,0.00000,0.00000,50,4,59,-7,43,6,70,27,ok,4,0,0.000,0,0.51,-2.26,10.54,4,0.076,8.28
0.5020,-0.11868,0.03665,0.02269,0.00000,0.00000,0.00000,51,3,56,-8,44,6,71,23,ok,4,0,0.000,0,0.51,-2.26,10.54,4,0.089,8.28
0.5051,-0.11868,0.03665,0.02269,0.00000,0.00000,0.00000,52,3,54,-9,46,7,73,20,ok,4,0,0.000,0,0.51,-2.26,10.54,4,0.102,8.28
0.5178,-0.11868,0.03665,0.02269,0.00000,0.00000,0.00000,52,5,51,-10,47,6,73,20,ok,4,0,0.000,0,0.51,-2.26,10.54,4,0.115,8.28
0.5380,-0.11868,0.03665,0.02269,0.00000,0.00000,0.00000,52,5,49,-10,48,7,73,17,ok,4,0,0.000,1,0.51,-2.26,10.54,4,0.127,8.28
0.5428,-0.11868,0.03665,0.02269,0.00000,0.00000,0.00000,53,5,47,-10,49,7,73,14,ok,4,0,0.000,1,0.51,-2.26,10.54,4,0.139,8.28
0.5552,-0.11868,0.03665,0.02269,0.00000,0.00000,0.00000,53,6,45,-10,50,7,73,11,ok,4,0,0.000,1,0.51,-2.26,10.54,4,0.152,8.28
0.5781,-0.11868,0.03665,0.02269,0.00000,0.00000,0.00000,54,7,42,-10,51,7,72,9,ok,4,0,0.000,1,0.51,-2.26,10.54,4,0.165,8.28
0.5816,-0.11868,0.03665,0.02269,0.00000,0.00000,0.00000,56,7,39,-11,52,7,72,6,ok,4,0,0.000,1,0.51,-2.26,10.54,4,0.178,8.28
0.5941,-0.11868,0.03665,0.02269,0.00000,0.00000,0.00000,56,7,37,-10,53,6,72,4,ok,4,0,0.000,1,0.51,-2.26,10.54,4,0.191,8.28
0.6140,-0.04712,-0.02443,0.06109,0.00000,0.00000,0.00000,56,7,33,-9,53,7,71,2,ok,4,0,0.000,1,0.23,-0.51,11.36,5,0.000,8.28
0.6190,-0.04712,-0.02443,0.06109,0.00000,0.00000,0.00000,56,8,31,-8,54,7,69,0,ok,4,0,0.000,1,0.23,-0.51,11.36,5,0.013,8.28
0.6315,-0.04712,-0.02443,0.06109,0.00000,0.00000,0.00000,57,8,27,-7,55,8,66,0,ok,4,0,0.000,1,0.23,-0.51,11.36,5,0.025,8.28
0.6540,-0.04712,-0.02443,0.06109,0.00000,0.00000,0.00000,57,9,24,-5,55,8,65,-2,ok,2,0,0.000,1,0.23,-0.51,11.36,5,0.038,8.28
0.6573,-0.04712,-0.02443,0.06109,0.00000,0.00000,0.00000,58,10,20,-3,56,9,64,-3,ok,2,0,0.000,1,0.23,-0.51,11.36,5,0.051,8.28
0.6698,-0.04712,-0.02443,0.06109,0.00000,0.00000,0.00000,59,11,19,-1,58,7,62,-5,ok,2,0,0.000,1,0.23,-0.51,11.36,5,0.063,8.28
0.6900,-0.04712,-0.02443,0.06109,0.00000,0.00000,0.00000,59,10,18,0,58,8,60,-5,ok,2,0,0.000,1,0.23,-0.51,11.36,5,0.076,8.28
0.6949,-0.04712,-0.02443,0.06109,0.00000,0.00000,0.00000,60,11,16,2,59,9,58,-6,ok,2,0,0.000,1,0.23,-0.51,11.36,5,0.088,8.28
0.7075,-0.04712,-0.02443,0.06109,0.00000,0.00000,0.00000,60,11,15,6,59,9,55,-6,ok,2,0,0.000,1,0.23,-0.51,11.36,5,0.101,8.28
0.7300,-0.04712,-0.02443,0.06109,0.00000,0.00000,0.00000,60,12,13,9,59,10,53,-7,ok,2,0,0.000,1,0.23,-0.51,11.36,5,0.113,8.28
0.7332,-0.04712,-0.02443,0.06109,0.00000,0.00000,0.00000,60,12,12,11,60,10,50,-6,ok,2,0,0.000,1,0.23,-0.51,11.36,5,0.127,8.28
0.7458,-0.04712,-0.02443,0.06109,0.00000,0.00000,0.00000,60,13,14,12,60,10,48,-6,ok,2,0,0.000,1,0.23,-0.51,11.36,5,0.139,8.28
0.7660,-0.04712,-0.02443,0.06109,0.00000,0.00000,0.00000,60,14,15,12,60,11,45,-6,ok,2,0,0.000,1,0.23,-0.51,11.36,5,0.152,8.28
0.7708,-0.04712,-0.02443,0.06109,0.00000,0.00000,0.00000,60,14,16,10,61,11,42,-5,ok,2,0,0.000,1,0.23,-0.51,11.36,5,0.164,8.28
0.7833,-0.04712,-0.02443,0.06109,0.00000,0.00000,0.00000,60,15,19,9,61,12,40,-5,ok,2,0,0.000,1,0.23,-0.51,11.36,5,0.177,8.28
0.8060,-0.04712,-0.02443,0.06109,0.00000,0.00000,0.00000,60,15,19,9,61,13,37,-3,ok,2,0,0.000,1,0.23,-0.51,11.36,5,0.189,8.28
0.8094,-0.04712,-0.02443,0.06109,0.00000,0.00000,0.00000,61,16,21,7,61,13,35,-3,ok,2,0,0.000,1,0.23,-0.51,11.36,5,0.203,8.28
0.8221,-0.02967,0.11170,0.07156,0.00000,0.00000,0.00000,61,17,22,7,62,14,31,-1,ok,2,0,0.000,1,0.63,-1.11,9.23,6,0.000,8.28
0.8420,-0.02967,0.11170,0.07156,0.00000,0.00000,0.00000,62,19,23,6,62,14,29,0,ok,2,0,0.000,1,0.63,-1.11,9.23,6,0.013,8.28
0.8469,-0.02967,0.11170,0.07156,0.00000,0.00000,0.00000,62,20,24,5,62,15,27,1,ok,2,0,0.000,1,0.63,-1.11,9.23,6,0.025,8.28
0.8593,-0.02967,0.11170,0.07156,0.00000,0.00000,0.00000,62,21,24,5,62,16,25,5,ok,2,0,0.000,1,0.63,-1.11,9.23,6,0.038,8.28
0.8820,-0.02967,0.11170,0.07156,0.00000,0.00000,0.00000,62,22,25,4,63,17,24,7,ok,2,0,0.000,1,0.63,-1.11,9.23,6,0.050,8.28
0.8851,-0.02967,0.11170,0.07156,0.00000,0.00000,0.00000,62,23,26,3,64,17,23,11,ok,2,0,0.000,1,0.63,-1.11,9.23,6,0.063,8.28
0.8978,-0.02967,0.11170,0.07156,0.00000,0.00000,0.00000,61,26,27,3,64,18,22,13,ok,2,0,0.000,1,0.63,-1.11,9.23,6,0.076,8.28
0.9180,-0.02967,0.11170,0.07156,0.00000,0.00000,0.00000,61,26,27,2,64,20,24,12,ok,2,0,0.000,1,0.63,-1.11,9.23,6,0.089,8.28
0.9228,-0.02967,0.11170,0.07156,0.00000,0.00000,0.00000,62,25,28,2,64,21,25,11,ok,2,0,0.000,1,0.63,-1.11,9.23,6,0.101,8.28
0.9353,-0.02967,0.11170,0.07156,0.00000,0.00000,0.00000,64,21,29,2,65,22,26,10,ok,2,0,0.000,1,0.63,-1.11,9.23,6,0.114,8.28
0.9580,-0.02967,0.11170,0.07156,0.00000,0.00000,0.00000,65,18,31,1,64,23,27,9,ok,2,0,0.000,1,0.63,-1.11,9.23,6,0.126,8.28
0.9611,-0.02967,0.11170,0.07156,0.00000,0.00000,0.00000,66,13,32,2,64,25,28,10,ok,2,0,0.000,1,0.63,-1.11,9.23,6,0.139,8.28
0.9738,-0.02967,0.11170,0.07156,0.00000,0.00000,0.00000,66,11,33,1,65,25,30,9,ok,2,0,0.000,1,0.63,-1.11,9.23,6,0.152,8.28
0.9940,-0.02967,0.11170,0.07156,0.00000,0.00000,0.00000,66,10,35,1,64,28,31,8,ok,2,0,0.000,1,0.63,-1.11,9.23,6,0.164,8.28
0.9989,-0.02967,0.11170,0.07156,0.00000,0.00000,0.00000,66,7,36,1,64,29,33,8,ok,2,0,0.000,1,0.63,-1.11,9.23,6,0.177,8.28
1.0113,-0.02967,0.11170,0.07156,0.00000,0.00000,0.00000,65,5,38,3,64,30,33,8,ok,2,0,0.000,1,0.63,-1.11,9.23,6,0.190,8.28
1.0340,-0.02967,0.04014,0.16406,0.00000,0.00000,0.00000,65,2,39,3,64,32,35,8,ok,2,0,0.000,1,0.20,-0.22,9.97,7,0.000,8.28
1.0374,-0.02967,0.04014,0.16406,0.00000,0.00000,0.00000,64,-1,41,2,64,34,36,8,ok,2,0,0.000,1,0.20,-0.22,9.97,7,0.013,8.28
1.0498,-0.02967,0.04014,0.16406,0.00000,0.00000,0.00000,63,-3,42,2,64,35,37,8,ok,2,0,0.000,1,0.20,-0.22,9.97,7,0.026,8.28
1.0700,-0.02967,0.04014,0.16406,0.00000,0.00000,0.00000,62,-4,43,2,65,36,39,7,ok,2,0,0.000,1,0.20,-0.22,9.97,7,0.039,8.28
1.0748,-0.02967,0.04014,0.16406,0.00000,0.00000,0.00000,60,-5,44,2,66,35,40,7,ok,2,0,0.000,1,0.20,-0.22,9.97,7,0.051,8.28
1.0873,-0.02967,0.04014,0.16406,0.00000,0.00000,0.00000,60,-6,45,3,67,33,41,6,ok,2,0,0.000,1,0.20,-0.22,9.97,7,0.064,8.28
1.1100,-0.02967,0.04014,0.16406,0.00000,0.00000,0.00000,59,-8,46,3,69,29,42,6,ok,2,0,0.000,1,0.20,-0.22,9.97,7,0.076,8.28
1.1131,-0.02967,0.04014,0.16406,0.00000,0.00000,0.00000,57,-9,48,4,71,24,44,7,ok,2,0,0.000,1,0.20,-0.22,9.97,7,0.089,8.28
1.1259,-0.02967,0.04014,0.16406,0.00000,0.00000,0.00000,55,-10,49,3,73,21,44,7,ok,2,0,0.000,1,0.20,-0.22,9.97,7,0.102,8.28
1.1460,-0.02967,0.04014,0.16406,0.00000,0.00000,0.00000,53,-10,50,3,74,21,45,7,ok,2,0,0.000,1,0.20,-0.22,9.97,7,0.115,8.28
1.1508,-0.02967,0.04014,0.16406,0.00000,0.00000,0.00000,52,-11,50,5,74,18,46,7,ok,2,0,0.000,1,0.20,-0.22,9.97,7,0.127,8.28
1.1632,-0.02967,0.04014,0.16406,0.00000,0.00000,0.00000,49,-11,51,6,74,15,47,8,ok,2,0,0.000,1,0.20,-0.22,9.97,7,0.140,8.28
1.1860,-0.02967,0.04014,0.16406,0.00000,0.00000,0.00000,48,-11,52,6,73,12,48,8,ok,2,0,0.000,1,0.20,-0.22,9.97,7,0.152,8.28
1.1891,-0.02967,0.04014,0.16406,0.00000,0.00000,0.00000,45,-10,53,6,72,10,49,8,ok,2,0,0.000,1,0.20,-0.22,9.97,7,0.165,8.28
1.2020,-0.02967,0.04014,0.16406,0.00000,0.00000,0.00000,43,-11,53,7,72,7,50,8,ok,2,0,0.000,1,0.20,-0.22,9.97,7,0.178,8.28
1.2220,-0.02967,0.04014,0.16406,0.00000,0.00000,0.00000,40,-11,55,7,72,5,50,8,ok,2,0,0.000,1,0.20,-0.22,9.97,7,0.191,8.28
1.2271,0.09425,-0.04363,0.17104,0.00000,0.00000,0.00000,39,-10,56,7,70,4,51,8,ok,2,0,0.000,1,0.17,1.26,10.30,8,0.000,8.28
1.2395,0.09425,-0.04363,0.17104,0.00000,0.00000,0.00000,36,-8,57,6,69,2,52,7,ok,2,0,0.000,1,0.17,1.26,10.30,8,0.013,8.28
1.2620,0.09425,-0.04363,0.17104,0.00000,0.00000,0.00000,34,-7,57,7,67,2,52,8,ok,2,0,0.000,1,0.17,1.26,10.30,8,0.025,8.28
1.2652,0.09425,-0.04363,0.17104,0.00000,0.00000,0.00000,31,-5,58,7,65,0,52,8,ok,2,0,0.000,1,0.17,1.26,10.30,8,0.038,8.28
1.2779,0.09425,-0.04363,0.17104,0.00000,0.00000,0.00000,29,-3,59,7,64,-2,54,8,ok,2,0,0.000,1,0.17,1.26,10.30,8,0.051,8.28
1.2980,0.09425,-0.04363,0.17104,0.00000,0.00000,0.00000,26,-1,60,8,62,-3,55,8,ok,2,0,0.000,1,0.17,1.26,10.30,8,0.064,8.28
1.3028,0.09425,-0.04363,0.17104,0.00000,0.00000,0.00000,26,0,60,10,60,-4,54,8,ok,2,0,0.000,1,0.17,1.26,10.30,8,0.076,8.28
1.3154,0.09425,-0.04363,0.17104,0.00000,0.00000,0.00000,25,1,61,9,58,-5,56,5,ok,2,0,0.000,1,0.17,1.26,10.30,8,0.089,8.28
1.3380,0.09425,-0.04363,0.17104,0.00000,0.00000,0.00000,24,3,61,10,55,-6,57,6,ok,2,0,0.000,1,0.17,1.26,10.30,8,0.101,8.28
1.3411,0.09425,-0.04363,0.17104,0.00000,0.00000,0.00000,22,6,61,10,53,-7,58,7,ok,2,0,0.000,1,0.17,1.26,10.30,8,0.114,8.28
1.3538,0.09425,-0.04363,0.17104,0.00000,0.00000,0.00000,21,10,61,11,50,-6,58,8,ok,2,0,0.000,1,0.17,1.26,10.30,8,0.127,8.28
1.3740,0.09425,-0.04363,0.17104,0.00000,0.00000,0.00000,20,11,62,11,48,-5,59,8,ok,2,0,0.000,1,0.17,1.26,10.30,8,0.140,8.28
1.3788,0.09425,-0.04363,0.17104,0.00000,0.00000,0.00000,21,11,62,12,45,-5,60,9,ok,2,0,0.000,1,0.17,1.26,10.30,8,0.152,8.28
1.3913,0.09425,-0.04363,0.17104,0.00000,0.00000,0.00000,22,11,62,13,42,-4,59,10,ok,4,0,0.000,1,0.17,1.26,10.30,8,0.165,8.28
1.4140,0.09425,-0.04363,0.17104,0.00000,0.00000,0.00000,23,10,63,14,40,-4,60,10,ok,4,0,0.000,1,0.17,1.26,10.30,8,0.177,8.28
1.4171,0.09425,-0.04363,0.17104,0.00000,0.00000,0.00000,24,9,62,14,37,-3,60,11,ok,4,0,0.000,1,0.17,1.26,10.30,8,0.190,8.28
1.4301,0.09425,-0.04363,0.17104,0.00000,0.00000,0.00000,25,9,63,15,34,-3,61,12,ok,4,0,0.000,1,0.17,1.26,10.30,8,0.203,8.28
1.4500,0.00524,0.04887,0.18675,0.00000,0.00000,0.00000,27,8,63,16,31,-1,61,12,ok,4,0,0.000,1,1.95,0.07,9.50,9,0.000,8.28
1.4548,0.00524,0.04887,0.18675,0.00000,0.00000,0.00000,27,7,63,17,29,0,62,13,ok,4,0,0.000,1,1.95,0.07,9.50,9,0.012,8.28
1.4673,0.00524,0.04887,0.18675,0.00000,0.00000,0.00000,28,6,65,19,27,1,62,14,ok,4,0,0.000,1,1.95,0.07,9.50,9,0.025,8.28
1.4900,0.00524,0.04887,0.18675,0.00000,0.00000,0.00000,29,5,64,20,24,5,63,15,ok,4,0,0.000,1,1.95,0.07,9.50,9,0.038,8.28
1.4931,0.00524,0.04887,0.18675,0.00000,0.00000,0.00000,30,4,64,21,23,7,63,16,ok,4,0,0.000,1,1.95,0.07,9.50,9,0.051,8.28
1.5058,0.00524,0.04887,0.18675,0.00000,0.00000,0.00000,31,4,64,22,22,11,63,17,ok,4,0,0.000,1,1.95,0.07,9.50,9,0.063,8.28
1.5260,0.00524,0.04887,0.18675,0.00000,0.00000,0.00000,31,3,64,23,22,14,64,17,ok,4,0,0.000,1,1.95,0.07,9.50,9,0.076,8.28
1.5308,0.00524,0.04887,0.18675,0.00000,0.00000,0.00000,32,2,63,26,24,14,64,18,ok,4,0,0.000,1,1.95,0.07,9.50,9,0.088,8.28
1.5433,0.00524,0.04887,0.18675,0.00000,0.00000,0.00000,32,1,63,28,24,14,64,19,ok,4,0,0.000,1,1.95,0.07,9.50,9,0.101,8.28
1.5660,0.00524,0.04887,0.18675,0.00000,0.00000,0.00000,33,1,64,26,25,12,64,21,ok,4,0,0.000,2,1.95,0.07,9.50,9,0.113,8.28
1.5691,0.00524,0.04887,0.18675,0.00000,0.00000,0.00000,34,1,67,23,26,11,65,21,ok,4,0,0.000,2,1.95,0.07,9.50,9,0.127,8.28
1.5818,0.00524,0.04887,0.18675,0.00000,0.00000,0.00000,36,1,69,19,27,11,65,22,ok,4,0,0.000,2,1.95,0.07,9.50,9,0.139,8.28
1.6020,0.00524,0.04887,0.18675,0.00000,0.00000,0.00000,37,1,70,15,29,10,65,23,ok,4,0,0.000,2,1.95,0.07,9.50,9,0.152,8.28
1.6070,0.00524,0.04887,0.18675,0.00000,0.00000,0.00000,38,1,70,13,30,9,65,25,ok,4,0,0.000,2,1.95,0.07,9.50,9,0.164,8.28
1.6193,0.00524,0.04887,0.18675,0.00000,0.00000,0.00000,40,1,70,12,33,9,65,26,ok,4,0,0.000,2,1.95,0.07,9.50,9,0.177,8.28
1.6420,0.00524,0.04887,0.18675,0.00000,0.00000,0.00000,40,1,70,8,33,9,64,28,ok,4,0,0.000,2,1.95,0.07,9.50,9,0.189,8.28
1.6455,-0.12915,-0.00698,0.20944,0.00000,0.00000,0.00000,42,2,69,5,35,9,64,29,ok,4,0,0.000,2,-0.70,-1.99,9.67,10,0.000,8.28
1.6580,-0.12915,-0.00698,0.20944,0.00000,0.00000,0.00000,43,2,69,3,36,8,65,31,ok,4,0,0.000,2,-0.70,-1.99,9.67,10,0.013,8.28
1.6780,-0.12915,-0.00698,0.20944,0.00000,0.00000,0.00000,44,2,67,0,37,9,65,33,ok,4,0,0.000,2,-0.70,-1.99,9.67,10,0.025,8.28
1.6829,-0.12915,-0.00698,0.20944,0.00000,0.00000,0.00000,45,1,66,-2,38,8,64,34,ok,4,0,0.000,2,-0.70,-1.99,9.67,10,0.038,8.28
1.6953,-0.12915,-0.00698,0.20944,0.00000,0.00000,0.00000,46,2,64,-3,39,8,64,35,ok,4,0,0.000,2,-0.70,-1.99,9.67,10,0.050,8.28
1.7180,-0.12915,-0.00698,0.20944,0.00000,0.00000,0.00000,46,2,62,-4,40,7,65,36,ok,4,0,0.000,2,-0.70,-1.99,9.67,10,0.063,8.28
1.7211,-0.12915,-0.00698,0.20944,0.00000,0.00000,0.00000,47,2,61,-5,42,7,66,35,ok,4,0,0.000,2,-0.70,-1.99,9.67,10,0.076,8.28
1.7338,-0.12915,-0.00698,0.20944,0.00000,0.00000,0.00000,48,2,60,-7,43,7,68,32,ok,4,0,0.000,2,-0.70,-1.99,9.67,10,0.089,8.28
1.7540,-0.12915,-0.00698,0.20944,0.00000,0.00000,0.00000,49,3,58,-7,44,7,70,27,ok,4,0,0.000,2,-0.70,-1.99,9.67,10,0.101,8.28
1.7588,-0.12915,-0.00698,0.20944,0.00000,0.00000,0.00000,50,2,56,-9,45,7,71,24,ok,4,0,0.001,2,-0.70,-1.99,9.67,10,0.114,8.28
1.7713,-0.12915,-0.00698,0.20944,0.00000,0.00000,0.00000,51,3,54,-9,46,7,72,21,ok,4,0,0.001,2,-0.70,-1.99,9.67,10,0.126,8.28
1.7940,-0.12915,-0.00698,0.20944,0.00000,0.00000,0.00000,51,5,51,-10,47,7,73,20,ok,4,0,0.001,2,-0.70,-1.99,9.67,10,0.139,8.28
1.7974,-0.12915,-0.00698,0.20944,0.00000,0.00000,0.00000,52,6,49,-10,47,7,72,18,ok,4,0,0.001,2,-0.70,-1.99,9.67,10,0.152,8.28
1.8099,-0.12915,-0.00698,0.20944,0.00000,0.00000,0.00000,52,6,46,-10,48,7,72,15,ok,4,0,0.001,2,-0.70,-1.99,9.67,10,0.165,8.28
1.8300,-0.12915,-0.00698,0.20944,0.00000,0.00000,0.00000,53,7,44,-10,49,7,72,12,ok,4,0,0.001,2,-0.70,-1.99,9.67,10,0.177,8.28
1.8350,-0.12915,-0.00698,0.20944,0.00000,0.00000,0.00000,53,7,42,-10,49,7,71,11,ok,4,0,0.001,2,-0.70,-1.99,9.67,10,0.190,8.28
1.8476,-0.04014,-0.02793,0.22166,0.00000,0.00000,0.00000,56,7,39,-10,50,7,71,7,ok,4,0,0.001,2,-0.59,-0.50,8.81,11,0.000,8.28
1.8700,-0.04014,-0.02793,0.22166,0.00000,0.00000,0.00000,56,8,37,-10,52,7,70,5,ok,4,0,0.001,2,-0.59,-0.50,8.81,11,0.012,8.28
1.8731,-0.04014,-0.02793,0.22166,0.00000,0.00000,0.00000,56,8,33,-9,52,8,69,4,ok,2,0,0.001,2,-0.59,-0.50,8.81,11,0.026,8.28
1.8858,-0.04014,-0.02793,0.22166,0.00000,0.00000,0.00000,56,9,31,-8,53,8,67,2,ok,2,0,0.001,2,-0.59,-0.50,8.81,11,0.038,8.28
1.9060,-0.04014,-0.02793,0.22166,0.00000,0.00000,0.00000,57,9,28,-7,54,8,66,2,ok,2,0,0.001,2,-0.59,-0.50,8.81,11,0.051,8.28
1.9109,-0.04014,-0.02793,0.22166,0.00000,0.00000,0.00000,57,10,25,-5,55,8,64,0,ok,2,0,0.001,2,-0.59,-0.50,8.81,11,0.063,8.28
1.9233,-0.04014,-0.02793,0.22166,0.00000,0.00000,0.00000,58,11,21,-3,55,8,64,-2,ok,2,0,0.001,2,-0.59,-0.50,8.81,11,0.076,8.28
1.9460,-0.04014,-0.02793,0.22166,0.00000,0.00000,0.00000,59,11,19,-1,57,6,62,-3,ok,2,0,0.001,2,-0.59,-0.50,8.81,11,0.088,8.28
1.9491,-0.04014,-0.02793,0.22166,0.00000,0.00000,0.00000,59,11,19,0,58,7,59,-5,ok,2,0,0.001,2,-0.59,-0.50,8.81,11,0.102,8.28
1.9618,-0.04014,-0.02793,0.22166,0.00000,0.00000,0.00000,60,11,17,2,58,8,58,-5,ok,2,0,0.001,2,-0.59,-0.50,8.81,11,0.114,8.28
1.9820,-0.04014,-0.02793,0.22166,0.00000,0.00000,0.00000,60,11,15,6,59,8,55,-6,ok,2,0,0.001,2,-0.59,-0.50,8.81,11,0.127,8.28
1.9868,-0.04014,-0.02793,0.22166,0.00000,0.00000,0.00000,60,12,13,9,59,9,53,-6,ok,2,0,0.001,2,-0.59,-0.50,8.81,11,0.139,8.28
1.9993,-0.04014,-0.02793,0.22166,0.00000,0.00000,0.00000,60,12,13,11,60,10,50,-6,ok,2,0,0.001,2,-0.59,-0.50,8.81,11,0.152,8.28
2.0220,-0.04014,-0.02793,0.22166,0.00000,0.00000,0.00000,60,13,15,12,60,10,47,-5,ok,2,0,0.001,2,-0.59,-0.50,8.81,11,0.164,8.28
2.0251,-0.04014,-0.02793,0.22166,0.00000,0.00000,0.00000,60,14,16,11,60,11,45,-5,ok,2,0,0.001,2,-0.59,-0.50,8.81,11,0.178,8.28
2.0384,-0.04014,-0.02793,0.22166,0.00000,0.00000,0.00000,60,14,17,10,61,11,42,-4,ok,2,0,0.001,2,-0.59,-0.50,8.81,11,0.190,8.28
2.0580,0.08029,0.02618,0.24958,0.00000,0.00000,0.00000,60,15,19,9,61,12,40,-4,ok,2,0,0.001,2,0.15,0.95,9.40,12,0.000,8.28
2.0628,0.08029,0.02618,0.24958,0.00000,0.00000,0.00000,60,16,20,8,61,13,36,-3,ok,2,0,0.001,2,0.15,0.95,9.40,12,0.012,8.28
2.0753,0.08029,0.02618,0.24958,0.00000,0.00000,0.00000,60,17,21,7,61,14,34,-3,ok,2,0,0.001,2,0.15,0.95,9.40,12,0.025,8.28
2.0980,0.08029,0.02618,0.24958,0.00000,0.00000,0.00000,60,18,22,7,62,15,30,-1,ok,2,0,0.001,2,0.15,0.95,9.40,12,0.038,8.28
2.1013,0.08029,0.02618,0.24958,0.00000,0.00000,0.00000,62,20,23,6,63,15,29,0,ok,2,0,0.001,2,0.15,0.95,9.40,12,0.051,8.28
2.1138,0.08029,0.02618,0.24958,0.00000,0.00000,0.00000,62,21,24,5,63,16,27,1,ok,2,0,0.001,2,0.15,0.95,9.40,12,0.064,8.28
2.1340,0.08029,0.02618,0.24958,0.00000,0.00000,0.00000,62,22,24,4,63,17,25,4,ok,2,0,0.001,2,0.15,0.95,9.40,12,0.076,8.28
2.1388,0.08029,0.02618,0.24958,0.00000,0.00000,0.00000,62,23,25,3,63,17,24,7,ok,2,0,0.001,2,0.15,0.95,9.40,12,0.089,8.28
2.1513,0.08029,0.02618,0.24958,0.00000,0.00000,0.00000,62,24,26,2,64,18,23,10,ok,2,0,0.001,2,0.15,0.95,9.40,12,0.101,8.28
2.1740,0.08029,0.02618,0.24958,0.00000,0.00000,0.00000,61,27,27,2,64,19,22,12,ok,2,0,0.001,2,0.15,0.95,9.40,12,0.114,8.28
2.1771,0.08029,0.02618,0.24958,0.00000,0.00000,0.00000,61,27,28,2,64,20,24,12,ok,2,0,0.001,2,0.15,0.95,9.40,12,0.127,8.28
2.1900,0.08029,0.02618,0.24958,0.00000,0.00000,0.00000,62,26,29,2,64,21,24,11,ok,2,0,0.001,2,0.15,0.95,9.40,12,0.140,8.28
2.2100,0.08029,0.02618,0.24958,0.00000,0.00000,0.00000,64,21,30,2,65,23,25,10,ok,2,0,0.001,2,0.15,0.95,9.40,12,0.152,8.28
2.2148,0.08029,0.02618,0.24958,0.00000,0.00000,0.00000,66,18,31,1,64,24,26,9,ok,2,0,0.001,2,0.15,0.95,9.40,12,0.164,8.28
2.2273,0.08029,0.02618,0.24958,0.00000,0.00000,0.00000,66,13,33,2,64,25,28,10,ok,2,0,0.001,2,0.15,0.95,9.40,12,0.177,8.28
2.2500,0.08029,0.02618,0.24958,0.00000,0.00000,0.00000,67,11,34,2,65,26,29,9,ok,2,0,0.001,2,0.15,0.95,9.40,12,0.190,8.28
2.2534,-0.01571,0.07679,0.30892,0.00000,0.00000,0.00000,66,11,36,2,64,28,30,8,ok,2,0,0.001,2,0.12,-1.12,10.35,13,0.000,8.28
2.2660,-0.01571,0.07679,0.30892,0.00000,0.00000,0.00000,66,7,37,2,63,29,32,8,ok,2,0,0.001,2,0.12,-1.12,10.35,13,0.013,8.28
2.2860,-0.01571,0.07679,0.30892,0.00000,0.00000,0.00000,66,5,39,3,63,30,33,9,ok,2,0,0.001,2,0.12,-1.12,10.35,13,0.025,8.28
2.2908,-0.01571,0.07679,0.30892,0.00000,0.00000,0.00000,65,2,40,3,64,32,35,8,ok,2,0,0.001,2,0.12,-1.12,10.35,13,0.038,8.28
2.3036,-0.01571,0.07679,0.30892,0.00000,0.00000,0.00000,64,-1,42,3,63,34,36,8,ok,2,0,0.001,2,0.12,-1.12,10.35,13,0.050,8.28
2.3260,-0.01571,0.07679,0.30892,0.00000,0.00000,0.00000,64,-3,43,3,63,35,37,8,ok,2,0,0.001,2,0.12,-1.12,10.35,13,0.063,8.28
2.3291,-0.01571,0.07679,0.30892,0.00000,0.00000,0.00000,62,-5,44,3,64,35,38,8,ok,2,0,0.001,2,0.12,-1.12,10.35,13,0.076,8.28
2.3418,-0.01571,0.07679,0.30892,0.00000,0.00000,0.00000,60,-6,44,3,65,35,39,7,ok,2,0,0.001,2,0.12,-1.12,10.35,13,0.089,8.28
2.3620,-0.01571,0.07679,0.30892,0.00000,0.00000,0.00000,60,-7,45,3,67,33,41,7,ok,2,0,0.001,2,0.12,-1.12,10.35,13,0.101,8.28
2.3668,-0.01571,0.07679,0.30892,0.00000,0.00000,0.00000,59,-9,46,3,69,29,42,7,ok,2,0,0.001,2,0.12,-1.12,10.35,13,0.114,8.28
2.3797,-0.01571,0.07679,0.30892,0.00000,0.00000,0.00000,56,-10,48,4,71,24,44,7,ok,2,0,0.001,2,0.12,-1.12,10.35,13,0.126,8.28
2.4020,-0.01571,0.07679,0.30892,0.00000,0.00000,0.00000,55,-11,49,4,72,22,44,7,ok,2,0,0.001,2,0.12,-1.12,10.35,13,0.139,8.28
2.4052,-0.01571,0.07679,0.30892,0.00000,0.00000,0.00000,53,-10,49,4,74,21,45,7,ok,2,0,0.001,2,0.12,-1.12,10.35,13,0.152,8.28
2.4178,-0.01571,0.07679,0.30892,0.00000,0.00000,0.00000,52,-11,49,6,74,18,46,7,ok,2,0,0.001,2,0.12,-1.12,10.35,13,0.165,8.28
2.4380,-0.01571,0.07679,0.30892,0.00000,0.00000,0.00000,49,-11,51,6,74,15,47,8,ok,2,0,0.001,2,0.12,-1.12,10.35,13,0.177,8.28
2.4428,-0.01571,0.07679,0.30892,0.00000,0.00000,0.00000,48,-11,52,6,73,12,48,8,ok,2,0,0.001,2,0.12,-1.12,10.35,13,0.190,8.28
2.4555,0.08378,0.01745,0.29845,0.00000,0.00000,0.00000,45,-10,53,6,73,10,49,8,ok,2,0,0.001,2,-0.29,0.93,9.99,14,0.000,8.28
2.4780,0.08378,0.01745,0.29845,0.00000,0.00000,0.00000,43,-11,53,6,72,7,50,8,ok,2,0,0.001,2,-0.29,0.93,9.99,14,0.012,8.28
2.4811,0.08378,0.01745,0.29845,0.00000,0.00000,0.00000,40,-11,55,6,72,6,50,7,ok,2,0,0.001,2,-0.29,0.93,9.99,14,0.026,8.28
2.4939,0.08378,0.01745,0.29845,0.00000,0.00000,0.00000,39,-10,56,6,71,4,51,8,ok,2,0,0.001,2,-0.29,0.93,9.99,14,0.039,8.28
2.5140,0.08378,0.01745,0.29845,0.00000,0.00000,0.00000,36,-8,57,6,69,2,52,7,ok,2,0,0.001,2,-0.29,0.93,9.99,14,0.051,8.28
2.5188,0.08378,0.01745,0.29845,0.00000,0.00000,0.00000,34,-7,57,7,66,2,52,8,ok,2,0,0.001,2,-0.29,0.93,9.99,14,0.064,8.28
2.5313,0.08378,0.01745,0.29845,0.00000,0.00000,0.00000,32,-5,58,7,65,0,53,8,ok,2,0,0.001,2,-0.29,0.93,9.99,14,0.076,8.28
2.5540,0.08378,0.01745,0.29845,0.00000,0.00000,0.00000,29,-3,58,7,64,-2,54,8,ok,2,0,0.001,2,-0.29,0.93,9.99,14,0.089,8.28
2.5573,0.08378,0.01745,0.29845,0.00000,0.00000,0.00000,26,-1,59,8,62,-4,55,8,ok,2,0,0.001,3,-0.29,0.93,9.99,14,0.102,8.28
2.5699,0.08378,0.01745,0.29845,0.00000,0.00000,0.00000,25,-1,60,10,60,-5,54,7,ok,2,0,0.001,3,-0.29,0.93,9.99,14,0.114,8.28
2.5900,0.08378,0.01745,0.29845,0.00000,0.00000,0.00000,24,0,61,10,58,-5,56,5,ok,2,0,0.001,3,-0.29,0.93,9.99,14,0.127,8.28
2.5948,0.08378,0.01745,0.29845,0.00000,0.00000,0.00000,23,2,61,11,56,-6,57,7,ok,2,0,0.001,3,-0.29,0.93,9.99,14,0.139,8.28
2.6073,0.08378,0.01745,0.29845,0.00000,0.00000,0.00000,22,5,61,11,54,-7,58,7,ok,2,0,0.001,3,-0.29,0.93,9.99,14,0.152,8.28
2.6300,0.08378,0.01745,0.29845,0.00000,0.00000,0.00000,20,8,61,12,51,-6,58,8,ok,2,0,0.001,3,-0.29,0.93,9.99,14,0.165,8.28
2.6331,0.08378,0.01745,0.29845,0.00000,0.00000,0.00000,20,11,62,12,48,-5,59,8,ok,2,0,0.001,3,-0.29,0.93,9.99,14,0.178,8.28
2.6459,0.08378,0.01745,0.29845,0.00000,0.00000,0.00000,21,11,62,13,45,-5,60,9,ok,2,0,0.001,3,-0.29,0.93,9.99,14,0.191,8.28
2.6660,0.08378,0.01745,0.29845,0.00000,0.00000,0.00000,21,11,61,13,42,-5,60,10,ok,2,0,0.001,3,-0.29,0.93,9.99,14,0.203,8.28
2.6711,0.01571,0.01745,0.34383,0.00000,0.00000,0.00000,23,9,62,14,40,-4,60,10,ok,2,0,0.001,3,1.24,-0.29,11.29,15,0.000,8.28
2.6833,0.01571,0.01745,0.34383,0.00000,0.00000,0.00000,24,9,62,15,37,-4,61,11,ok,2,0,0.001,3,1.24,-0.29,11.29,15,0.013,8.28
2.7060,0.01571,0.01745,0.34383,0.00000,0.00000,0.00000,24,8,63,15,34,-3,61,12,ok,4,0,0.001,3,1.24,-0.29,11.29,15,0.025,8.28
2.7091,0.01571,0.01745,0.34383,0.00000,0.00000,0.00000,26,7,63,16,31,-2,62,13,ok,4,0,0.001,3,1.24,-0.29,11.29,15,0.038,8.28
2.7218,0.01571,0.01745,0.34383,0.00000,0.00000,0.00000,27,7,63,17,29,0,62,14,ok,4,0,0.001,3,1.24,-0.29,11.29,15,0.051,8.28
2.7420,0.01571,0.01745,0.34383,0.00000,0.00000,0.00000,28,5,64,18,27,2,63,14,ok,4,0,0.001,3,1.24,-0.29,11.29,15,0.063,8.28
2.7470,0.01571,0.01745,0.34383,0.00000,0.00000,0.00000,28,4,64,19,25,5,64,15,ok,4,0,0.001,3,1.24,-0.29,11.29,15,0.076,8.28
2.7593,0.01571,0.01745,0.34383,0.00000,0.00000,0.00000,29,4,64,21,24,8,63,16,ok,4,0,0.001,3,1.24,-0.29,11.29,15,0.089,8.28
2.7820,0.01571,0.01745,0.34383,0.00000,0.00000,0.00000,30,3,64,22,23,11,63,17,ok,4,0,0.001,3,1.24,-0.29,11.29,15,0.101,8.28
2.7851,0.01571,0.01745,0.34383,0.00000,0.00000,0.00000,31,3,64,23,22,14,64,18,ok,4,0,0.001,3,1.24,-0.29,11.29,15,0.114,8.28
2.7980,0.01571,0.01745,0.34383,0.00000,0.00000,0.00000,32,3,63,26,24,14,64,18,ok,4,0,0.001,3,1.24,-0.29,11.29,15,0.127,8.28
2.8180,0.01571,0.01745,0.34383,0.00000,0.00000,0.00000,32,2,63,27,24,14,64,19,ok,4,0,0.001,3,1.24,-0.29,11.29,15,0.140,8.28
2.8229,0.01571,0.01745,0.34383,0.00000,0.00000,0.00000,34,2,65,26,25,11,64,20,ok,4,0,0.001,3,1.24,-0.29,11.29,15,0.152,8.28
2.8353,0.01571,0.01745,0.34383,0.00000,0.00000,0.00000,35,2,67,22,26,11,65,21,ok,4,0,0.001,3,1.24,-0.29,11.29,15,0.164,8.28
2.8580,0.01571,0.01745,0.34383,0.00000,0.00000,0.00000,36,1,70,19,27,11,65,22,ok,4,0,0.001,3,1.24,-0.29,11.29,15,0.177,8.28
2.8611,0.01571,0.01745,0.34383,0.00000,0.00000,0.00000,37,1,70,15,29,10,64,23,ok,4,0,0.001,3,1.24,-0.29,11.29,15,0.190,8.28
2.8741,-0.03491,0.01745,0.36652,0.00000,0.00000,0.00000,38,1,71,12,30,9,64,25,ok,4,0,0.001,3,-1.04,-0.40,9.39,16,0.000,8.28
2.8940,-0.03491,0.01745,0.36652,0.00000,0.00000,0.00000,40,1,70,12,32,9,65,26,ok,4,0,0.001,3,-1.04,-0.40,9.39,16,0.013,8.28
2.8988,-0.03491,0.01745,0.36652,0.00000,0.00000,0.00000,40,1,71,9,32,9,64,28,ok,4,0,0.001,3,-1.04,-0.40,9.39,16,0.025,8.28
2.9113,-0.03491,0.01745,0.36652,0.00000,0.00000,0.00000,42,2,70,6,35,9,64,30,ok,4,0,0.001,3,-1.04,-0.40,9.39,16,0.038,8.28
2.9340,-0.03491,0.01745,0.36652,0.00000,0.00000,0.00000,43,2,69,3,36,8,64,31,ok,4,0,0.001,3,-1.04,-0.40,9.39,16,0.050,8.28
2.9373,-0.03491,0.01745,0.36652,0.00000,0.00000,0.00000,44,2,67,1,37,9,64,32,ok,4,0,0.001,3,-1.04,-0.40,9.39,16,0.063,8.28
2.9498,-0.03491,0.01745,0.36652,0.00000,0.00000,0.00000,45,2,66,-1,38,8,64,34,ok,4,0,0.001,3,-1.04,-0.40,9.39,16,0.076,8.28
2.9700,-0.03491,0.01745,0.36652,0.00000,0.00000,0.00000,46,2,65,-3,39,8,63,35,ok,4,0,0.001,3,-1.04,-0.40,9.39,16,0.089,8.28
2.9748,-0.03491,0.01745,0.36652,0.00000,0.00000,0.00000,46,2,62,-4,40,7,64,35,ok,4,0,0.001,3,-1.04,-0.40,9.39,16,0.101,8.28
2.9873,-0.03491,0.01745,0.36652,0.00000,0.00000,0.00000,47,2,61,-5,42,7,66,35,ok,4,0,0.001,3,-1.04,-0.40,9.39,16,0.114,8.28
3.0101,-0.03491,0.01745,0.36652,0.00000,0.00000,0.00000,48,3,60,-8,43,7,67,32,ok,4,0,0.001,3,-1.04,-0.40,9.39,16,0.126,8.28
3.0133,-0.03491,0.01745,0.36652,0.00000,0.00000,0.00000,49,3,58,-8,44,7,69,27,ok,4,0,0.001,3,-1.04,-0.40,9.39,16,0.140,8.28
3.0262,-0.03491,0.01745,0.36652,0.00000,0.00000,0.00000,50,3,56,-9,44,7,71,23,ok,4,0,0.001,3,-1.04,-0.40,9.39,16,0.152,8.28
3.0460,-0.03491,0.01745,0.36652,0.00000,0.00000,0.00000,51,3,54,-9,46,7,72,21,ok,4,0,0.001,3,-1.04,-0.40,9.39,16,0.165,8.28
3.0510,-0.03491,0.01745,0.36652,0.00000,0.00000,0.00000,51,5,51,-10,47,7,72,20,ok,4,0,0.001,3,-1.04,-0.40,9.39,16,0.177,8.28
3.0637,-0.03491,0.01745,0.36652,0.00000,0.00000,0.00000,52,6,49,-10,47,7,73,18,ok,2,0,0.001,3,-1.04,-0.40,9.39,16,0.190,8.28
3.0860,-0.08552,0.02094,0.45553,0.00000,0.00000,0.00000,52,5,46,-10,48,7,73,14,ok,2,0,0.001,3,-0.39,-1.17,10.80,17,0.000,8.28
3.0892,-0.08552,0.02094,0.45553,0.00000,0.00000,0.00000,52,6,44,-9,49,7,72,12,ok,2,0,0.001,3,-0.39,-1.17,10.80,17,0.013,8.28
3.1020,-0.08552,0.02094,0.45553,0.00000,0.00000,0.00000,53,7,42,-10,49,7,72,10,ok,2,0,0.001,3,-0.39,-1.17,10.80,17,0.026,8.28
3.1220,-0.08552,0.02094,0.45553,0.00000,0.00000,0.00000,55,7,39,-10,50,7,71,7,ok,2,0,0.001,3,-0.39,-1.17,10.80,17,0.038,8.28
3.1268,-0.08552,0.02094,0.45553,0.00000,0.00000,0.00000,55,7,37,-9,51,7,71,5,ok,2,0,0.001,3,-0.39,-1.17,10.80,17,0.051,8.28
3.1393,-0.08552,0.02094,0.45553,0.00000,0.00000,0.00000,56,7,33,-8,52,7,70,4,ok,2,0,0.001,3,-0.39,-1.17,10.80,17,0.063,8.28
3.1620,-0.08552,0.02094,0.45553,0.00000,0.00000,0.00000,56,8,30,-7,52,8,68,2,ok,2,0,0.001,3,-0.39,-1.17,10.80,17,0.076,8.28
3.1652,-0.08552,0.02094,0.45553,0.00000,0.00000,0.00000,56,8,27,-6,53,8,66,1,ok,2,0,0.001,3,-0.39,-1.17,10.80,17,0.089,8.28
3.1780,-0.08552,0.02094,0.45553,0.00000,0.00000,0.00000,57,8,24,-4,54,8,65,0,ok,2,0,0.001,3,-0.39,-1.17,10.80,17,0.102,8.28
3.1980,-0.08552,0.02094,0.45553,0.00000,0.00000,0.00000,58,9,21,-2,55,8,64,-2,ok,2,0,0.001,3,-0.39,-1.17,10.80,17,0.114,8.28
3.2028,-0.08552,0.02094,0.45553,0.00000,0.00000,0.00000,58,10,19,-1,58,6,62,-3,ok,2,0,0.001,3,-0.39,-1.17,10.80,17,0.127,8.28
3.2153,-0.08552,0.02094,0.45553,0.00000,0.00000,0.00000,59,9,18,1,58,7,60,-5,ok,2,0,0.001,3,-0.39,-1.17,10.80,17,0.139,8.28
3.2380,-0.08552,0.02094,0.45553,0.00000,0.00000,0.00000,59,10,16,3,58,8,58,-5,ok,2,0,0.001,3,-0.39,-1.17,10.80,17,0.152,8.28
3.2411,-0.08552,0.02094,0.45553,0.00000,0.00000,0.00000,59,11,15,6,59,8,55,-6,ok,2,0,0.001,3,-0.39,-1.17,10.80,17,0.165,8.28
3.2541,-0.08552,0.02094,0.45553,0.00000,0.00000,0.00000,59,12,13,9,59,9,54,-6,ok,2,0,0.001,3,-0.39,-1.17,10.80,17,0.178,8.28
3.2740,-0.08552,0.02094,0.45553,0.00000,0.00000,0.00000,60,12,13,12,60,10,50,-5,ok,2,0,0.001,3,-0.39,-1.17,10.80,17,0.190,8.28
3.2790,0.03316,0.03665,0.43982,0.00000,0.00000,0.00000,60,13,14,12,60,10,48,-5,ok,2,0,0.001,3,0.39,1.04,10.55,18,0.000,8.28
3.2913,0.03316,0.03665,0.43982,0.00000,0.00000,0.00000,59,14,15,11,61,11,45,-5,ok,2,0,0.001,3,0.39,1.04,10.55,18,0.013,8.28
3.3140,0.03316,0.03665,0.43982,0.00000,0.00000,0.00000,60,14,16,10,61,11,42,-4,ok,2,0,0.001,3,0.39,1.04,10.55,18,0.025,8.28
3.3171,0.03316,0.03665,0.43982,0.00000,0.00000,0.00000,60,15,19,9,61,12,40,-5,ok,2,0,0.001,3,0.39,1.04,10.55,18,0.038,8.28
3.3298,0.03316,0.03665,0.43982,0.00000,0.00000,0.00000,60,16,19,8,62,13,37,-3,ok,2,0,0.001,3,0.39,1.04,10.55,18,0.051,8.28
3.3500,0.03316,0.03665,0.43982,0.00000,0.00000,0.00000,60,17,21,7,62,13,34,-3,ok,2,0,0.001,3,0.39,1.04,10.55,18,0.064,8.28
3.3548,0.03316,0.03665,0.43982,0.00000,0.00000,0.00000,60,18,21,7,62,14,30,-1,ok,2,0,0.001,3,0.39,1.04,10.55,18,0.076,8.28
3.3672,0.03316,0.03665,0.43982,0.00000,0.00000,0.00000,61,20,23,5,63,14,30,0,ok,2,0,0.001,3,0.39,1.04,10.55,18,0.089,8.28
3.3900,0.03316,0.03665,0.43982,0.00000,0.00000,0.00000,61,21,24,4,63,15,27,1,ok,2,0,0.001,3,0.39,1.04,10.55,18,0.101,8.28
3.3931,0.03316,0.03665,0.43982,0.00000,0.00000,0.00000,62,22,24,4,63,16,25,4,ok,2,0,0.001,3,0.39,1.04,10.55,18,0.114,8.28
3.4058,0.03316,0.03665,0.43982,0.00000,0.00000,0.00000,62,23,25,4,63,17,24,7,ok,2,0,0.001,3,0.39,1.04,10.55,18,0.127,8.28
3.4260,0.03316,0.03665,0.43982,0.00000,0.00000,0.00000,62,23,26,3,64,18,23,10,ok,2,0,0.001,3,0.39,1.04,10.55,18,0.140,8.28
3.4309,0.03316,0.03665,0.43982,0.00000,0.00000,0.00000,61,26,27,3,64,19,22,12,ok,2,0,0.001,3,0.39,1.04,10.55,18,0.152,8.28
3.4433,0.03316,0.03665,0.43982,0.00000,0.00000,0.00000,61,26,28,2,64,20,24,12,ok,2,0,0.001,3,0.39,1.04,10.55,18,0.165,8.28
3.4660,0.03316,0.03665,0.43982,0.00000,0.00000,0.00000,62,25,29,2,64,21,25,11,ok,2,0,0.001,3,0.39,1.04,10.55,18,0.177,8.28
3.4694,-0.01047,0.05585,0.49393,0.00000,0.00000,0.00000,64,21,30,2,65,22,25,10,ok,2,0,0.001,3,1.30,-2.32,10.17,19,0.000,8.28
3.4819,-0.01047,0.05585,0.49393,0.00000,0.00000,0.00000,66,18,31,1,64,23,27,9,ok,2,0,0.001,3,1.30,-2.32,10.17,19,0.013,8.28
3.5020,-0.01047,0.05585,0.49393,0.00000,0.00000,0.00000,66,13,33,2,64,25,28,10,ok,2,0,0.001,3,1.30,-2.32,10.17,19,0.025,8.28
3.5069,-0.01047,0.05585,0.49393,0.00000,0.00000,0.00000,67,11,34,2,65,26,29,9,ok,2,0,0.001,3,1.30,-2.32,10.17,19,0.038,8.28
3.5193,-0.01047,0.05585,0.49393,0.00000,0.00000,0.00000,66,10,36,2,63,28,30,8,ok,2,0,0.001,3,1.30,-2.32,10.17,19,0.050,8.28
3.5420,-0.01047,0.05585,0.49393,0.00000,0.00000,0.00000,66,7,37,2,64,29,32,8,ok,2,0,0.001,3,1.30,-2.32,10.17,19,0.063,8.28
3.5452,-0.01047,0.05585,0.49393,0.00000,0.00000,0.00000,65,4,39,3,64,30,33,9,ok,2,0,0.001,3,1.30,-2.32,10.17,19,0.076,8.28
3.5578,-0.01047,0.05585,0.49393,0.00000,0.00000,0.00000,65,2,40,3,64,32,35,8,ok,2,0,0.001,3,1.30,-2.32,10.17,19,0.089,8.28
3.5780,-0.01047,0.05585,0.49393,0.00000,0.00000,0.00000,64,-1,41,3,64,34,36,8,ok,2,0,0.001,4,1.30,-2.32,10.17,19,0.101,8.28
3.5828,-0.01047,0.05585,0.49393,0.00000,0.00000,0.00000,64,-3,43,2,64,35,37,8,ok,2,0,0.001,4,1.30,-2.32,10.17,19,0.114,8.28
3.5953,-0.01047,0.05585,0.49393,0.00000,0.00000,0.00000,62,-4,44,3,64,36,38,8,ok,2,0,0.001,4,1.30,-2.32,10.17,19,0.126,8.28
3.6180,-0.01047,0.05585,0.49393,0.00000,0.00000,0.00000,60,-5,44,3,65,35,39,8,ok,2,0,0.001,4,1.30,-2.32,10.17,19,0.139,8.28
3.6214,-0.01047,0.05585,0.49393,0.00000,0.00000,0.00000,60,-6,45,3,67,33,41,7,ok,2,0,0.001,4,1.30,-2.32,10.17,19,0.152,8.28
3.6340,-0.01047,0.05585,0.49393,0.00000,0.00000,0.00000,59,-8,46,3,69,29,42,7,ok,2,0,0.001,4,1.30,-2.32,10.17,19,0.165,8.28
3.6540,-0.01047,0.05585,0.49393,0.00000,0.00000,0.00000,57,-9,48,4,71,24,43,7,ok,2,0,0.001,4,1.30,-2.32,10.17,19,0.177,8.28
3.6589,-0.01047,0.05585,0.49393,0.00000,0.00000,0.00000,55,-10,49,4,73,22,44,7,ok,2,0,0.001,4,1.30,-2.32,10.17,19,0.190,8.28
3.6716,0.03840,0.05236,0.49916,0.00000,0.00000,0.00000,53,-10,49,4,74,21,45,7,ok,2,0,0.001,4,1.06,-0.14,10.67,20,0.000,8.28
3.6940,0.03840,0.05236,0.49916,0.00000,0.00000,0.00000,52,-11,50,5,74,19,46,7,ok,2,0,0.001,4,1.06,-0.14,10.67,20,0.013,8.28
3.6973,0.03840,0.05236,0.49916,0.00000,0.00000,0.00000,49,-11,51,6,74,15,47,7,ok,2,0,0.001,4,1.06,-0.14,10.67,20,0.026,8.28
3.7099,0.03840,0.05236,0.49916,0.00000,0.00000,0.00000,47,-11,52,6,73,12,48,7,ok,2,0,0.001,4,1.06,-0.14,10.67,20,0.038,8.28
3.7300,0.03840,0.05236,0.49916,0.00000,0.00000,0.00000,45,-10,53,6,73,10,49,8,ok,2,0,0.001,4,1.06,-0.14,10.67,20,0.051,8.28
3.7349,0.03840,0.05236,0.49916,0.00000,0.00000,0.00000,43,-10,53,7,72,7,49,8,ok,2,0,0.001,4,1.06,-0.14,10.67,20,0.063,8.28
3.7475,0.03840,0.05236,0.49916,0.00000,0.00000,0.00000,40,-11,55,7,72,5,50,7,ok,2,0,0.001,4,1.06,-0.14,10.67,20,0.076,8.28
3.7700,0.03840,0.05236,0.49916,0.00000,0.00000,0.00000,39,-10,56,7,71,4,51,8,ok,2,0,0.001,4,1.06,-0.14,10.67,20,0.088,8.28
3.7731,0.03840,0.05236,0.49916,0.00000,0.00000,0.00000,36,-8,57,7,69,1,52,7,ok,2,0,0.001,4,1.06,-0.14,10.67,20,0.102,8.28
3.7860,0.03840,0.05236,0.49916,0.00000,0.00000,0.00000,34,-7,57,8,66,2,52,8,ok,2,0,0.001,4,1.06,-0.14,10.67,20,0.114,8.28
3.8060,0.03840,0.05236,0.49916,0.00000,0.00000,0.00000,31,-6,57,7,65,-1,53,8,ok,2,0,0.001,4,1.06,-0.14,10.67,20,0.127,8.28
3.8109,0.03840,0.05236,0.49916,0.00000,0.00000,0.00000,28,-4,58,8,63,-2,54,8,ok,2,0,0.001,4,1.06,-0.14,10.67,20,0.139,8.28
3.8233,0.03840,0.05236,0.49916,0.00000,0.00000,0.00000,26,-2,59,9,61,-4,55,8,ok,2,0,0.001,4,1.06,-0.14,10.67,20,0.152,8.28
3.8460,0.03840,0.05236,0.49916,0.00000,0.00000,0.00000,25,-2,60,11,60,-5,55,8,ok,2,0,0.001,4,1.06,-0.14,10.67,20,0.164,8.28
3.8492,0.03840,0.05236,0.49916,0.00000,0.00000,0.00000,24,-1,60,10,58,-5,57,6,ok,2,0,0.001,4,1.06,-0.14,10.67,20,0.178,8.28
3.8621,0.03840,0.05236,0.49916,0.00000,0.00000,0.00000,23,2,61,11,55,-6,57,7,ok,2,0,0.001,4,1.06,-0.14,10.67,20,0.190,8.28
3.8820,0.03840,0.00698,0.53407,0.00000,0.00000,0.00000,21,5,61,11,54,-7,58,7,ok,2,0,0.001,4,-0.34,-0.43,9.64,21,0.000,8.28
3.8868,0.03840,0.00698,0.53407,0.00000,0.00000,0.00000,20,8,61,12,51,-6,59,8,ok,2,0,0.001,4,-0.34,-0.43,9.64,21,0.012,8.28
3.8993,0.03840,0.00698,0.53407,0.00000,0.00000,0.00000,20,10,61,12,48,-5,59,8,ok,2,0,0.001,4,-0.34,-0.43,9.64,21,0.025,8.28
3.9220,0.03840,0.00698,0.53407,0.00000,0.00000,0.00000,20,11,62,13,46,-5,60,9,ok,2,0,0.001,4,-0.34,-0.43,9.64,21,0.038,8.28
3.9251,0.03840,0.00698,0.53407,0.00000,0.00000,0.00000,21,11,61,13,43,-5,60,10,ok,2,0,0.001,4,-0.34,-0.43,9.64,21,0.051,8.28
3.9379,0.03840,0.00698,0.53407,0.00000,0.00000,0.00000,22,9,62,14,40,-4,61,11,ok,2,0,0.001,4,-0.34,-0.43,9.64,21,0.063,8.28
3.9580,0.03840,0.00698,0.53407,0.00000,0.00000,0.00000,24,9,62,14,37,-3,61,11,ok,2,0,0.001,4,-0.34,-0.43,9.64,21,0.076,8.28
3.9628,0.03840,0.00698,0.53407,0.00000,0.00000,0.00000,24,8,62,15,34,-3,61,12,ok,2,0,0.001,4,-0.34,-0.43,9.64,21,0.088,8.28
3.9755,0.03840,0.00698,0.53407,0.00000,0.00000,0.00000,26,7,63,15,31,-1,61,13,ok,2,0,0.001,4,-0.34,-0.43,9.64,21,0.101,8.28
3.9980,0.03840,0.00698,0.53407,0.00000,0.00000,0.00000,26,7,63,17,29,0,62,14,ok,2,0,0.001,4,-0.34,-0.43,9.64,21,0.113,8.28
4.0011,0.03840,0.00698,0.53407,0.00000,0.00000,0.00000,28,6,64,18,28,2,62,14,ok,2,0,0.001,4,-0.34,-0.43,9.64,21,0.127,8.28
4.0139,0.03840,0.00698,0.53407,0.00000,0.00000,0.00000,29,5,64,19,25,5,63,15,ok,4,0,0.001,4,-0.34,-0.43,9.64,21,0.139,8.28
4.0340,0.03840,0.00698,0.53407,0.00000,0.00000,0.00000,30,5,64,20,24,8,63,16,ok,4,0,0.001,4,-0.34,-0.43,9.64,21,0.152,8.28
4.0388,0.03840,0.00698,0.53407,0.00000,0.00000,0.00000,31,4,64,22,23,11,63,17,ok,4,0,0.001,4,-0.34,-0.43,9.64,21,0.164,8.28
4.0513,0.03840,0.00698,0.53407,0.00000,0.00000,0.00000,32,4,64,23,22,14,64,17,ok,4,0,0.001,4,-0.34,-0.43,9.64,21,0.177,8.28
4.0740,0.03840,0.00698,0.53407,0.00000,0.00000,0.00000,32,3,63,25,24,14,64,18,ok,4,0,0.001,4,-0.34,-0.43,9.64,21,0.190,8.28
4.0774,0.03840,0.00698,0.53407,0.00000,0.00000,0.00000,33,2,63,27,24,14,64,19,ok,4,0,0.001,4,-0.34,-0.43,9.64,21,0.203,8.28
4.0901,-0.01047,0.08029,0.50091,0.00000,0.00000,0.00000,34,2,65,25,25,12,64,20,ok,4,0,0.001,4,1.01,0.51,10.45,22,0.000,8.28
4.1100,-0.01047,0.08029,0.50091,0.00000,0.00000,0.00000,35,2,67,23,26,11,65,21,ok,4,0,0.001,4,1.01,0.51,10.45,22,0.012,8.28
4.1150,-0.01047,0.08029,0.50091,0.00000,0.00000,0.00000,36,1,70,19,27,11,65,22,ok,2,0,0.001,4,1.01,0.51,10.45,22,0.025,8.28
4.1273,-0.01047,0.08029,0.50091,0.00000,0.00000,0.00000,37,1,70,15,28,10,64,23,ok,2,0,0.001,4,1.01,0.51,10.45,22,0.038,8.28
4.1500,-0.01047,0.08029,0.50091,0.00000,0.00000,0.00000,38,1,71,13,30,9,64,25,ok,2,0,0.001,4,1.01,0.51,10.45,22,0.050,8.28
4.1532,-0.01047,0.08029,0.50091,0.00000,0.00000,0.00000,40,1,70,12,32,9,65,26,ok,2,0,0.001,4,1.01,0.51,10.45,22,0.063,8.28
4.1660,-0.01047,0.08029,0.50091,0.00000,0.00000,0.00000,40,1,70,9,33,9,64,28,ok,4,0,0.001,4,1.01,0.51,10.45,22,0.076,8.28
4.1860,-0.01047,0.08029,0.50091,0.00000,0.00000,0.00000,41,2,69,6,35,9,64,30,ok,4,0,0.001,4,1.01,0.51,10.45,22,0.089,8.28
4.1908,-0.01047,0.08029,0.50091,0.00000,0.00000,0.00000,42,2,68,3,36,9,64,31,ok,4,0,0.001,4,1.01,0.51,10.45,22,0.101,8.28
4.2033,-0.01047,0.08029,0.50091,0.00000,0.00000,0.00000,44,1,67,1,37,9,64,33,ok,4,0,0.001,4,1.01,0.51,10.45,22,0.114,8.28
4.2260,-0.01047,0.08029,0.50091,0.00000,0.00000,0.00000,44,1,66,-1,38,8,64,34,ok,4,0,0.001,4,1.01,0.51,10.45,22,0.126,8.28
4.2292,-0.01047,0.08029,0.50091,0.00000,0.00000,0.00000,45,2,64,-3,39,8,64,35,ok,2,0,0.001,4,1.01,0.51,10.45,22,0.139,8.28
4.2419,-0.01047,0.08029,0.50091,0.00000,0.00000,0.00000,45,2,62,-4,41,7,65,35,ok,2,0,0.001,4,1.01,0.51,10.45,22,0.152,8.28
4.2620,-0.01047,0.08029,0.50091,0.00000,0.00000,0.00000,47,2,61,-6,42,7,66,34,ok,2,0,0.001,4,1.01,0.51,10.45,22,0.165,8.28
4.2671,-0.01047,0.08029,0.50091,0.00000,0.00000,0.00000,48,2,60,-8,43,7,68,32,ok,2,0,0.001,4,1.01,0.51,10.45,22,0.177,8.28
4.2794,-0.01047,0.08029,0.50091,0.00000,0.00000,0.00000,48,3,58,-8,44,7,70,27,ok,2,0,0.001,4,1.01,0.51,10.45,22,0.190,8.28
4.3020,-0.11694,0.03665,0.57247,0.00000,0.00000,0.00000,49,3,55,-9,45,7,71,23,ok,2,0,0.001,4,-0.28,-0.84,11.29,23,0.000,8.28
4.3051,-0.11694,0.03665,0.57247,0.00000,0.00000,0.00000,50,2,53,-9,46,7,73,20,ok,2,0,0.001,4,-0.28,-0.84,11.29,23,0.013,8.28
4.3181,-0.11694,0.03665,0.57247,0.00000,0.00000,0.00000,50,4,51,-10,47,7,73,20,ok,2,0,0.001,4,-0.28,-0.84,11.29,23,0.026,8.28
4.3380,-0.11694,0.03665,0.57247,0.00000,0.00000,0.00000,52,5,49,-10,47,7,73,18,ok,2,0,0.001,4,-0.28,-0.84,11.29,23,0.038,8.28
4.3428,-0.11694,0.03665,0.57247,0.00000,0.00000,0.00000,52,4,46,-10,48,7,73,14,ok,2,0,0.001,4,-0.28,-0.84,11.29,23,0.051,8.28
4.3555,-0.11694,0.03665,0.57247,0.00000,0.00000,0.00000,52,5,44,-9,49,7,73,12,ok,2,0,0.001,4,-0.28,-0.84,11.29,23,0.063,8.28
4.3780,-0.11694,0.03665,0.57247,0.00000,0.00000,0.00000,52,6,41,-9,50,7,72,10,ok,2,0,0.001,4,-0.28,-0.84,11.29,23,0.076,8.28
4.3811,-0.11694,0.03665,0.57247,0.00000,0.00000,0.00000,55,6,39,-10,51,7,71,7,ok,2,0,0.001,4,-0.28,-0.84,11.29,23,0.089,8.28
4.3939,-0.11694,0.03665,0.57247,0.00000,0.00000,0.00000,55,6,36,-9,52,7,71,5,ok,2,0,0.001,4,-0.28,-0.84,11.29,23,0.102,8.28
4.4140,-0.11694,0.03665,0.57247,0.00000,0.00000,0.00000,56,6,33,-8,52,7,70,4,ok,2,0,0.001,4,-0.28,-0.84,11.29,23,0.114,8.28
4.4188,-0.11694,0.03665,0.57247,0.00000,0.00000,0.00000,56,7,30,-7,53,8,68,2,ok,2,0,0.001,4,-0.28,-0.84,11.29,23,0.127,8.28
4.4315,-0.11694,0.03665,0.57247,0.00000,0.00000,0.00000,56,8,27,-6,54,8,66,1,ok,2,0,0.001,4,-0.28,-0.84,11.29,23,0.139,8.28
4.4540,-0.11694,0.03665,0.57247,0.00000,0.00000,0.00000,57,9,24,-4,54,8,65,0,ok,2,0,0.001,4,-0.28,-0.84,11.29,23,0.152,8.28
4.4571,-0.11694,0.03665,0.57247,0.00000,0.00000,0.00000,58,10,20,-2,55,8,64,-2,ok,2,0,0.001,4,-0.28,-0.84,11.29,23,0.165,8.28
4.4698,-0.11694,0.03665,0.57247,0.00000,0.00000,0.00000,58,10,19,-1,58,6,62,-3,ok,2,0,0.001,4,-0.28,-0.84,11.29,23,0.178,8.28
4.4900,-0.11694,0.03665,0.57247,0.00000,0.00000,0.00000,59,10,18,1,58,7,60,-5,ok,2,0,0.001,4,-0.28,-0.84,11.29,23,0.190,8.28
4.4951,-0.05236,0.03665,0.56374,0.00000,0.00000,0.00000,59,10,16,3,58,8,58,-5,ok,2,0,0.001,4,0.62,-0.30,9.88,24,0.000,8.28
4.5073,-0.05236,0.03665,0.56374,0.00000,0.00000,0.00000,59,11,15,6,59,9,55,-6,ok,2,0,0.001,4,0.62,-0.30,9.88,24,0.013,8.28
4.5300,-0.05236,0.03665,0.56374,0.00000,0.00000,0.00000,59,12,13,9,60,9,53,-6,ok,2,0,0.001,4,0.62,-0.30,9.88,24,0.025,8.28
4.5332,-0.05236,0.03665,0.56374,0.00000,0.00000,0.00000,60,12,12,11,60,10,50,-5,ok,2,0,0.001,4,0.62,-0.30,9.88,24,0.038,8.28
4.5458,-0.05236,0.03665,0.56374,0.00000,0.00000,0.00000,60,13,14,12,60,10,48,-5,ok,2,0,0.001,4,0.62,-0.30,9.88,24,0.051,8.28
4.5660,-0.05236,0.03665,0.56374,0.00000,0.00000,0.00000,59,14,15,11,61,11,46,-5,ok,2,0,0.001,4,0.62,-0.30,9.88,24,0.064,8.28
4.5710,-0.05236,0.03665,0.56374,0.00000,0.00000,0.00000,60,14,16,10,61,11,42,-4,ok,2,0,0.001,4,0.62,-0.30,9.88,24,0.076,8.28
4.5833,-0.05236,0.03665,0.56374,0.00000,0.00000,0.00000,60,15,18,9,61,12,41,-4,ok,2,0,0.001,5,0.62,-0.30,9.88,24,0.089,8.28
4.6060,-0.05236,0.03665,0.56374,0.00000,0.00000,0.00000,60,16,19,8,61,12,37,-3,ok,2,0,0.001,5,0.62,-0.30,9.88,24,0.101,8.28
4.6093,-0.05236,0.03665,0.56374,0.00000,0.00000,0.00000,60,17,21,7,61,13,35,-3,ok,2,0,0.001,5,0.62,-0.30,9.88,24,0.114,8.28
4.6219,-0.05236,0.03665,0.56374,0.00000,0.00000,0.00000,60,18,21,7,62,14,31,-1,ok,2,0,0.001,5,0.62,-0.30,9.88,24,0.127,8.28
4.6420,-0.05236,0.03665,0.56374,0.00000,0.00000,0.00000,61,19,23,6,63,14,30,0,ok,2,0,0.001,5,0.62,-0.30,9.88,24,0.140,8.28
4.6469,-0.05236,0.03665,0.56374,0.00000,0.00000,0.00000,61,20,24,5,63,15,28,1,ok,2,0,0.001,5,0.62,-0.30,9.88,24,0.152,8.28
4.6601,-0.05236,0.03665,0.56374,0.00000,0.00000,0.00000,62,21,24,5,63,16,26,5,ok,2,0,0.001,5,0.62,-0.30,9.88,24,0.165,8.28
4.6820,-0.05236,0.03665,0.56374,0.00000,0.00000,0.00000,62,22,25,4,63,17,24,7,ok,2,0,0.001,5,0.62,-0.30,9.88,24,0.177,8.28
4.6852,-0.05236,0.03665,0.56374,0.00000,0.00000,0.00000,62,23,26,3,64,17,23,11,ok,2,0,0.001,5,0.62,-0.30,9.88,24,0.190,8.28
4.6981,-0.05236,0.03665,0.56374,0.00000,0.00000,0.00000,61,26,27,3,64,19,23,13,ok,2,0,0.001,5,0.62,-0.30,9.88,24,0.203,8.28
4.7180,-0.08727,0.09076,0.60737,0.00000,0.00000,0.00000,61,26,28,2,64,20,25,12,ok,2,0,0.001,5,1.24,-1.31,9.56,25,0.000,8.28
4.7229,-0.08727,0.09076,0.60737,0.00000,0.00000,0.00000,62,25,29,2,64,21,25,12,ok,2,0,0.001,5,1.24,-1.31,9.56,25,0.012,8.28
4.7355,-0.08727,0.09076,0.60737,0.00000,0.00000,0.00000,64,22,30,2,64,22,26,10,ok,2,0,0.001,5,1.24,-1.31,9.56,25,0.025,8.28
4.7580,-0.08727,0.09076,0.60737,0.00000,0.00000,0.00000,66,18,31,2,64,23,27,9,ok,2,0,0.001,5,1.24,-1.31,9.56,25,0.037,8.28
4.7611,-0.08727,0.09076,0.60737,0.00000,0.00000,0.00000,66,13,32,2,64,24,28,10,ok,2,0,0.001,5,1.24,-1.31,9.56,25,0.051,8.28
4.7738,-0.08727,0.09076,0.60737,0.00000,0.00000,0.00000,66,11,33,2,65,25,29,9,ok,2,0,0.001,5,1.24,-1.31,9.56,25,0.063,8.28
4.7940,-0.08727,0.09076,0.60737,0.00000,0.00000,0.00000,66,10,35,2,64,27,30,9,ok,2,0,0.001,5,1.24,-1.31,9.56,25,0.076,8.28
4.7990,-0.08727,0.09076,0.60737,0.00000,0.00000,0.00000,66,7,36,2,64,29,33,9,ok,2,0,0.001,5,1.24,-1.31,9.56,25,0.088,8.28
4.8113,-0.08727,0.09076,0.60737,0.00000,0.00000,0.00000,65,4,38,3,64,30,33,9,ok,2,0,0.001,5,1.24,-1.31,9.56,25,0.101,8.28
4.8340,-0.08727,0.09076,0.60737,0.00000,0.00000,0.00000,65,2,39,3,64,32,35,9,ok,2,0,0.001,5,1.24,-1.31,9.56,25,0.113,8.28
4.8371,-0.08727,0.09076,0.60737,0.00000,0.00000,0.00000,64,-1,41,3,64,34,36,9,ok,2,0,0.001,5,1.24,-1.31,9.56,25,0.127,8.28
4.8501,-0.08727,0.09076,0.60737,0.00000,0.00000,0.00000,63,-3,42,2,64,35,37,9,ok,2,0,0.001,5,1.24,-1.31,9.56,25,0.139,8.28
4.8700,-0.08727,0.09076,0.60737,0.00000,0.00000,0.00000,62,-4,43,3,64,35,38,8,ok,2,0,0.001,5,1.24,-1.31,9.56,25,0.152,8.28
4.8748,-0.08727,0.09076,0.60737,0.00000,0.00000,0.00000,60,-5,44,3,66,35,39,8,ok,2,0,0.001,5,1.24,-1.31,9.56,25,0.164,8.28
4.8873,-0.08727,0.09076,0.60737,0.00000,0.00000,0.00000,60,-6,45,3,68,33,41,7,ok,2,0,0.001,5,1.24,-1.31,9.56,25,0.177,8.28
4.9100,-0.08727,0.09076,0.60737,0.00000,0.00000,0.00000,59,-8,46,3,70,28,42,7,ok,2,0,0.001,5,1.24,-1.31,9.56,25,0.189,8.28
4.9134,0.05411,0.04887,0.62308,0.00000,0.00000,0.00000,56,-9,47,4,71,24,44,7,ok,2,0,0.001,5,0.45,0.83,11.68,26,0.000,8.28
4.9261,0.05411,0.04887,0.62308,0.00000,0.00000,0.00000,55,-10,49,3,73,22,44,7,ok,2,0,0.001,5,0.45,0.83,11.68,26,0.013,8.28
4.9460,0.05411,0.04887,0.62308,0.00000,0.00000,0.00000,53,-10,49,3,74,21,45,7,ok,2,0,0.001,5,0.45,0.83,11.68,26,0.025,8.28
4.9508,0.05411,0.04887,0.62308,0.00000,0.00000,0.00000,51,-11,49,5,74,19,46,7,ok,2,0,0.001,5,0.45,0.83,11.68,26,0.038,8.28
4.9635,0.05411,0.04887,0.62308,0.00000,0.00000,0.00000,49,-10,51,6,74,15,47,8,ok,2,0,0.001,5,0.45,0.83,11.68,26,0.050,8.28
4.9860,0.05411,0.04887,0.62308,0.00000,0.00000,0.00000,47,-10,52,5,74,12,48,8,ok,2,0,0.001,5,0.45,0.83,11.68,26,0.063,8.28
4.9891,0.05411,0.04887,0.62308,0.00000,0.00000,0.00000,45,-9,53,5,73,10,49,8,ok,2,0,0.001,5,0.45,0.83,11.68,26,0.076,8.28
5.0018,0.05411,0.04887,0.62308,0.00000,0.00000,0.00000,43,-10,53,6,72,7,49,8,ok,2,0,0.001,5,0.45,0.83,11.68,26,0.089,8.28
5.0220,0.05411,0.04887,0.62308,0.00000,0.00000,0.00000,40,-10,55,6,72,5,50,7,ok,2,0,0.001,5,0.45,0.83,11.68,26,0.101,8.28
5.0340,0.05411,0.04887,0.62308,0.00000,0.00000,0.00000,39,-9,56,6,71,4,51,8,ok,2,0,0.001,5,0.45,0.83,11.68,26,0.114,8.28
5.0393,0.05411,0.04887,0.62308,0.00000,0.00000,0.00000,36,-8,57,7,69,1,52,7,ok,2,0,0.001,5,0.45,0.83,11.68,26,0.126,8.28
5.0620,0.05411,0.04887,0.62308,0.00000,0.00000,0.00000,34,-7,57,8,66,2,52,8,ok,2,0,0.001,5,0.45,0.83,11.68,26,0.139,8.28
5.0652,0.05411,0.04887,0.62308,0.00000,0.00000,0.00000,31,-6,57,8,65,-1,53,8,ok,2,0,0.001,5,0.45,0.83,11.68,26,0.152,8.28
5.0779,0.05411,0.04887,0.62308,0.00000,0.00000,0.00000,28,-4,58,8,64,-2,54,8,ok,2,0,0.001,5,0.45,0.83,11.68,26,0.165,8.28
5.0980,0.05411,0.04887,0.62308,0.00000,0.00000,0.00000,26,-2,59,9,61,-4,55,8,ok,2,0,0.001,5,0.45,0.83,11.68,26,0.177,8.28
5.1029,0.05411,0.04887,0.62308,0.00000,0.00000,0.00000,25,-2,60,11,60,-5,55,8,ok,2,0,0.001,5,0.45,0.83,11.68,26,0.190,8.28
5.1156,0.06981,0.00873,0.65624,0.00000,0.00000,0.00000,24,-1,60,10,59,-5,57,6,ok,2,0,0.001,5,0.54,-0.00,10.21,27,0.000,8.28
5.1380,0.06981,0.00873,0.65624,0.00000,0.00000,0.00000,23,1,61,11,56,-6,57,7,ok,2,0,0.001,5,0.54,-0.00,10.21,27,0.012,8.28
5.1411,0.06981,0.00873,0.65624,0.00000,0.00000,0.00000,21,5,61,11,54,-7,58,8,ok,2,0,0.001,5,0.54,-0.00,10.21,27,0.026,8.28
5.1539,0.06981,0.00873,0.65624,0.00000,0.00000,0.00000,20,8,61,12,51,-6,59,8,ok,2,0,0.001,5,0.54,-0.00,10.21,27,0.038,8.28
5.1740,0.06981,0.00873,0.65624,0.00000,0.00000,0.00000,20,10,61,12,48,-5,59,8,ok,2,0,0.001,5,0.54,-0.00,10.21,27,0.051,8.28
5.1788,0.06981,0.00873,0.65624,0.00000,0.00000,0.00000,21,11,62,13,46,-5,60,9,ok,2,0,0.001,5,0.54,-0.00,10.21,27,0.063,8.28
5.1913,0.06981,0.00873,0.65624,0.00000,0.00000,0.00000,21,11,61,13,43,-5,60,10,ok,2,0,0.001,5,0.54,-0.00,10.21,27,0.076,8.28
5.2140,0.06981,0.00873,0.65624,0.00000,0.00000,0.00000,23,10,62,14,40,-4,61,11,ok,2,0,0.001,5,0.54,-0.00,10.21,27,0.088,8.28
5.2171,0.06981,0.00873,0.65624,0.00000,0.00000,0.00000,24,9,62,14,37,-4,61,11,ok,2,0,0.001,5,0.54,-0.00,10.21,27,0.102,8.28
5.2298,0.06981,0.00873,0.65624,0.00000,0.00000,0.00000,24,8,63,15,35,-3,61,12,ok,2,0,0.001,5,0.54,-0.00,10.21,27,0.114,8.28
5.2500,0.06981,0.00873,0.65624,0.00000,0.00000,0.00000,26,7,63,15,31,-1,61,13,ok,2,0,0.001,5,0.54,-0.00,10.21,27,0.127,8.28
5.2548,0.06981,0.00873,0.65624,0.00000,0.00000,0.00000,27,7,63,17,29,0,62,14,ok,2,0,0.001,5,0.54,-0.00,10.21,27,0.139,8.28
5.2673,0.06981,0.00873,0.65624,0.00000,0.00000,0.00000,28,6,64,18,28,2,62,14,ok,2,0,0.001,5,0.54,-0.00,10.21,27,0.152,8.28
5.2900,0.06981,0.00873,0.65624,0.00000,0.00000,0.00000,29,5,64,19,25,5,63,15,ok,2,0,0.001,5,0.54,-0.00,10.21,27,0.164,8.28
5.2931,0.06981,0.00873,0.65624,0.00000,0.00000,0.00000,30,4,64,20,24,8,63,16,ok,2,0,0.001,5,0.54,-0.00,10.21,27,0.178,8.28
5.3059,0.06981,0.00873,0.65624,0.00000,0.00000,0.00000,31,4,64,21,23,11,63,17,ok,2,0,0.001,5,0.54,-0.00,10.21,27,0.190,8.28
5.3260,0.03665,0.10996,0.62832,0.00000,0.00000,0.00000,32,4,64,23,22,14,64,17,ok,2,0,0.001,5,0.00,0.97,9.03,28,0.000,8.28
5.3310,0.03665,0.10996,0.62832,0.00000,0.00000,0.00000,32,3,63,26,24,13,64,18,ok,2,0,0.001,5,0.00,0.97,9.03,28,0.012,8.28
5.3433,0.03665,0.10996,0.62832,0.00000,0.00000,0.00000,33,2,63,27,24,13,64,19,ok,2,0,0.001,5,0.00,0.97,9.03,28,0.025,8.28
5.3660,0.03665,0.10996,0.62832,0.00000,0.00000,0.00000,34,2,64,26,25,11,64,20,ok,2,0,0.001,5,0.00,0.97,9.03,28,0.037,8.28
5.3691,0.03665,0.10996,0.62832,0.00000,0.00000,0.00000,35,1,67,23,26,10,64,21,ok,2,0,0.001,5,0.00,0.97,9.03,28,0.051,8.28
5.3819,0.03665,0.10996,0.62832,0.00000,0.00000,0.00000,36,1,69,19,27,10,65,22,ok,2,0,0.001,5,0.00,0.97,9.03,28,0.064,8.28
5.4020,0.03665,0.10996,0.62832,0.00000,0.00000,0.00000,36,1,70,15,29,10,64,23,ok,2,0,0.001,5,0.00,0.97,9.03,28,0.076,8.28
5.4070,0.03665,0.10996,0.62832,0.00000,0.00000,0.00000,37,0,70,13,30,9,64,25,ok,2,0,0.001,5,0.00,0.97,9.03,28,0.089,8.28
5.4193,0.03665,0.10996,0.62832,0.00000,0.00000,0.00000,39,1,70,12,33,9,65,26,ok,2,0,0.001,5,0.00,0.97,9.03,28,0.101,8.28
5.4420,0.03665,0.10996,0.62832,0.00000,0.00000,0.00000,40,1,70,9,33,9,64,28,ok,2,0,0.001,5,0.00,0.97,9.03,28,0.114,8.28
5.4451,0.03665,0.10996,0.62832,0.00000,0.00000,0.00000,41,1,69,6,35,9,64,30,ok,2,0,0.001,5,0.00,0.97,9.03,28,0.127,8.28
5.4580,0.03665,0.10996,0.62832,0.00000,0.00000,0.00000,42,2,68,3,36,8,64,31,ok,2,0,0.001,5,0.00,0.97,9.03,28,0.139,8.28
5.4780,0.03665,0.10996,0.62832,0.00000,0.00000,0.00000,44,2,67,0,37,9,64,32,ok,2,0,0.001,5,0.00,0.97,9.03,28,0.152,8.28
5.4829,0.03665,0.10996,0.62832,0.00000,0.00000,0.00000,44,1,66,-2,39,8,64,34,ok,2,0,0.001,5,0.00,0.97,9.03,28,0.164,8.28
5.4953,0.03665,0.10996,0.62832,0.00000,0.00000,0.00000,45,2,64,-3,40,8,64,35,ok,2,0,0.001,5,0.00,0.97,9.03,28,0.177,8.28
5.5180,0.03665,0.10996,0.62832,0.00000,0.00000,0.00000,45,2,62,-4,41,7,65,35,ok,2,0,0.001,5,0.00,0.97,9.03,28,0.189,8.28
5.5213,0.03665,0.10996,0.62832,0.00000,0.00000,0.00000,47,2,60,-6,42,7,66,34,ok,2,0,0.001,5,0.00,0.97,9.03,28,0.203,8.28
5.5341,-0.13439,0.04363,0.69639,0.00000,0.00000,0.00000,48,2,60,-8,43,7,68,32,ok,2,0,0.001,5,-0.19,-1.18,8.31,29,0.000,8.28
5.5540,-0.13439,0.04363,0.69639,0.00000,0.00000,0.00000,49,2,57,-8,44,7,70,27,ok,2,0,0.001,5,-0.19,-1.18,8.31,29,0.013,8.28
5.5588,-0.13439,0.04363,0.69639,0.00000,0.00000,0.00000,50,2,55,-9,45,7,72,23,ok,2,0,0.001,5,-0.19,-1.18,8.31,29,0.025,8.28
5.5713,-0.13439,0.04363,0.69639,0.00000,0.00000,0.00000,50,2,53,-9,46,7,73,20,ok,2,0,0.001,5,-0.19,-1.18,8.31,29,0.038,8.28
5.5940,-0.13439,0.04363,0.69639,0.00000,0.00000,0.00000,50,4,51,-10,46,7,74,20,ok,2,0,0.001,5,-0.19,-1.18,8.31,29,0.050,8.28
5.5973,-0.13439,0.04363,0.69639,0.00000,0.00000,0.00000,51,4,48,-10,47,7,74,18,ok,2,0,0.001,6,-0.19,-1.18,8.31,29,0.063,8.28
5.6099,-0.13439,0.04363,0.69639,0.00000,0.00000,0.00000,52,4,46,-9,48,7,74,15,ok,2,0,0.001,6,-0.19,-1.18,8.31,29,0.076,8.28
5.6300,-0.13439,0.04363,0.69639,0.00000,0.00000,0.00000,52,4,44,-9,49,8,73,12,ok,2,0,0.001,6,-0.19,-1.18,8.31,29,0.089,8.28
5.6348,-0.13439,0.04363,0.69639,0.00000,0.00000,0.00000,52,5,41,-9,50,7,72,11,ok,2,0,0.001,6,-0.19,-1.18,8.31,29,0.101,8.28
5.6475,-0.13439,0.04363,0.69639,0.00000,0.00000,0.00000,55,6,39,-10,51,8,71,7,ok,2,0,0.002,6,-0.19,-1.18,8.31,29,0.114,8.28
5.6700,-0.13439,0.04363,0.69639,0.00000,0.00000,0.00000,55,6,36,-9,52,7,71,6,ok,2,0,0.002,6,-0.19,-1.18,8.31,29,0.126,8.28
5.6731,-0.13439,0.04363,0.69639,0.00000,0.00000,0.00000,56,7,33,-8,52,7,70,4,ok,2,0,0.002,6,-0.19,-1.18,8.31,29,0.139,8.28
5.6859,-0.13439,0.04363,0.69639,0.00000,0.00000,0.00000,56,8,30,-7,53,7,68,2,ok,2,0,0.002,6,-0.19,-1.18,8.31,29,0.152,8.28
5.7060,-0.13439,0.04363,0.69639,0.00000,0.00000,0.00000,56,8,27,-6,54,8,66,2,ok,2,0,0.002,6,-0.19,-1.18,8.31,29,0.165,8.28
5.7109,-0.13439,0.04363,0.69639,0.00000,0.00000,0.00000,57,9,24,-4,55,8,65,0,ok,2,0,0.002,6,-0.19,-1.18,8.31,29,0.177,8.28
5.7233,-0.13439,0.04363,0.69639,0.00000,0.00000,0.00000,58,10,20,-2,55,8,64,-2,ok,2,0,0.002,6,-0.19,-1.18,8.31,29,0.190,8.28
5.7460,-0.04887,0.01745,0.69464,0.00000,0.00000,0.00000,58,10,19,-1,58,6,62,-3,ok,2,0,0.002,6,0.59,0.19,10.51,30,0.000,8.28
5.7491,-0.04887,0.01745,0.69464,0.00000,0.00000,0.00000,59,10,18,0,58,8,60,-5,ok,2,0,0.002,6,0.59,0.19,10.51,30,0.013,8.28
5.7618,-0.04887,0.01745,0.69464,0.00000,0.00000,0.00000,59,11,16,3,59,8,58,-5,ok,2,0,0.002,6,0.59,0.19,10.51,30,0.026,8.28
5.7820,-0.04887,0.01745,0.69464,0.00000,0.00000,0.00000,59,11,14,5,59,9,55,-6,ok,2,0,0.002,6,0.59,0.19,10.51,30,0.038,8.28
5.7869,-0.04887,0.01745,0.69464,0.00000,0.00000,0.00000,59,12,13,9,60,9,53,-6,ok,2,0,0.002,6,0.59,0.19,10.51,30,0.051,8.28
5.7993,-0.04887,0.01745,0.69464,0.00000,0.00000,0.00000,60,12,12,11,60,10,50,-5,ok,2,0,0.002,6,0.59,0.19,10.51,30,0.064,8.28
5.8220,-0.04887,0.01745,0.69464,0.00000,0.00000,0.00000,60,14,14,11,60,10,48,-5,ok,2,0,0.002,6,0.59,0.19,10.51,30,0.076,8.28
5.8254,-0.04887,0.01745,0.69464,0.00000,0.00000,0.00000,60,14,15,11,61,11,46,-5,ok,2,0,0.002,6,0.59,0.19,10.51,30,0.089,8.28
5.8378,-0.04887,0.01745,0.69464,0.00000,0.00000,0.00000,60,14,17,10,61,11,43,-4,ok,2,0,0.002,6,0.59,0.19,10.51,30,0.102,8.28
5.8580,-0.04887,0.01745,0.69464,0.00000,0.00000,0.00000,60,15,19,9,61,12,41,-4,ok,2,0,0.002,6,0.59,0.19,10.51,30,0.114,8.28
5.8628,-0.04887,0.01745,0.69464,0.00000,0.00000,0.00000,60,16,19,8,61,12,37,-3,ok,2,0,0.002,6,0.59,0.19,10.51,30,0.127,8.28
5.8753,-0.04887,0.01745,0.69464,0.00000,0.00000,0.00000,60,17,21,7,62,13,35,-3,ok,2,0,0.002,6,0.59,0.19,10.51,30,0.139,8.28
5.8980,-0.04887,0.01745,0.69464,0.00000,0.00000,0.00000,60,17,21,7,62,14,31,-1,ok,2,0,0.002,6,0.59,0.19,10.51,30,0.152,8.28
5.9014,-0.04887,0.01745,0.69464,0.00000,0.00000,0.00000,62,19,23,6,63,14,30,0,ok,2,0,0.002,6,0.59,0.19,10.51,30,0.165,8.28
5.9139,-0.04887,0.01745,0.69464,0.00000,0.00000,0.00000,62,20,24,5,63,15,27,2,ok,2,0,0.002,6,0.59,0.19,10.51,30,0.178,8.28
5.9340,-0.04887,0.01745,0.69464,0.00000,0.00000,0.00000,62,21,24,5,63,16,25,5,ok,2,0,0.002,6,0.59,0.19,10.51,30,0.191,8.28
5.9391,0.02443,0.12043,0.72257,0.00000,0.00000,0.00000,62,22,25,4,63,17,24,7,ok,2,0,0.002,6,-0.01,-1.31,9.70,31,0.000,8.28
5.9513,0.02443,0.12043,0.72257,0.00000,0.00000,0.00000,62,23,26,3,64,18,23,11,ok,2,0,0.002,6,-0.01,-1.31,9.70,31,0.013,8.28
5.9740,0.02443,0.12043,0.72257,0.00000,0.00000,0.00000,61,26,27,3,64,19,22,13,ok,2,0,0.002,6,-0.01,-1.31,9.70,31,0.025,8.28
5.9773,0.02443,0.12043,0.72257,0.00000,0.00000,0.00000,61,27,27,2,64,20,24,12,ok,2,0,0.002,6,-0.01,-1.31,9.70,31,0.038,8.28
5.9898,0.02443,0.12043,0.72257,0.00000,0.00000,0.00000,62,25,28,2,64,21,24,12,ok,2,0,0.002,6,-0.01,-1.31,9.70,31,0.051,8.28
6.0100,0.02443,0.12043,0.72257,0.00000,0.00000,0.00000,64,22,29,2,65,22,25,10,ok,2,0,0.002,6,-0.01,-1.31,9.70,31,0.063,8.28
6.0148,0.02443,0.12043,0.72257,0.00000,0.00000,0.00000,65,18,30,1,64,23,26,9,ok,2,0,0.002,6,-0.01,-1.31,9.70,31,0.076,8.28
6.0272,0.02443,0.12043,0.72257,0.00000,0.00000,0.00000,66,13,32,2,64,25,28,10,ok,2,0,0.002,6,-0.01,-1.31,9.70,31,0.088,8.28
6.0500,0.02443,0.12043,0.72257,0.00000,0.00000,0.00000,66,11,33,2,65,26,29,9,ok,2,0,0.002,6,-0.01,-1.31,9.70,31,0.101,8.28
6.0533,0.02443,0.12043,0.72257,0.00000,0.00000,0.00000,66,11,35,2,64,28,30,9,ok,2,0,0.002,6,-0.01,-1.31,9.70,31,0.114,8.28
6.0659,0.02443,0.12043,0.72257,0.00000,0.00000,0.00000,66,7,36,2,64,29,32,9,ok,2,0,0.002,6,-0.01,-1.31,9.70,31,0.127,8.28
6.0860,0.02443,0.12043,0.72257,0.00000,0.00000,0.00000,65,4,38,3,64,30,33,9,ok,2,0,0.002,6,-0.01,-1.31,9.70,31,0.139,8.28
6.0909,0.02443,0.12043,0.72257,0.00000,0.00000,0.00000,64,1,39,3,64,32,35,8,ok,2,0,0.002,6,-0.01,-1.31,9.70,31,0.152,8.28
6.1035,0.02443,0.12043,0.72257,0.00000,0.00000,0.00000,64,-1,41,3,64,34,36,8,ok,2,0,0.002,6,-0.01,-1.31,9.70,31,0.164,8.28
6.1260,0.02443,0.12043,0.72257,0.00000,0.00000,0.00000,63,-3,42,2,64,35,37,8,ok,2,0,0.002,6,-0.01,-1.31,9.70,31,0.177,8.28
6.1291,0.02443,0.12043,0.72257,0.00000,0.00000,0.00000,62,-4,43,3,65,36,38,7,ok,2,0,0.002,6,-0.01,-1.31,9.70,31,0.190,8.28
6.1421,0.04538,0.04014,0.76969,0.00000,0.00000,0.00000,60,-5,44,3,66,35,39,7,ok,2,0,0.002,6,0.94,1.60,9.49,32,0.000,8.28
6.1620,0.04538,0.04014,0.76969,0.00000,0.00000,0.00000,59,-7,45,3,68,33,41,7,ok,2,0,0.002,6,0.94,1.60,9.49,32,0.013,8.28
6.1668,0.04538,0.04014,0.76969,0.00000,0.00000,0.00000,58,-9,46,3,70,29,42,7,ok,2,0,0.002,6,0.94,1.60,9.49,32,0.025,8.28
6.1793,0.04538,0.04014,0.76969,0.00000,0.00000,0.00000,56,-9,47,4,72,25,44,7,ok,2,0,0.002,6,0.94,1.60,9.49,32,0.038,8.28
6.2020,0.04538,0.04014,0.76969,0.00000,0.00000,0.00000,55,-10,49,3,73,22,44,7,ok,2,0,0.002,6,0.94,1.60,9.49,32,0.050,8.28
6.2053,0.04538,0.04014,0.76969,0.00000,0.00000,0.00000,53,-11,49,3,74,21,45,7,ok,2,0,0.002,6,0.94,1.60,9.49,32,0.063,8.28
6.2179,0.04538,0.04014,0.76969,0.00000,0.00000,0.00000,52,-11,49,5,74,19,46,7,ok,2,0,0.002,6,0.94,1.60,9.49,32,0.076,8.28
6.2380,0.04538,0.04014,0.76969,0.00000,0.00000,0.00000,49,-11,51,6,74,15,47,7,ok,2,0,0.002,6,0.94,1.60,9.49,32,0.089,8.28
6.2428,0.04538,0.04014,0.76969,0.00000,0.00000,0.00000,48,-11,52,6,73,12,48,7,ok,2,0,0.002,6,0.94,1.60,9.49,32,0.101,8.28
6.2555,0.04538,0.04014,0.76969,0.00000,0.00000,0.00000,45,-10,53,6,73,10,49,7,ok,2,0,0.002,6,0.94,1.60,9.49,32,0.114,8.28
6.2780,0.04538,0.04014,0.76969,0.00000,0.00000,0.00000,43,-11,53,7,72,7,49,8,ok,2,0,0.002,6,0.94,1.60,9.49,32,0.126,8.28
6.2811,0.04538,0.04014,0.76969,0.00000,0.00000,0.00000,40,-11,55,7,71,5,50,8,ok,2,0,0.002,6,0.94,1.60,9.49,32,0.139,8.28
6.2938,0.04538,0.04014,0.76969,0.00000,0.00000,0.00000,39,-10,56,7,70,4,51,8,ok,2,0,0.002,6,0.94,1.60,9.49,32,0.152,8.28
6.3140,0.04538,0.04014,0.76969,0.00000,0.00000,0.00000,36,-9,57,7,69,1,52,7,ok,2,0,0.002,6,0.94,1.60,9.49,32,0.165,8.28
6.3190,0.04538,0.04014,0.76969,0.00000,0.00000,0.00000,34,-8,57,8,66,2,52,8,ok,2,0,0.002,6,0.94,1.60,9.49,32,0.177,8.28
6.3314,0.04538,0.04014,0.76969,0.00000,0.00000,0.00000,31,-6,58,8,65,-1,53,8,ok,2,0,0.002,6,0.94,1.60,9.49,32,0.190,8.28
6.3540,0.07505,-0.02094,0.78016,0.00000,0.00000,0.00000,28,-4,58,8,63,-2,54,9,ok,2,0,0.002,6,-0.25,1.47,10.09,33,0.000,8.28
6.3572,0.07505,-0.02094,0.78016,0.00000,0.00000,0.00000,26,-2,59,9,62,-4,55,8,ok,2,0,0.002,6,-0.25,1.47,10.09,33,0.013,8.28
6.3698,0.07505,-0.02094,0.78016,0.00000,0.00000,0.00000,25,-2,60,10,61,-5,55,8,ok,2,0,0.002,6,-0.25,1.47,10.09,33,0.026,8.28
6.3900,0.07505,-0.02094,0.78016,0.00000,0.00000,0.00000,24,-1,61,10,59,-5,57,6,ok,2,0,0.002,6,-0.25,1.47,10.09,33,0.039,8.28
6.3949,0.07505,-0.02094,0.78016,0.00000,0.00000,0.00000,23,2,61,11,56,-6,57,7,ok,2,0,0.002,6,-0.25,1.47,10.09,33,0.051,8.28
6.4075,0.07505,-0.02094,0.78016,0.00000,0.00000,0.00000,22,5,61,11,54,-7,58,8,ok,2,0,0.002,6,-0.25,1.47,10.09,33,0.064,8.28
6.4300,0.07505,-0.02094,0.78016,0.00000,0.00000,0.00000,20,9,61,12,51,-6,58,8,ok,2,0,0.002,6,-0.25,1.47,10.09,33,0.076,8.28
6.4331,0.07505,-0.02094,0.78016,0.00000,0.00000,0.00000,20,11,62,11,48,-5,59,8,ok,2,0,0.002,6,-0.25,1.47,10.09,33,0.089,8.28
6.4458,0.07505,-0.02094,0.78016,0.00000,0.00000,0.00000,21,11,62,12,46,-6,60,9,ok,2,0,0.002,6,-0.25,1.47,10.09,33,0.102,8.28
6.4660,0.07505,-0.02094,0.78016,0.00000,0.00000,0.00000,21,11,62,13,43,-5,60,10,ok,2,0,0.002,6,-0.25,1.47,10.09,33,0.115,8.28
6.4709,0.07505,-0.02094,0.78016,0.00000,0.00000,0.00000,23,10,63,13,40,-5,60,10,ok,2,0,0.002,6,-0.25,1.47,10.09,33,0.127,8.28
6.4835,0.07505,-0.02094,0.78016,0.00000,0.00000,0.00000,24,9,62,14,37,-4,61,11,ok,2,0,0.002,6,-0.25,1.47,10.09,33,0.140,8.28
6.5060,0.07505,-0.02094,0.78016,0.00000,0.00000,0.00000,24,8,63,15,34,-3,61,12,ok,2,0,0.002,6,-0.25,1.47,10.09,33,0.152,8.28
6.5091,0.07505,-0.02094,0.78016,0.00000,0.00000,0.00000,26,7,63,16,31,-1,61,13,ok,2,0,0.002,6,-0.25,1.47,10.09,33,0.165,8.28
6.5218,0.07505,-0.02094,0.78016,0.00000,0.00000,0.00000,27,7,63,17,29,0,62,14,ok,2,0,0.002,6,-0.25,1.47,10.09,33,0.178,8.28
6.5420,0.07505,-0.02094,0.78016,0.00000,0.00000,0.00000,28,6,64,18,27,2,62,14,ok,2,0,0.002,6,-0.25,1.47,10.09,33,0.191,8.28
6.5471,-0.04014,0.05585,0.81332,0.00000,0.00000,0.00000,29,5,64,19,25,5,63,15,ok,2,0,0.002,6,2.76,0.14,11.31,34,0.000,8.28
6.5595,-0.04014,0.05585,0.81332,0.00000,0.00000,0.00000,30,5,64,21,24,7,63,16,ok,2,0,0.002,6,2.76,0.14,11.31,34,0.013,8.28
6.5820,-0.04014,0.05585,0.81332,0.00000,0.00000,0.00000,31,4,64,22,22,11,63,17,ok,2,0,0.002,6,2.76,0.14,11.31,34,0.025,8.28
6.5852,-0.04014,0.05585,0.81332,0.00000,0.00000,0.00000,32,3,64,23,21,14,64,18,ok,2,0,0.002,6,2.76,0.14,11.31,34,0.038,8.28
6.5978,-0.04014,0.05585,0.81332,0.00000,0.00000,0.00000,32,3,63,26,23,13,64,19,ok,2,0,0.002,6,2.76,0.14,11.31,34,0.051,8.28
6.6180,-0.04014,0.05585,0.81332,0.00000,0.00000,0.00000,32,2,63,28,24,13,64,19,ok,2,0,0.002,7,2.76,0.14,11.31,34,0.064,8.28
6.6229,-0.04014,0.05585,0.81332,0.00000,0.00000,0.00000,33,1,64,27,25,11,64,21,ok,2,0,0.002,7,2.76,0.14,11.31,34,0.076,8.28
6.6354,-0.04014,0.05585,0.81332,0.00000,0.00000,0.00000,34,0,67,24,26,11,65,21,ok,2,0,0.002,7,2.76,0.14,11.31,34,0.089,8.28
6.6580,-0.04014,0.05585,0.81332,0.00000,0.00000,0.00000,36,0,69,20,27,11,65,23,ok,2,0,0.002,7,2.76,0.14,11.31,34,0.101,8.28
6.6611,-0.04014,0.05585,0.81332,0.00000,0.00000,0.00000,36,0,70,15,29,10,64,24,ok,2,0,0.002,7,2.76,0.14,11.31,34,0.114,8.28
6.6739,-0.04014,0.05585,0.81332,0.00000,0.00000,0.00000,38,0,71,13,30,9,65,26,ok,2,0,0.002,7,2.76,0.14,11.31,34,0.127,8.28
6.6940,-0.04014,0.05585,0.81332,0.00000,0.00000,0.00000,40,1,70,12,32,9,65,26,ok,2,0,0.002,7,2.76,0.14,11.31,34,0.139,8.28
6.6988,-0.04014,0.05585,0.81332,0.00000,0.00000,0.00000,40,1,70,9,33,9,64,28,ok,2,0,0.002,7,2.76,0.14,11.31,34,0.152,8.28
6.7115,-0.04014,0.05585,0.81332,0.00000,0.00000,0.00000,42,2,69,6,35,9,64,30,ok,2,0,0.002,7,2.76,0.14,11.31,34,0.165,8.28
6.7340,-0.04014,0.05585,0.81332,0.00000,0.00000,0.00000,43,2,69,3,36,8,64,31,ok,2,0,0.002,7,2.76,0.14,11.31,34,0.177,8.28
6.7374,-0.05934,-0.00349,0.83601,0.00000,0.00000,0.00000,44,2,67,0,37,9,64,33,ok,2,0,0.002,7,0.48,-1.75,9.22,35,0.000,8.28
6.7501,-0.05934,-0.00349,0.83601,0.00000,0.00000,0.00000,44,2,66,-2,39,8,64,34,ok,2,0,0.002,7,0.48,-1.75,9.22,35,0.013,8.28
6.7700,-0.05934,-0.00349,0.83601,0.00000,0.00000,0.00000,46,2,64,-3,40,8,64,35,ok,2,0,0.002,7,0.48,-1.75,9.22,35,0.025,8.28
6.7748,-0.05934,-0.00349,0.83601,0.00000,0.00000,0.00000,46,2,62,-4,41,7,65,35,ok,2,0,0.002,7,0.48,-1.75,9.22,35,0.038,8.28
6.7873,-0.05934,-0.00349,0.83601,0.00000,0.00000,0.00000,47,3,61,-6,42,7,66,35,ok,2,0,0.002,7,0.48,-1.75,9.22,35,0.050,8.28
6.8100,-0.05934,-0.00349,0.83601,0.00000,0.00000,0.00000,48,3,60,-8,43,7,68,32,ok,2,0,0.002,7,0.48,-1.75,9.22,35,0.063,8.28
6.8131,-0.05934,-0.00349,0.83601,0.00000,0.00000,0.00000,49,3,58,-8,44,7,70,27,ok,2,0,0.002,7,0.48,-1.75,9.22,35,0.076,8.28
6.8259,-0.05934,-0.00349,0.83601,0.00000,0.00000,0.00000,50,3,56,-9,45,7,71,23,ok,2,0,0.002,7,0.48,-1.75,9.22,35,0.089,8.28
6.8460,-0.05934,-0.00349,0.83601,0.00000,0.00000,0.00000,51,3,54,-9,46,7,72,21,ok,2,0,0.002,7,0.48,-1.75,9.22,35,0.101,8.28
6.8508,-0.05934,-0.00349,0.83601,0.00000,0.00000,0.00000,51,5,51,-10,47,7,72,20,ok,2,0,0.002,7,0.48,-1.75,9.22,35,0.114,8.28
6.8633,-0.05934,-0.00349,0.83601,0.00000,0.00000,0.00000,52,6,49,-10,47,7,72,18,ok,2,0,0.002,7,0.48,-1.75,9.22,35,0.126,8.28
6.8860,-0.05934,-0.00349,0.83601,0.00000,0.00000,0.00000,52,6,46,-10,48,7,72,15,ok,2,0,0.002,7,0.48,-1.75,9.22,35,0.139,8.28
6.8891,-0.05934,-0.00349,0.83601,0.00000,0.00000,0.00000,53,6,44,-10,49,7,72,12,ok,2,0,0.002,7,0.48,-1.75,9.22,35,0.152,8.28
6.9019,-0.05934,-0.00349,0.83601,0.00000,0.00000,0.00000,53,7,42,-10,50,7,71,10,ok,2,0,0.002,7,0.48,-1.75,9.22,35,0.165,8.28
6.9220,-0.05934,-0.00349,0.83601,0.00000,0.00000,0.00000,55,7,39,-10,50,7,71,7,ok,2,0,0.002,7,0.48,-1.75,9.22,35,0.177,8.28
6.9268,-0.05934,-0.00349,0.83601,0.00000,0.00000,0.00000,56,7,37,-9,52,7,70,5,ok,2,0,0.002,7,0.48,-1.75,9.22,35,0.190,8.28
6.9395,-0.05934,-0.00349,0.83601,0.00000,0.00000,0.00000,56,7,33,-9,51,7,70,4,ok,2,0,0.002,7,0.48,-1.75,9.22,35,0.202,8.28
6.9620,-0.10996,-0.02793,0.86394,0.00000,0.00000,0.00000,56,8,31,-7,52,8,68,2,ok,2,0,0.002,7,0.16,-0.99,10.00,36,0.000,8.28
6.9651,-0.10996,-0.02793,0.86394,0.00000,0.00000,0.00000,57,8,27,-6,53,8,66,2,ok,2,0,0.002,7,0.16,-0.99,10.00,36,0.013,8.28
6.9778,-0.10996,-0.02793,0.86394,0.00000,0.00000,0.00000,57,9,25,-4,54,8,65,0,ok,2,0,0.002,7,0.16,-0.99,10.00,36,0.026,8.28
6.9980,-0.10996,-0.02793,0.86394,0.00000,0.00000,0.00000,58,10,21,-2,55,8,64,-2,ok,2,0,0.002,7,0.16,-0.99,10.00,36,0.039,8.28
7.0031,-0.10996,-0.02793,0.86394,0.00000,0.00000,0.00000,58,10,19,-1,57,6,62,-3,ok,2,0,0.002,7,0.16,-0.99,10.00,36,0.051,8.28
7.0153,-0.10996,-0.02793,0.86394,0.00000,0.00000,0.00000,59,9,18,1,57,7,60,-4,ok,2,0,0.002,7,0.16,-0.99,10.00,36,0.064,8.28
7.0380,-0.10996,-0.02793,0.86394,0.00000,0.00000,0.00000,60,10,16,3,58,8,58,-5,ok,2,0,0.002,7,0.16,-0.99,10.00,36,0.076,8.28
7.0411,-0.10996,-0.02793,0.86394,0.00000,0.00000,0.00000,60,10,15,6,59,8,55,-5,ok,2,0,0.002,7,0.16,-0.99,10.00,36,0.089,8.28
7.0538,-0.10996,-0.02793,0.86394,0.00000,0.00000,0.00000,60,12,13,9,59,9,54,-6,ok,2,0,0.002,7,0.16,-0.99,10.00,36,0.102,8.28
7.0740,-0.10996,-0.02793,0.86394,0.00000,0.00000,0.00000,60,12,13,12,60,9,50,-5,ok,2,0,0.002,7,0.16,-0.99,10.00,36,0.115,8.28
7.0790,-0.10996,-0.02793,0.86394,0.00000,0.00000,0.00000,60,13,15,12,60,9,48,-5,ok,2,0,0.002,7,0.16,-0.99,10.00,36,0.127,8.28
7.0913,-0.10996,-0.02793,0.86394,0.00000,0.00000,0.00000,60,14,16,11,61,10,46,-5,ok,2,0,0.002,7,0.16,-0.99,10.00,36,0.140,8.28
7.1140,-0.10996,-0.02793,0.86394,0.00000,0.00000,0.00000,60,14,17,10,61,11,42,-4,ok,2,0,0.002,7,0.16,-0.99,10.00,36,0.152,8.28
7.1171,-0.10996,-0.02793,0.86394,0.00000,0.00000,0.00000,60,15,19,9,61,12,40,-4,ok,2,0,0.002,7,0.16,-0.99,10.00,36,0.165,8.28
7.1299,-0.10996,-0.02793,0.86394,0.00000,0.00000,0.00000,60,16,20,9,61,12,37,-3,ok,2,0,0.002,7,0.16,-0.99,10.00,36,0.178,8.28
7.1500,-0.10996,-0.02793,0.86394,0.00000,0.00000,0.00000,61,17,21,8,61,13,35,-3,ok,2,0,0.002,7,0.16,-0.99,10.00,36,0.191,8.28
7.1551,-0.00873,0.13614,0.87965,0.00000,0.00000,0.00000,61,18,22,7,62,14,31,-1,ok,2,0,0.002,7,1.28,-0.54,8.09,37,0.000,8.28
7.1673,-0.00873,0.13614,0.87965,0.00000,0.00000,0.00000,62,20,23,6,62,14,29,0,ok,2,0,0.002,7,1.28,-0.54,8.09,37,0.013,8.28
7.1900,-0.00873,0.13614,0.87965,0.00000,0.00000,0.00000,62,21,24,5,62,15,27,2,ok,2,0,0.002,7,1.28,-0.54,8.09,37,0.025,8.28
7.1933,-0.00873,0.13614,0.87965,0.00000,0.00000,0.00000,62,22,24,5,62,16,25,5,ok,2,0,0.002,7,1.28,-0.54,8.09,37,0.039,8.28
7.2060,-0.00873,0.13614,0.87965,0.00000,0.00000,0.00000,62,23,25,4,63,17,23,7,ok,2,0,0.002,7,1.28,-0.54,8.09,37,0.051,8.28
7.2260,-0.00873,0.13614,0.87965,0.00000,0.00000,0.00000,62,24,25,3,64,17,22,11,ok,2,0,0.002,7,1.28,-0.54,8.09,37,0.064,8.28
7.2310,-0.00873,0.13614,0.87965,0.00000,0.00000,0.00000,61,26,26,3,64,18,22,13,ok,2,0,0.002,7,1.28,-0.54,8.09,37,0.076,8.28
7.2436,-0.00873,0.13614,0.87965,0.00000,0.00000,0.00000,60,27,27,2,64,20,24,12,ok,2,0,0.002,7,1.28,-0.54,8.09,37,0.089,8.28
7.2660,-0.00873,0.13614,0.87965,0.00000,0.00000,0.00000,62,25,28,2,64,21,25,12,ok,2,0,0.002,7,1.28,-0.54,8.09,37,0.101,8.28
7.2691,-0.00873,0.13614,0.87965,0.00000,0.00000,0.00000,64,22,29,2,65,22,25,10,ok,2,0,0.002,7,1.28,-0.54,8.09,37,0.114,8.28
7.2820,-0.00873,0.13614,0.87965,0.00000,0.00000,0.00000,65,18,30,1,64,23,27,9,ok,2,0,0.002,7,1.28,-0.54,8.09,37,0.127,8.28
7.3020,-0.00873,0.13614,0.87965,0.00000,0.00000,0.00000,66,13,32,2,64,25,28,10,ok,2,0,0.002,7,1.28,-0.54,8.09,37,0.140,8.28
7.3070,-0.00873,0.13614,0.87965,0.00000,0.00000,0.00000,66,11,33,2,65,26,29,9,ok,2,0,0.002,7,1.28,-0.54,8.09,37,0.152,8.28
7.3193,-0.00873,0.13614,0.87965,0.00000,0.00000,0.00000,66,10,35,2,64,28,31,8,ok,2,0,0.002,7,1.28,-0.54,8.09,37,0.165,8.28
7.3420,-0.00873,0.13614,0.87965,0.00000,0.00000,0.00000,66,7,36,2,64,29,33,8,ok,2,0,0.002,7,1.28,-0.54,8.09,37,0.177,8.28
7.3451,-0.00873,0.13614,0.87965,0.00000,0.00000,0.00000,65,4,38,3,64,30,33,9,ok,2,0,0.002,7,1.28,-0.54,8.09,37,0.190,8.28
7.3581,-0.02094,0.00175,0.93026,0.00000,0.00000,0.00000,64,1,39,3,65,32,35,8,ok,2,0,0.002,7,-0.53,0.14,10.97,38,0.000,8.28
7.3780,-0.02094,0.00175,0.93026,0.00000,0.00000,0.00000,64,-1,41,2,64,34,36,8,ok,2,0,0.002,7,-0.53,0.14,10.97,38,0.013,8.28
7.3828,-0.02094,0.00175,0.93026,0.00000,0.00000,0.00000,63,-3,42,2,64,35,37,8,ok,2,0,0.002,7,-0.53,0.14,10.97,38,0.025,8.28
7.3953,-0.02094,0.00175,0.93026,0.00000,0.00000,0.00000,62,-4,44,2,65,36,39,8,ok,2,0,0.002,7,-0.53,0.14,10.97,38,0.038,8.28
7.4180,-0.02094,0.00175,0.93026,0.00000,0.00000,0.00000,60,-5,44,2,66,35,40,7,ok,2,0,0.002,7,-0.53,0.14,10.97,38,0.050,8.28
7.4211,-0.02094,0.00175,0.93026,0.00000,0.00000,0.00000,60,-6,45,2,68,33,41,7,ok,2,0,0.002,7,-0.53,0.14,10.97,38,0.063,8.28
7.4340,-0.02094,0.00175,0.93026,0.00000,0.00000,0.00000,59,-8,47,3,69,29,42,7,ok,2,0,0.002,7,-0.53,0.14,10.97,38,0.076,8.28
7.4540,-0.02094,0.00175,0.93026,0.00000,0.00000,0.00000,57,-9,48,4,71,24,44,7,ok,2,0,0.002,7,-0.53,0.14,10.97,38,0.089,8.28
7.4588,-0.02094,0.00175,0.93026,0.00000,0.00000,0.00000,56,-10,49,3,73,21,44,7,ok,2,0,0.002,7,-0.53,0.14,10.97,38,0.101,8.28
7.4712,-0.02094,0.00175,0.93026,0.00000,0.00000,0.00000,53,-10,50,3,74,21,45,7,ok,2,0,0.002,7,-0.53,0.14,10.97,38,0.114,8.28
7.4940,-0.02094,0.00175,0.93026,0.00000,0.00000,0.00000,52,-11,50,5,74,18,46,7,ok,2,0,0.002,7,-0.53,0.14,10.97,38,0.126,8.28
7.4971,-0.02094,0.00175,0.93026,0.00000,0.00000,0.00000,50,-11,51,6,74,15,47,8,ok,2,0,0.002,7,-0.53,0.14,10.97,38,0.139,8.28
7.5100,-0.02094,0.00175,0.93026,0.00000,0.00000,0.00000,48,-11,52,6,73,12,48,8,ok,2,0,0.002,7,-0.53,0.14,10.97,38,0.152,8.28
7.5300,-0.02094,0.00175,0.93026,0.00000,0.00000,0.00000,45,-10,53,6,72,10,49,8,ok,2,0,0.002,7,-0.53,0.14,10.97,38,0.165,8.28
7.5348,-0.02094,0.00175,0.93026,0.00000,0.00000,0.00000,44,-10,54,7,72,7,49,9,ok,2,0,0.002,7,-0.53,0.14,10.97,38,0.177,8.28
7.5472,-0.02094,0.00175,0.93026,0.00000,0.00000,0.00000,41,-11,56,7,72,5,50,8,ok,2,0,0.002,7,-0.53,0.14,10.97,38,0.190,8.28
7.5700,0.07330,0.00175,0.92328,0.00000,0.00000,0.00000,40,-10,56,7,70,4,51,9,ok,2,0,0.002,7,-0.52,0.58,10.29,39,0.000,8.28
7.5732,0.07330,0.00175,0.92328,0.00000,0.00000,0.00000,36,-8,57,7,69,1,51,7,ok,2,0,0.002,7,-0.52,0.58,10.29,39,0.013,8.28
7.5858,0.07330,0.00175,0.92328,0.00000,0.00000,0.00000,34,-7,57,8,66,2,52,8,ok,2,0,0.002,7,-0.52,0.58,10.29,39,0.026,8.28
7.6060,0.07330,0.00175,0.92328,0.00000,0.00000,0.00000,32,-5,58,7,65,0,52,8,ok,2,0,0.002,7,-0.52,0.58,10.29,39,0.039,8.28
7.6108,0.07330,0.00175,0.92328,0.00000,0.00000,0.00000,29,-3,59,8,64,-2,54,9,ok,2,0,0.002,7,-0.52,0.58,10.29,39,0.051,8.28
7.6232,0.07330,0.00175,0.92328,0.00000,0.00000,0.00000,26,-1,59,9,62,-4,54,8,ok,2,0,0.002,8,-0.52,0.58,10.29,39,0.064,8.28
7.6460,0.07330,0.00175,0.92328,0.00000,0.00000,0.00000,25,-1,60,10,60,-5,54,8,ok,2,0,0.002,8,-0.52,0.58,10.29,39,0.076,8.28
7.6491,0.07330,0.00175,0.92328,0.00000,0.00000,0.00000,24,0,61,9,58,-5,56,6,ok,2,0,0.002,8,-0.52,0.58,10.29,39,0.089,8.28
7.6618,0.07330,0.00175,0.92328,0.00000,0.00000,0.00000,23,3,61,10,56,-6,57,7,ok,2,0,0.002,8,-0.52,0.58,10.29,39,0.102,8.28
7.6820,0.07330,0.00175,0.92328,0.00000,0.00000,0.00000,22,6,61,10,54,-7,58,7,ok,2,0,0.002,8,-0.52,0.58,10.29,39,0.115,8.28
7.6869,0.07330,0.00175,0.92328,0.00000,0.00000,0.00000,20,9,61,12,51,-6,58,8,ok,2,0,0.002,8,-0.52,0.58,10.29,39,0.127,8.28
7.6993,0.07330,0.00175,0.92328,0.00000,0.00000,0.00000,20,11,61,11,48,-6,59,8,ok,2,0,0.002,8,-0.52,0.58,10.29,39,0.140,8.28
7.7220,0.07330,0.00175,0.92328,0.00000,0.00000,0.00000,21,11,62,13,46,-6,60,9,ok,2,0,0.002,8,-0.52,0.58,10.29,39,0.152,8.28
7.7251,0.07330,0.00175,0.92328,0.00000,0.00000,0.00000,21,11,61,13,43,-5,60,10,ok,2,0,0.002,8,-0.52,0.58,10.29,39,0.165,8.28
7.7378,0.07330,0.00175,0.92328,0.00000,0.00000,0.00000,23,9,62,14,40,-4,60,10,ok,2,0,0.002,8,-0.52,0.58,10.29,39,0.178,8.28
7.7580,0.07330,0.00175,0.92328,0.00000,0.00000,0.00000,24,9,62,15,37,-4,61,11,ok,2,0,0.002,8,-0.52,0.58,10.29,39,0.191,8.28
7.7630,0.07330,0.00175,0.92328,0.00000,0.00000,0.00000,24,8,63,15,34,-3,61,12,ok,2,0,0.002,8,-0.52,0.58,10.29,39,0.203,8.28
7.7755,-0.07505,0.00349,0.94248,0.00000,0.00000,0.00000,26,7,63,16,31,-1,61,13,ok,2,0,0.002,8,0.53,-1.33,9.07,40,0.000,8.28
7.7980,-0.07505,0.00349,0.94248,0.00000,0.00000,0.00000,27,7,63,17,29,-1,63,14,ok,2,0,0.002,8,0.53,-1.33,9.07,40,0.012,8.28
7.8013,-0.07505,0.00349,0.94248,0.00000,0.00000,0.00000,28,6,64,19,27,1,63,15,ok,2,0,0.002,8,0.53,-1.33,9.07,40,0.026,8.28
7.8138,-0.07505,0.00349,0.94248,0.00000,0.00000,0.00000,29,4,64,20,25,4,64,15,ok,2,0,0.002,8,0.53,-1.33,9.07,40,0.038,8.28
7.8340,-0.07505,0.00349,0.94248,0.00000,0.00000,0.00000,30,4,64,21,24,7,64,16,ok,2,0,0.002,8,0.53,-1.33,9.07,40,0.051,8.28
7.8388,-0.07505,0.00349,0.94248,0.00000,0.00000,0.00000,31,3,64,22,23,11,64,17,ok,2,0,0.002,8,0.53,-1.33,9.07,40,0.063,8.28
7.8512,-0.07505,0.00349,0.94248,0.00000,0.00000,0.00000,31,2,64,24,22,14,64,18,ok,2,0,0.002,8,0.53,-1.33,9.07,40,0.076,8.28
7.8740,-0.07505,0.00349,0.94248,0.00000,0.00000,0.00000,32,2,63,27,24,13,64,19,ok,2,0,0.002,8,0.53,-1.33,9.07,40,0.088,8.28
7.8772,-0.07505,0.00349,0.94248,0.00000,0.00000,0.00000,32,1,63,28,24,13,64,20,ok,2,0,0.002,8,0.53,-1.33,9.07,40,0.102,8.28
7.8900,-0.07505,0.00349,0.94248,0.00000,0.00000,0.00000,34,1,65,26,25,11,64,21,ok,2,0,0.002,8,0.53,-1.33,9.07,40,0.114,8.28
7.9100,-0.07505,0.00349,0.94248,0.00000,0.00000,0.00000,35,1,67,23,26,10,65,22,ok,2,0,0.002,8,0.53,-1.33,9.07,40,0.127,8.28
7.9149,-0.07505,0.00349,0.94248,0.00000,0.00000,0.00000,36,1,69,19,27,10,65,23,ok,2,0,0.002,8,0.53,-1.33,9.07,40,0.139,8.28
7.9272,-0.07505,0.00349,0.94248,0.00000,0.00000,0.00000,37,2,70,15,29,10,64,24,ok,2,0,0.002,8,0.53,-1.33,9.07,40,0.152,8.28
7.9500,-0.07505,0.00349,0.94248,0.00000,0.00000,0.00000,38,2,71,12,30,9,64,26,ok,2,0,0.002,8,0.53,-1.33,9.07,40,0.164,8.28
7.9531,-0.07505,0.00349,0.94248,0.00000,0.00000,0.00000,40,2,70,12,33,9,65,26,ok,2,0,0.002,8,0.53,-1.33,9.07,40,0.178,8.28
7.9661,-0.12741,0.03665,0.95644,0.00000,0.00000,0.00000,41,2,70,8,33,9,64,29,ok,2,0,0.002,8,0.13,-1.16,9.65,41,0.000,8.28
7.9859,-0.12741,0.03665,0.95644,0.00000,0.00000,0.00000,42,3,69,6,35,9,64,30,ok,2,0,0.002,8,0.13,-1.16,9.65,41,0.013,8.28
7.9908,-0.12741,0.03665,0.95644,0.00000,0.00000,0.00000,43,3,69,3,36,8,64,31,ok,2,0,0.002,8,0.13,-1.16,9.65,41,0.025,8.28
8.0035,-0.12741,0.03665,0.95644,0.00000,0.00000,0.00000,44,2,67,0,37,8,64,33,ok,2,0,0.002,8,0.13,-1.16,9.65,41,0.038,8.28
8.0260,-0.12741,0.03665,0.95644,0.00000,0.00000,0.00000,45,2,66,-2,38,8,64,34,ok,2,0,0.002,8,0.13,-1.16,9.65,41,0.050,8.28
8.0291,-0.12741,0.03665,0.95644,0.00000,0.00000,0.00000,46,2,64,-3,39,8,63,36,ok,2,0,0.002,8,0.13,-1.16,9.65,41,0.063,8.28
8.0418,-0.12741,0.03665,0.95644,0.00000,0.00000,0.00000,46,2,62,-4,41,7,65,36,ok,2,0,0.002,8,0.13,-1.16,9.65,41,0.076,8.28
8.0620,-0.12741,0.03665,0.95644,0.00000,0.00000,0.00000,47,2,61,-5,42,7,66,35,ok,2,0,0.002,8,0.13,-1.16,9.65,41,0.089,8.28
8.0670,-0.12741,0.03665,0.95644,0.00000,0.00000,0.00000,48,2,60,-7,43,7,68,33,ok,2,0,0.002,8,0.13,-1.16,9.65,41,0.101,8.28
8.0793,-0.12741,0.03665,0.95644,0.00000,0.00000,0.00000,49,3,58,-8,44,7,69,28,ok,2,0,0.002,8,0.13,-1.16,9.65,41,0.114,8.28
8.1020,-0.12741,0.03665,0.95644,0.00000,0.00000,0.00000,50,3,55,-9,45,7,71,24,ok,2,0,0.002,8,0.13,-1.16,9.65,41,0.126,8.28
8.1051,-0.12741,0.03665,0.95644,0.00000,0.00000,0.00000,51,3,53,-9,46,7,72,21,ok,2,0,0.002,8,0.13,-1.16,9.65,41,0.139,8.28
8.1178,-0.12741,0.03665,0.95644,0.00000,0.00000,0.00000,51,5,51,-10,47,7,73,20,ok,2,0,0.002,8,0.13,-1.16,9.65,41,0.152,8.28
8.1380,-0.12741,0.03665,0.95644,0.00000,0.00000,0.00000,52,6,49,-10,47,7,73,18,ok,2,0,0.002,8,0.13,-1.16,9.65,41,0.165,8.28
8.1428,-0.12741,0.03665,0.95644,0.00000,0.00000,0.00000,52,5,46,-10,49,7,73,15,ok,2,0,0.002,8,0.13,-1.16,9.65,41,0.177,8.28
8.1553,-0.12741,0.03665,0.95644,0.00000,0.00000,0.00000,52,6,44,-10,49,7,72,12,ok,2,0,0.002,8,0.13,-1.16,9.65,41,0.190,8.28
8.1780,-0.12741,0.03665,0.95644,0.00000,0.00000,0.00000,53,7,41,-10,50,7,72,11,ok,2,0,0.002,8,0.13,-1.16,9.65,41,0.202,8.28
8.1814,-0.01745,-0.02618,0.98786,0.00000,0.00000,0.00000,55,7,39,-10,51,7,71,7,ok,2,0,0.002,8,0.05,-0.83,9.92,42,0.000,8.28
8.1939,-0.01745,-0.02618,0.98786,0.00000,0.00000,0.00000,55,7,36,-10,52,7,70,6,ok,2,0,0.002,8,0.05,-0.83,9.92,42,0.013,8.28
8.2140,-0.01745,-0.02618,0.98786,0.00000,0.00000,0.00000,56,7,33,-9,52,8,69,4,ok,2,0,0.002,8,0.05,-0.83,9.92,42,0.025,8.28
8.2188,-0.01745,-0.02618,0.98786,0.00000,0.00000,0.00000,56,8,30,-8,53,8,68,2,ok,2,0,0.002,8,0.05,-0.83,9.92,42,0.038,8.28
8.2312,-0.01745,-0.02618,0.98786,0.00000,0.00000,0.00000,56,9,27,-7,54,8,66,2,ok,2,0,0.002,8,0.05,-0.83,9.92,42,0.050,8.28
8.2540,-0.01745,-0.02618,0.98786,0.00000,0.00000,0.00000,57,9,25,-5,55,8,65,0,ok,2,0,0.002,8,0.05,-0.83,9.92,42,0.063,8.28
8.2573,-0.01745,-0.02618,0.98786,0.00000,0.00000,0.00000,58,11,21,-3,56,8,64,-2,ok,2,0,0.002,8,0.05,-0.83,9.92,42,0.076,8.28
8.2698,-0.01745,-0.02618,0.98786,0.00000,0.00000,0.00000,58,11,19,-2,58,6,62,-3,ok,2,0,0.002,8,0.05,-0.83,9.92,42,0.089,8.28
8.2900,-0.01745,-0.02618,0.98786,0.00000,0.00000,0.00000,59,11,19,0,58,7,60,-5,ok,2,0,0.002,8,0.05,-0.83,9.92,42,0.101,8.28
8.2948,-0.01745,-0.02618,0.98786,0.00000,0.00000,0.00000,60,12,17,2,59,8,58,-5,ok,2,0,0.002,8,0.05,-0.83,9.92,42,0.114,8.28
8.3075,-0.01745,-0.02618,0.98786,0.00000,0.00000,0.00000,60,12,15,5,59,8,55,-6,ok,2,0,0.002,8,0.05,-0.83,9.92,42,0.126,8.28
8.3300,-0.01745,-0.02618,0.98786,0.00000,0.00000,0.00000,60,12,13,9,59,9,53,-6,ok,2,0,0.002,8,0.05,-0.83,9.92,42,0.139,8.28
8.3331,-0.01745,-0.02618,0.98786,0.00000,0.00000,0.00000,60,12,13,11,60,9,50,-5,ok,2,0,0.002,8,0.05,-0.83,9.92,42,0.152,8.28
8.3458,-0.01745,-0.02618,0.98786,0.00000,0.00000,0.00000,60,13,15,12,60,10,47,-5,ok,2,0,0.002,8,0.05,-0.83,9.92,42,0.165,8.28
8.3660,-0.01745,-0.02618,0.98786,0.00000,0.00000,0.00000,60,13,15,11,61,11,45,-5,ok,2,0,0.002,8,0.05,-0.83,9.92,42,0.177,8.28
8.3708,-0.01745,-0.02618,0.98786,0.00000,0.00000,0.00000,60,14,17,10,61,11,42,-4,ok,2,0,0.002,8,0.05,-0.83,9.92,42,0.190,8.28
8.3836,0.05585,0.10647,0.98262,0.00000,0.00000,0.00000,60,15,19,9,61,12,40,-4,ok,2,0,0.002,8,0.57,1.03,10.30,43,0.000,8.28
8.4060,0.05585,0.10647,0.98262,0.00000,0.00000,0.00000,60,16,20,9,61,13,36,-3,ok,2,0,0.002,8,0.57,1.03,10.30,43,0.012,8.28
8.4093,0.05585,0.10647,0.98262,0.00000,0.00000,0.00000,60,17,21,8,61,13,34,-3,ok,2,0,0.002,8,0.57,1.03,10.30,43,0.026,8.28
8.4218,0.05585,0.10647,0.98262,0.00000,0.00000,0.00000,60,18,21,8,61,14,30,-1,ok,2,0,0.002,8,0.57,1.03,10.30,43,0.039,8.28
8.4420,0.05585,0.10647,0.98262,0.00000,0.00000,0.00000,62,19,23,6,63,14,29,0,ok,2,0,0.002,8,0.57,1.03,10.30,43,0.051,8.28
8.4468,0.05585,0.10647,0.98262,0.00000,0.00000,0.00000,61,20,24,5,63,15,27,1,ok,2,0,0.002,8,0.57,1.03,10.30,43,0.063,8.28
8.4593,0.05585,0.10647,0.98262,0.00000,0.00000,0.00000,62,21,24,4,63,16,25,4,ok,2,0,0.002,8,0.57,1.03,10.30,43,0.076,8.28
8.4820,0.05585,0.10647,0.98262,0.00000,0.00000,0.00000,61,22,25,4,63,17,24,7,ok,2,0,0.002,8,0.57,1.03,10.30,43,0.089,8.28
8.4851,0.05585,0.10647,0.98262,0.00000,0.00000,0.00000,61,23,25,3,64,17,23,11,ok,2,0,0.002,8,0.57,1.03,10.30,43,0.102,8.28
8.4978,0.05585,0.10647,0.98262,0.00000,0.00000,0.00000,60,26,26,3,64,19,22,13,ok,2,0,0.002,8,0.57,1.03,10.30,43,0.114,8.28
8.5180,0.05585,0.10647,0.98262,0.00000,0.00000,0.00000,60,26,27,2,64,20,25,12,ok,2,0,0.002,8,0.57,1.03,10.30,43,0.127,8.28
8.5228,0.05585,0.10647,0.98262,0.00000,0.00000,0.00000,62,25,28,2,64,21,25,11,ok,2,0,0.002,8,0.57,1.03,10.30,43,0.139,8.28
8.5352,0.05585,0.10647,0.98262,0.00000,0.00000,0.00000,64,21,29,2,65,22,26,10,ok,2,0,0.002,8,0.57,1.03,10.30,43,0.152,8.28
8.5580,0.05585,0.10647,0.98262,0.00000,0.00000,0.00000,65,17,30,1,64,23,27,9,ok,2,0,0.002,8,0.57,1.03,10.30,43,0.164,8.28
8.5611,0.05585,0.10647,0.98262,0.00000,0.00000,0.00000,66,13,32,2,64,25,28,10,ok,2,0,0.002,8,0.57,1.03,10.30,43,0.178,8.28
8.5742,0.05585,0.10647,0.98262,0.00000,0.00000,0.00000,66,11,33,2,65,26,29,9,ok,2,0,0.002,8,0.57,1.03,10.30,43,0.191,8.28
8.5940,-0.05411,0.05585,1.03847,0.00000,0.00000,0.00000,66,10,35,2,64,28,30,8,ok,2,0,0.002,8,-0.07,-1.15,9.00,44,0.000,8.28
8.5988,-0.05411,0.05585,1.03847,0.00000,0.00000,0.00000,66,7,36,2,64,29,33,9,ok,2,0,0.002,8,-0.07,-1.15,9.00,44,0.012,8.28
8.6112,-0.05411,0.05585,1.03847,0.00000,0.00000,0.00000,65,4,38,3,64,30,34,9,ok,2,0,0.002,8,-0.07,-1.15,9.00,44,0.025,8.28
8.6340,-0.05411,0.05585,1.03847,0.00000,0.00000,0.00000,65,1,39,3,64,32,35,8,ok,2,0,0.002,8,-0.07,-1.15,9.00,44,0.038,8.28
8.6371,-0.05411,0.05585,1.03847,0.00000,0.00000,0.00000,64,-1,41,3,63,34,37,8,ok,2,0,0.002,9,-0.07,-1.15,9.00,44,0.051,8.28
8.6499,-0.05411,0.05585,1.03847,0.00000,0.00000,0.00000,64,-3,42,3,64,35,37,8,ok,2,0,0.002,9,-0.07,-1.15,9.00,44,0.063,8.28
8.6700,-0.05411,0.05585,1.03847,0.00000,0.00000,0.00000,62,-5,44,3,64,36,39,8,ok,2,0,0.002,9,-0.07,-1.15,9.00,44,0.076,8.28
8.6748,-0.05411,0.05585,1.03847,0.00000,0.00000,0.00000,60,-6,44,3,66,35,40,8,ok,2,0,0.002,9,-0.07,-1.15,9.00,44,0.088,8.28
8.6875,-0.05411,0.05585,1.03847,0.00000,0.00000,0.00000,60,-7,45,3,67,33,41,7,ok,2,0,0.002,9,-0.07,-1.15,9.00,44,0.101,8.28
8.7100,-0.05411,0.05585,1.03847,0.00000,0.00000,0.00000,59,-9,46,3,70,28,42,7,ok,2,0,0.002,9,-0.07,-1.15,9.00,44,0.114,8.28
8.7132,-0.05411,0.05585,1.03847,0.00000,0.00000,0.00000,57,-10,48,4,71,24,43,7,ok,2,0,0.002,9,-0.07,-1.15,9.00,44,0.127,8.28
8.7259,-0.05411,0.05585,1.03847,0.00000,0.00000,0.00000,55,-10,49,4,73,22,44,7,ok,2,0,0.002,9,-0.07,-1.15,9.00,44,0.140,8.28
8.7459,-0.05411,0.05585,1.03847,0.00000,0.00000,0.00000,53,-10,49,3,74,21,45,7,ok,2,0,0.002,9,-0.07,-1.15,9.00,44,0.152,8.28
8.7510,-0.05411,0.05585,1.03847,0.00000,0.00000,0.00000,52,-11,49,6,74,18,46,7,ok,2,0,0.002,9,-0.07,-1.15,9.00,44,0.165,8.28
8.7633,-0.05411,0.05585,1.03847,0.00000,0.00000,0.00000,49,-11,51,6,74,15,47,8,ok,2,0,0.002,9,-0.07,-1.15,9.00,44,0.177,8.28
8.7860,-0.05411,0.05585,1.03847,0.00000,0.00000,0.00000,48,-11,52,6,73,11,48,8,ok,2,0,0.002,9,-0.07,-1.15,9.00,44,0.190,8.28
8.7894,0.09948,0.03142,1.03149,0.00000,0.00000,0.00000,45,-10,53,6,73,10,49,8,ok,2,0,0.002,9,0.00,1.21,9.34,45,0.000,8.28
8.8021,0.09948,0.03142,1.03149,0.00000,0.00000,0.00000,43,-11,53,6,72,7,49,9,ok,2,0,0.002,9,0.00,1.21,9.34,45,0.013,8.28
8.8220,0.09948,0.03142,1.03149,0.00000,0.00000,0.00000,40,-11,55,6,72,5,49,8,ok,2,0,0.002,9,0.00,1.21,9.34,45,0.025,8.28
8.8268,0.09948,0.03142,1.03149,0.00000,0.00000,0.00000,39,-9,56,6,71,4,50,9,ok,2,0,0.002,9,0.00,1.21,9.34,45,0.038,8.28
8.8393,0.09948,0.03142,1.03149,0.00000,0.00000,0.00000,36,-8,57,6,70,2,51,7,ok,2,0,0.002,9,0.00,1.21,9.34,45,0.050,8.28
8.8620,0.09948,0.03142,1.03149,0.00000,0.00000,0.00000,34,-6,57,7,67,2,52,8,ok,2,0,0.002,9,0.00,1.21,9.34,45,0.063,8.28
8.8652,0.09948,0.03142,1.03149,0.00000,0.00000,0.00000,32,-5,58,7,65,0,52,8,ok,2,0,0.002,9,0.00,1.21,9.34,45,0.076,8.28
8.8778,0.09948,0.03142,1.03149,0.00000,0.00000,0.00000,29,-3,58,7,64,-2,54,8,ok,2,0,0.002,9,0.00,1.21,9.34,45,0.089,8.28
8.8980,0.09948,0.03142,1.03149,0.00000,0.00000,0.00000,26,-1,59,8,62,-4,55,8,ok,2,0,0.002,9,0.00,1.21,9.34,45,0.101,8.28
8.9028,0.09948,0.03142,1.03149,0.00000,0.00000,0.00000,25,0,60,10,61,-5,54,7,ok,2,0,0.002,9,0.00,1.21,9.34,45,0.114,8.28
8.9153,0.09948,0.03142,1.03149,0.00000,0.00000,0.00000,24,0,60,10,58,-5,56,5,ok,2,0,0.002,9,0.00,1.21,9.34,45,0.126,8.28
8.9380,0.09948,0.03142,1.03149,0.00000,0.00000,0.00000,23,2,61,11,56,-6,57,7,ok,2,0,0.002,9,0.00,1.21,9.34,45,0.139,8.28
8.9411,0.09948,0.03142,1.03149,0.00000,0.00000,0.00000,22,5,61,11,54,-7,58,7,ok,2,0,0.002,9,0.00,1.21,9.34,45,0.152,8.28
8.9538,0.09948,0.03142,1.03149,0.00000,0.00000,0.00000,20,8,61,12,51,-6,58,8,ok,2,0,0.002,9,0.00,1.21,9.34,45,0.165,8.28
8.9740,0.09948,0.03142,1.03149,0.00000,0.00000,0.00000,20,10,61,12,48,-5,59,8,ok,2,0,0.002,9,0.00,1.21,9.34,45,0.177,8.28
8.9789,0.09948,0.03142,1.03149,0.00000,0.00000,0.00000,21,11,62,13,46,-5,60,9,ok,2,0,0.002,9,0.00,1.21,9.34,45,0.190,8.28
8.9915,0.04363,0.02967,1.04545,0.00000,0.00000,0.00000,21,10,61,14,43,-5,59,10,ok,2,0,0.002,9,1.11,-0.73,10.55,46,0.000,8.28
9.0141,0.04363,0.02967,1.04545,0.00000,0.00000,0.00000,23,9,62,14,40,-5,61,11,ok,2,0,0.002,9,1.11,-0.73,10.55,46,0.013,8.28
9.0172,0.04363,0.02967,1.04545,0.00000,0.00000,0.00000,24,8,62,15,37,-4,61,11,ok,2,0,0.002,9,1.11,-0.73,10.55,46,0.026,8.28
9.0301,0.04363,0.02967,1.04545,0.00000,0.00000,0.00000,24,8,62,15,34,-3,62,12,ok,2,0,0.002,9,1.11,-0.73,10.55,46,0.039,8.28
9.0500,0.04363,0.02967,1.04545,0.00000,0.00000,0.00000,26,7,63,16,31,-2,61,13,ok,2,0,0.002,9,1.11,-0.73,10.55,46,0.051,8.28
9.0549,0.04363,0.02967,1.04545,0.00000,0.00000,0.00000,26,6,63,17,29,0,62,14,ok,2,0,0.002,9,1.11,-0.73,10.55,46,0.064,8.28
9.0674,0.04363,0.02967,1.04545,0.00000,0.00000,0.00000,28,5,64,18,28,2,63,15,ok,2,0,0.002,9,1.11,-0.73,10.55,46,0.076,8.28
9.0900,0.04363,0.02967,1.04545,0.00000,0.00000,0.00000,28,4,64,20,25,5,63,15,ok,2,0,0.002,9,1.11,-0.73,10.55,46,0.089,8.28
9.0931,0.04363,0.02967,1.04545,0.00000,0.00000,0.00000,29,4,64,21,24,8,63,16,ok,2,0,0.002,9,1.11,-0.73,10.55,46,0.102,8.28
9.1058,0.04363,0.02967,1.04545,0.00000,0.00000,0.00000,30,3,64,22,23,11,63,17,ok,2,0,0.002,9,1.11,-0.73,10.55,46,0.115,8.28
9.1260,0.04363,0.02967,1.04545,0.00000,0.00000,0.00000,31,3,64,23,22,14,64,18,ok,2,0,0.002,9,1.11,-0.73,10.55,46,0.127,8.28
9.1308,0.04363,0.02967,1.04545,0.00000,0.00000,0.00000,32,3,63,26,24,13,64,19,ok,2,0,0.002,9,1.11,-0.73,10.55,46,0.140,8.28
9.1433,0.04363,0.02967,1.04545,0.00000,0.00000,0.00000,32,2,63,27,24,14,64,19,ok,2,0,0.002,9,1.11,-0.73,10.55,46,0.152,8.28
9.1660,0.04363,0.02967,1.04545,0.00000,0.00000,0.00000,33,2,65,26,25,11,64,20,ok,2,0,0.002,9,1.11,-0.73,10.55,46,0.165,8.28
9.1693,0.04363,0.02967,1.04545,0.00000,0.00000,0.00000,35,1,67,22,26,11,65,21,ok,2,0,0.002,9,1.11,-0.73,10.55,46,0.178,8.28
9.1821,0.04363,0.02967,1.04545,0.00000,0.00000,0.00000,36,1,69,19,28,11,65,22,ok,2,0,0.002,9,1.11,-0.73,10.55,46,0.191,8.28
9.2020,-0.00349,0.07854,1.02276,0.00000,0.00000,0.00000,37,1,70,15,29,10,64,23,ok,2,0,0.002,9,-0.65,-0.35,10.42,47,0.000,8.28
9.2068,-0.00349,0.07854,1.02276,0.00000,0.00000,0.00000,38,1,71,13,30,9,64,25,ok,2,0,0.002,9,-0.65,-0.35,10.42,47,0.012,8.28
9.2195,-0.00349,0.07854,1.02276,0.00000,0.00000,0.00000,40,1,70,12,32,9,65,26,ok,2,0,0.002,9,-0.65,-0.35,10.42,47,0.025,8.28
9.2420,-0.00349,0.07854,1.02276,0.00000,0.00000,0.00000,40,1,70,9,32,9,64,28,ok,2,0,0.002,9,-0.65,-0.35,10.42,47,0.038,8.28
9.2451,-0.00349,0.07854,1.02276,0.00000,0.00000,0.00000,42,2,69,6,35,9,64,30,ok,2,0,0.002,9,-0.65,-0.35,10.42,47,0.051,8.28
9.2578,-0.00349,0.07854,1.02276,0.00000,0.00000,0.00000,43,2,69,3,36,8,64,31,ok,2,0,0.002,9,-0.65,-0.35,10.42,47,0.063,8.28
9.2780,-0.00349,0.07854,1.02276,0.00000,0.00000,0.00000,44,2,67,1,37,9,64,32,ok,2,0,0.002,9,-0.65,-0.35,10.42,47,0.076,8.28
9.2828,-0.00349,0.07854,1.02276,0.00000,0.00000,0.00000,44,1,66,-1,38,8,64,34,ok,2,0,0.002,9,-0.65,-0.35,10.42,47,0.088,8.28
9.2953,-0.00349,0.07854,1.02276,0.00000,0.00000,0.00000,45,2,64,-3,39,8,63,35,ok,2,0,0.002,9,-0.65,-0.35,10.42,47,0.101,8.28
9.3180,-0.00349,0.07854,1.02276,0.00000,0.00000,0.00000,46,2,62,-4,41,7,64,35,ok,2,0,0.002,9,-0.65,-0.35,10.42,47,0.113,8.28
9.3211,-0.00349,0.07854,1.02276,0.00000,0.00000,0.00000,47,2,61,-5,42,7,66,34,ok,2,0,0.002,9,-0.65,-0.35,10.42,47,0.127,8.28
9.3338,-0.00349,0.07854,1.02276,0.00000,0.00000,0.00000,48,2,60,-8,43,7,68,32,ok,2,0,0.002,9,-0.65,-0.35,10.42,47,0.140,8.28
9.3540,-0.00349,0.07854,1.02276,0.00000,0.00000,0.00000,48,3,57,-8,44,7,70,27,ok,2,0,0.002,9,-0.65,-0.35,10.42,47,0.152,8.28
9.3590,-0.00349,0.07854,1.02276,0.00000,0.00000,0.00000,50,3,55,-9,45,7,71,23,ok,2,0,0.002,9,-0.65,-0.35,10.42,47,0.164,8.28
9.3713,-0.00349,0.07854,1.02276,0.00000,0.00000,0.00000,50,3,53,-9,46,7,72,20,ok,2,0,0.002,9,-0.65,-0.35,10.42,47,0.177,8.28
9.3940,-0.00349,0.07854,1.02276,0.00000,0.00000,0.00000,50,5,51,-10,47,7,73,20,ok,2,0,0.002,9,-0.65,-0.35,10.42,47,0.190,8.28
9.3974,-0.12043,0.02967,1.06814,0.00000,0.00000,0.00000,51,5,49,-10,48,7,73,18,ok,2,0,0.002,9,0.06,-1.63,9.76,48,0.000,8.28
9.4098,-0.12043,0.02967,1.06814,0.00000,0.00000,0.00000,52,5,46,-10,49,7,73,15,ok,2,0,0.002,9,0.06,-1.63,9.76,48,0.013,8.28
9.4300,-0.12043,0.02967,1.06814,0.00000,0.00000,0.00000,52,5,44,-9,49,7,73,12,ok,2,0,0.002,9,0.06,-1.63,9.76,48,0.025,8.28
9.4348,-0.12043,0.02967,1.06814,0.00000,0.00000,0.00000,53,6,41,-10,50,7,72,10,ok,2,0,0.002,9,0.06,-1.63,9.76,48,0.038,8.28
9.4472,-0.12043,0.02967,1.06814,0.00000,0.00000,0.00000,55,6,39,-10,50,7,71,7,ok,2,0,0.002,9,0.06,-1.63,9.76,48,0.050,8.28
9.4700,-0.12043,0.02967,1.06814,0.00000,0.00000,0.00000,55,6,36,-9,52,6,71,5,ok,2,0,0.002,9,0.06,-1.63,9.76,48,0.063,8.28
9.4731,-0.12043,0.02967,1.06814,0.00000,0.00000,0.00000,56,6,33,-8,52,7,70,4,ok,2,0,0.002,9,0.06,-1.63,9.76,48,0.076,8.28
9.4861,-0.12043,0.02967,1.06814,0.00000,0.00000,0.00000,56,7,30,-7,53,8,68,2,ok,2,0,0.002,9,0.06,-1.63,9.76,48,0.089,8.28
9.5060,-0.12043,0.02967,1.06814,0.00000,0.00000,0.00000,56,7,27,-6,54,8,66,1,ok,2,0,0.003,9,0.06,-1.63,9.76,48,0.101,8.28
9.5108,-0.12043,0.02967,1.06814,0.00000,0.00000,0.00000,57,8,24,-4,55,8,65,0,ok,2,0,0.003,9,0.06,-1.63,9.76,48,0.114,8.28
9.5235,-0.12043,0.02967,1.06814,0.00000,0.00000,0.00000,58,9,20,-2,56,8,64,-2,ok,2,0,0.003,9,0.06,-1.63,9.76,48,0.126,8.28
9.5460,-0.12043,0.02967,1.06814,0.00000,0.00000,0.00000,58,9,19,-1,58,6,62,-3,ok,2,0,0.003,9,0.06,-1.63,9.76,48,0.139,8.28
9.5491,-0.12043,0.02967,1.06814,0.00000,0.00000,0.00000,59,10,18,1,58,7,60,-4,ok,2,0,0.003,9,0.06,-1.63,9.76,48,0.152,8.28
9.5618,-0.12043,0.02967,1.06814,0.00000,0.00000,0.00000,59,10,16,3,59,8,58,-5,ok,2,0,0.003,9,0.06,-1.63,9.76,48,0.165,8.28
9.5820,-0.12043,0.02967,1.06814,0.00000,0.00000,0.00000,59,11,15,6,59,8,55,-5,ok,2,0,0.003,9,0.06,-1.63,9.76,48,0.177,8.28
9.5868,-0.12043,0.02967,1.06814,0.00000,0.00000,0.00000,59,12,13,9,59,9,54,-6,ok,2,0,0.003,9,0.06,-1.63,9.76,48,0.190,8.28
9.5995,-0.02618,0.12217,1.02974,0.00000,0.00000,0.00000,60,12,12,11,60,9,50,-5,ok,2,0,0.003,9,2.64,-0.30,9.72,49,0.000,8.28
9.6220,-0.02618,0.12217,1.02974,0.00000,0.00000,0.00000,60,13,14,12,60,10,48,-5,ok,2,0,0.003,9,2.64,-0.30,9.72,49,0.012,8.28
9.6251,-0.02618,0.12217,1.02974,0.00000,0.00000,0.00000,59,14,15,11,61,11,45,-5,ok,2,0,0.003,9,2.64,-0.30,9.72,49,0.026,8.28
9.6378,-0.02618,0.12217,1.02974,0.00000,0.00000,0.00000,60,14,16,10,61,11,42,-4,ok,2,0,0.003,9,2.64,-0.30,9.72,49,0.039,8.28
9.6580,-0.02618,0.12217,1.02974,0.00000,0.00000,0.00000,60,15,18,9,62,12,40,-4,ok,2,0,0.003,9,2.64,-0.30,9.72,49,0.051,8.28
9.6632,-0.02618,0.12217,1.02974,0.00000,0.00000,0.00000,60,16,19,8,62,12,37,-3,ok,2,0,0.003,10,2.64,-0.30,9.72,49,0.064,8.28
9.6753,-0.02618,0.12217,1.02974,0.00000,0.00000,0.00000,60,17,20,7,62,13,35,-3,ok,2,0,0.003,10,2.64,-0.30,9.72,49,0.076,8.28
9.6980,-0.02618,0.12217,1.02974,0.00000,0.00000,0.00000,60,18,20,7,62,14,31,-1,ok,2,0,0.003,10,2.64,-0.30,9.72,49,0.089,8.28
9.7012,-0.02618,0.12217,1.02974,0.00000,0.00000,0.00000,61,19,22,6,63,14,30,0,ok,2,0,0.003,10,2.64,-0.30,9.72,49,0.102,8.28
9.7139,-0.02618,0.12217,1.02974,0.00000,0.00000,0.00000,61,20,23,5,63,15,28,1,ok,2,0,0.003,10,2.64,-0.30,9.72,49,0.115,8.28
9.7340,-0.02618,0.12217,1.02974,0.00000,0.00000,0.00000,61,21,23,5,63,16,26,5,ok,2,0,0.003,10,2.64,-0.30,9.72,49,0.127,8.28
9.7391,-0.02618,0.12217,1.02974,0.00000,0.00000,0.00000,61,22,24,4,64,17,25,7,ok,2,0,0.003,10,2.64,-0.30,9.72,49,0.140,8.28
9.7513,-0.02618,0.12217,1.02974,0.00000,0.00000,0.00000,61,22,25,3,64,18,23,11,ok,2,0,0.003,10,2.64,-0.30,9.72,49,0.152,8.28
9.7740,-0.02618,0.12217,1.02974,0.00000,0.00000,0.00000,60,25,26,3,64,19,23,13,ok,2,0,0.003,10,2.64,-0.30,9.72,49,0.165,8.28
9.7771,-0.02618,0.12217,1.02974,0.00000,0.00000,0.00000,60,26,27,2,64,20,25,12,ok,2,0,0.003,10,2.64,-0.30,9.72,49,0.178,8.28
9.7898,-0.02618,0.12217,1.02974,0.00000,0.00000,0.00000,61,24,28,2,65,21,25,11,ok,2,0,0.003,10,2.64,-0.30,9.72,49,0.191,8.28
9.8100,-0.02618,0.12217,1.02974,0.00000,0.00000,0.00000,63,21,29,2,65,22,26,10,ok,2,0,0.003,10,2.64,-0.30,9.72,49,0.203,8.28
9.8151,-0.05411,0.08378,1.09083,0.00000,0.00000,0.00000,65,17,30,1,64,23,27,9,ok,2,0,0.003,10,-0.60,-0.49,9.80,50,0.000,8.28
9.8275,-0.05411,0.08378,1.09083,0.00000,0.00000,0.00000,66,13,32,2,64,25,28,10,ok,2,0,0.003,10,-0.60,-0.49,9.80,50,0.013,8.28
9.8500,-0.05411,0.08378,1.09083,0.00000,0.00000,0.00000,66,11,33,2,65,25,30,9,ok,2,0,0.003,10,-0.60,-0.49,9.80,50,0.025,8.28
9.8531,-0.05411,0.08378,1.09083,0.00000,0.00000,0.00000,66,10,35,2,64,28,31,9,ok,2,0,0.003,10,-0.60,-0.49,9.80,50,0.038,8.28
9.8660,-0.05411,0.08378,1.09083,0.00000,0.00000,0.00000,66,7,36,2,64,29,33,9,ok,2,0,0.003,10,-0.60,-0.49,9.80,50,0.051,8.28
9.8860,-0.05411,0.08378,1.09083,0.00000,0.00000,0.00000,65,4,38,3,64,30,34,9,ok,2,0,0.003,10,-0.60,-0.49,9.80,50,0.064,8.28
9.8908,-0.05411,0.08378,1.09083,0.00000,0.00000,0.00000,64,2,39,3,64,32,35,8,ok,2,0,0.003,10,-0.60,-0.49,9.80,50,0.076,8.28
9.9033,-0.05411,0.08378,1.09083,0.00000,0.00000,0.00000,64,-1,41,3,64,34,36,8,ok,2,0,0.003,10,-0.60,-0.49,9.80,50,0.089,8.28
9.9260,-0.05411,0.08378,1.09083,0.00000,0.00000,0.00000,63,-3,42,2,64,35,37,8,ok,2,0,0.003,10,-0.60,-0.49,9.80,50,0.101,8.28
9.9291,-0.05411,0.08378,1.09083,0.00000,0.00000,0.00000,62,-4,44,3,65,35,38,8,ok,2,0,0.003,10,-0.60,-0.49,9.80,50,0.114,8.28
9.9418,-0.05411,0.08378,1.09083,0.00000,0.00000,0.00000,60,-5,44,3,66,35,40,8,ok,2,0,0.003,10,-0.60,-0.49,9.80,50,0.127,8.28
9.9620,-0.05411,0.08378,1.09083,0.00000,0.00000,0.00000,60,-6,45,3,68,33,41,7,ok,2,0,0.003,10,-0.60,-0.49,9.80,50,0.140,8.28
9.9670,-0.05411,0.08378,1.09083,0.00000,0.00000,0.00000,59,-8,46,3,70,28,42,7,ok,2,0,0.003,10,-0.60,-0.49,9.80,50,0.152,8.28
9.9793,-0.05411,0.08378,1.09083,0.00000,0.00000,0.00000,56,-9,47,4,71,24,43,7,ok,2,0,0.003,10,-0.60,-0.49,9.80,50,0.165,8.28
10.0020,-0.05411,0.08378,1.09083,0.00000,0.00000,0.00000,55,-10,49,4,73,21,44,7,ok,2,0,0.003,10,-0.60,-0.49,9.80,50,0.177,8.28
10.0055,-0.05411,0.08378,1.09083,0.00000,0.00000,0.00000,53,-10,49,3,74,21,45,7,ok,2,0,0.003,10,-0.60,-0.49,9.80,50,0.190,8.28
10.0181,0.04887,0.03142,1.09781,0.00000,0.00000,0.00000,52,-11,49,5,74,18,46,7,ok,2,0,0.003,10,0.44,0.73,9.18,51,0.000,8.28
10.0460,0.04887,0.03142,1.09781,0.00000,0.00000,0.00000,49,-11,51,6,74,15,47,8,ok,2,0,0.003,10,0.44,0.73,9.18,51,0.013,8.28
10.0491,0.04887,0.03142,1.09781,0.00000,0.00000,0.00000,47,-11,51,5,74,12,48,8,ok,2,0,0.003,10,0.44,0.73,9.18,51,0.031,8.28
10.0621,0.04887,0.03142,1.09781,0.00000,0.00000,0.00000,45,-10,53,6,73,10,49,8,ok,2,0,0.003,10,0.44,0.73,9.18,51,0.044,8.28
10.0820,0.04887,0.03142,1.09781,0.00000,0.00000,0.00000,43,-10,53,6,73,7,49,8,ok,2,0,0.003,10,0.44,0.73,9.18,51,0.057,8.28
10.0871,0.04887,0.03142,1.09781,0.00000,0.00000,0.00000,40,-10,55,6,72,5,50,8,ok,2,0,0.003,10,0.44,0.73,9.18,51,0.069,8.21
10.0993,0.04887,0.03142,1.09781,0.00000,0.00000,0.00000,39,-9,56,6,71,4,51,8,ok,2,0,0.003,10,0.44,0.73,9.18,51,0.082,8.21
10.1220,0.04887,0.03142,1.09781,0.00000,0.00000,0.00000,36,-8,57,6,69,1,52,7,ok,2,0,0.003,10,0.44,0.73,9.18,51,0.094,8.21
10.1252,0.04887,0.03142,1.09781,0.00000,0.00000,0.00000,34,-7,57,7,66,1,52,8,ok,2,0,0.003,10,0.44,0.73,9.18,51,0.107,8.21
10.1377,0.04887,0.03142,1.09781,0.00000,0.00000,0.00000,31,-5,58,7,65,-1,53,8,ok,2,0,0.003,10,0.44,0.73,9.18,51,0.120,8.21
10.1580,0.04887,0.03142,1.09781,0.00000,0.00000,0.00000,29,-4,58,8,63,-2,54,8,ok,2,0,0.003,10,0.44,0.73,9.18,51,0.133,8.21
10.1627,0.04887,0.03142,1.09781,0.00000,0.00000,0.00000,26,-2,59,9,61,-4,55,8,ok,2,0,0.003,10,0.44,0.73,9.18,51,0.145,8.21
10.1754,0.04887,0.03142,1.09781,0.00000,0.00000,0.00000,25,-2,60,11,60,-5,55,8,ok,2,0,0.003,10,0.44,0.73,9.18,51,0.158,8.21
10.1980,0.04887,0.03142,1.09781,0.00000,0.00000,0.00000,24,-1,60,10,58,-5,57,6,ok,2,0,0.003,10,0.44,0.73,9.18,51,0.170,8.21
10.2014,0.04887,0.03142,1.09781,0.00000,0.00000,0.00000,23,2,61,11,56,-6,57,7,ok,2,0,0.003,10,0.44,0.73,9.18,51,0.183,8.21
10.2141,0.02269,0.03491,1.11876,0.00000,0.00000,0.00000,22,5,61,11,54,-7,58,8,ok,2,0,0.003,10,-0.68,0.69,9.45,52,0.000,8.21
10.2340,0.02269,0.03491,1.11876,0.00000,0.00000,0.00000,20,8,61,12,51,-6,59,8,ok,2,0,0.003,10,-0.68,0.69,9.45,52,0.013,8.21
10.2388,0.02269,0.03491,1.11876,0.00000,0.00000,0.00000,20,10,61,12,48,-6,59,9,ok,2,0,0.003,10,-0.68,0.69,9.45,52,0.025,8.21
10.2515,0.02269,0.03491,1.11876,0.00000,0.00000,0.00000,21,11,61,13,46,-6,60,9,ok,2,0,0.003,10,-0.68,0.69,9.45,52,0.038,8.21
10.2740,0.02269,0.03491,1.11876,0.00000,0.00000,0.00000,21,10,61,14,43,-5,60,10,ok,2,0,0.003,10,-0.68,0.69,9.45,52,0.050,8.21
10.2772,0.02269,0.03491,1.11876,0.00000,0.00000,0.00000,23,9,62,14,40,-5,61,11,ok,2,0,0.003,10,-0.68,0.69,9.45,52,0.063,8.21
10.2898,0.02269,0.03491,1.11876,0.00000,0.00000,0.00000,24,8,62,15,37,-4,61,11,ok,2,0,0.003,10,-0.68,0.69,9.45,52,0.076,8.21
10.3100,0.02269,0.03491,1.11876,0.00000,0.00000,0.00000,24,8,62,15,34,-3,61,13,ok,2,0,0.003,10,-0.68,0.69,9.45,52,0.089,8.21
10.3148,0.02269,0.03491,1.11876,0.00000,0.00000,0.00000,26,7,63,16,31,-2,61,13,ok,2,0,0.003,10,-0.68,0.69,9.45,52,0.101,8.21
10.3273,0.02269,0.03491,1.11876,0.00000,0.00000,0.00000,26,7,63,17,29,0,62,14,ok,2,0,0.003,10,-0.68,0.69,9.45,52,0.114,8.21
10.3500,0.02269,0.03491,1.11876,0.00000,0.00000,0.00000,28,6,64,18,28,1,62,15,ok,2,0,0.003,10,-0.68,0.69,9.45,52,0.126,8.21
10.3531,0.02269,0.03491,1.11876,0.00000,0.00000,0.00000,28,5,64,19,25,5,63,15,ok,2,0,0.003,10,-0.68,0.69,9.45,52,0.139,8.21
10.3658,0.02269,0.03491,1.11876,0.00000,0.00000,0.00000,29,4,64,20,24,8,63,16,ok,2,0,0.003,10,-0.68,0.69,9.45,52,0.152,8.21
10.3860,0.02269,0.03491,1.11876,0.00000,0.00000,0.00000,30,4,64,22,23,11,63,17,ok,2,0,0.003,10,-0.68,0.69,9.45,52,0.164,8.21
10.3909,0.02269,0.03491,1.11876,0.00000,0.00000,0.00000,31,3,64,23,22,14,64,18,ok,2,0,0.003,10,-0.68,0.69,9.45,52,0.177,8.21
10.4033,0.02269,0.03491,1.11876,0.00000,0.00000,0.00000,32,3,63,25,24,13,64,18,ok,2,0,0.003,10,-0.68,0.69,9.45,52,0.189,8.21
10.4260,0.02269,0.03491,1.11876,0.00000,0.00000,0.00000,32,2,63,27,24,14,64,19,ok,2,0,0.003,10,-0.68,0.69,9.45,52,0.202,8.21
10.4294,0.00524,0.05760,1.08734,0.00000,0.00000,0.00000,34,2,64,25,25,11,64,20,ok,2,0,0.003,10,0.96,0.22,8.21,53,0.000,8.21
10.4418,0.00524,0.05760,1.08734,0.00000,0.00000,0.00000,35,2,67,22,26,11,65,21,ok,2,0,0.003,10,0.96,0.22,8.21,53,0.013,8.21
10.4660,0.00524,0.05760,1.08734,0.00000,0.00000,0.00000,36,1,69,19,28,11,65,22,ok,2,0,0.003,10,0.96,0.22,8.21,53,0.025,8.21
10.4693,0.00524,0.05760,1.08734,0.00000,0.00000,0.00000,37,1,70,15,29,10,64,23,ok,2,0,0.003,10,0.96,0.22,8.21,53,0.040,8.21
10.4819,0.00524,0.05760,1.08734,0.00000,0.00000,0.00000,38,1,70,13,30,9,64,25,ok,2,0,0.003,10,0.96,0.22,8.21,53,0.053,8.21
10.5020,0.00524,0.05760,1.08734,0.00000,0.00000,0.00000,40,1,70,12,33,9,65,26,ok,2,0,0.003,10,0.96,0.22,8.21,53,0.065,8.21
10.5068,0.00524,0.05760,1.08734,0.00000,0.00000,0.00000,40,1,70,9,33,9,64,28,ok,2,0,0.003,10,0.96,0.22,8.21,53,0.078,8.21
10.5195,0.00524,0.05760,1.08734,0.00000,0.00000,0.00000,42,2,69,6,35,9,64,30,ok,2,0,0.003,10,0.96,0.22,8.21,53,0.090,8.21
10.5420,0.00524,0.05760,1.08734,0.00000,0.00000,0.00000,43,2,68,3,36,8,64,31,ok,2,0,0.003,10,0.96,0.22,8.21,53,0.103,8.21
10.5452,0.00524,0.05760,1.08734,0.00000,0.00000,0.00000,44,2,67,0,37,9,64,33,ok,2,0,0.003,10,0.96,0.22,8.21,53,0.116,8.21
10.5578,0.00524,0.05760,1.08734,0.00000,0.00000,0.00000,44,2,66,-2,38,8,64,34,ok,2,0,0.003,10,0.96,0.22,8.21,53,0.129,8.21
10.5780,0.00524,0.05760,1.08734,0.00000,0.00000,0.00000,46,2,64,-3,39,8,63,35,ok,2,0,0.003,10,0.96,0.22,8.21,53,0.141,8.21
10.5830,0.00524,0.05760,1.08734,0.00000,0.00000,0.00000,46,2,62,-4,41,7,64,35,ok,2,0,0.003,10,0.96,0.22,8.21,53,0.154,8.21
10.5953,0.00524,0.05760,1.08734,0.00000,0.00000,0.00000,47,3,61,-6,42,7,66,34,ok,2,0,0.003,10,0.96,0.22,8.21,53,0.166,8.21
10.6180,0.00524,0.05760,1.08734,0.00000,0.00000,0.00000,48,3,60,-8,43,7,67,32,ok,2,0,0.003,10,0.96,0.22,8.21,53,0.179,8.21
10.6211,0.00524,0.05760,1.08734,0.00000,0.00000,0.00000,49,3,58,-8,44,7,69,27,ok,2,0,0.003,10,0.96,0.22,8.21,53,0.192,8.21
10.6341,-0.12392,0.02793,1.11527,0.00000,0.00000,0.00000,50,3,55,-9,45,7,71,23,ok,2,0,0.003,10,0.27,-1.02,12.62,54,0.000,8.21
10.6540,-0.12392,0.02793,1.11527,0.00000,0.00000,0.00000,50,2,53,-9,46,7,73,21,ok,2,0,0.003,10,0.27,-1.02,12.62,54,0.012,8.21
10.6588,-0.12392,0.02793,1.11527,0.00000,0.00000,0.00000,51,5,51,-10,47,7,73,20,ok,2,0,0.003,10,0.27,-1.02,12.62,54,0.025,8.21
10.6715,-0.12392,0.02793,1.11527,0.00000,0.00000,0.00000,52,5,49,-10,47,7,73,18,ok,2,0,0.003,10,0.27,-1.02,12.62,54,0.037,8.21
10.6940,-0.12392,0.02793,1.11527,0.00000,0.00000,0.00000,52,4,46,-10,48,7,73,14,ok,2,0,0.003,11,0.27,-1.02,12.62,54,0.050,8.21
10.6971,-0.12392,0.02793,1.11527,0.00000,0.00000,0.00000,52,5,44,-9,49,7,73,12,ok,2,0,0.003,11,0.27,-1.02,12.62,54,0.063,8.21
10.7099,-0.12392,0.02793,1.11527,0.00000,0.00000,0.00000,53,6,41,-9,50,7,72,11,ok,2,0,0.003,11,0.27,-1.02,12.62,54,0.076,8.21
10.7300,-0.12392,0.02793,1.11527,0.00000,0.00000,0.00000,55,6,39,-10,51,7,71,7,ok,2,0,0.003,11,0.27,-1.02,12.62,54,0.088,8.21
10.7348,-0.12392,0.02793,1.11527,0.00000,0.00000,0.00000,55,6,36,-9,52,7,71,6,ok,2,0,0.003,11,0.27,-1.02,12.62,54,0.101,8.21
10.7474,-0.12392,0.02793,1.11527,0.00000,0.00000,0.00000,56,6,33,-8,52,7,70,4,ok,2,0,0.003,11,0.27,-1.02,12.62,54,0.113,8.21
10.7700,-0.12392,0.02793,1.11527,0.00000,0.00000,0.00000,56,7,30,-7,53,7,68,2,ok,2,0,0.003,11,0.27,-1.02,12.62,54,0.126,8.21
10.7732,-0.12392,0.02793,1.11527,0.00000,0.00000,0.00000,56,8,27,-6,54,8,66,2,ok,2,0,0.003,11,0.27,-1.02,12.62,54,0.139,8.21
10.7861,-0.12392,0.02793,1.11527,0.00000,0.00000,0.00000,57,9,24,-4,55,8,65,0,ok,2,0,0.003,11,0.27,-1.02,12.62,54,0.152,8.21
10.8060,-0.12392,0.02793,1.11527,0.00000,0.00000,0.00000,58,10,20,-2,56,8,64,-2,ok,2,0,0.003,11,0.27,-1.02,12.62,54,0.165,8.21
10.8109,-0.12392,0.02793,1.11527,0.00000,0.00000,0.00000,58,10,19,-1,58,6,62,-3,ok,2,0,0.003,11,0.27,-1.02,12.62,54,0.177,8.21
10.8234,-0.12392,0.02793,1.11527,0.00000,0.00000,0.00000,59,10,18,1,58,7,60,-4,ok,2,0,0.003,11,0.27,-1.02,12.62,54,0.190,8.21
10.8460,-0.02443,0.05236,1.07861,0.00000,0.00000,0.00000,59,11,16,3,59,8,58,-5,ok,2,0,0.003,11,1.01,-0.13,9.57,55,0.000,8.21
10.8491,-0.02443,0.05236,1.07861,0.00000,0.00000,0.00000,59,11,15,6,59,9,55,-6,ok,2,0,0.003,11,1.01,-0.13,9.57,55,0.013,8.21
10.8618,-0.02443,0.05236,1.07861,0.00000,0.00000,0.00000,59,12,13,9,60,9,53,-6,ok,2,0,0.003,11,1.01,-0.13,9.57,55,0.026,8.21
10.8820,-0.02443,0.05236,1.07861,0.00000,0.00000,0.00000,60,12,12,11,60,10,50,-5,ok,2,0,0.003,11,1.01,-0.13,9.57,55,0.038,8.21
10.8869,-0.02443,0.05236,1.07861,0.00000,0.00000,0.00000,60,13,14,12,61,10,47,-5,ok,2,0,0.003,11,1.01,-0.13,9.57,55,0.051,8.21
10.8993,-0.02443,0.05236,1.07861,0.00000,0.00000,0.00000,59,14,15,11,61,11,45,-5,ok,2,0,0.003,11,1.01,-0.13,9.57,55,0.063,8.21
10.9220,-0.02443,0.05236,1.07861,0.00000,0.00000,0.00000,60,14,16,10,61,11,42,-4,ok,2,0,0.003,11,1.01,-0.13,9.57,55,0.076,8.21
10.9253,-0.02443,0.05236,1.07861,0.00000,0.00000,0.00000,60,15,18,9,61,12,40,-4,ok,2,0,0.003,11,1.01,-0.13,9.57,55,0.089,8.21
10.9379,-0.02443,0.05236,1.07861,0.00000,0.00000,0.00000,60,16,19,8,61,12,37,-3,ok,2,0,0.003,11,1.01,-0.13,9.57,55,0.102,8.21
10.9580,-0.02443,0.05236,1.07861,0.00000,0.00000,0.00000,60,17,21,7,62,13,35,-3,ok,2,0,0.003,11,1.01,-0.13,9.57,55,0.114,8.21
10.9628,-0.02443,0.05236,1.07861,0.00000,0.00000,0.00000,60,18,21,7,62,14,31,-1,ok,2,0,0.003,11,1.01,-0.13,9.57,55,0.127,8.21
10.9753,-0.02443,0.05236,1.07861,0.00000,0.00000,0.00000,61,19,23,6,63,14,30,0,ok,2,0,0.003,11,1.01,-0.13,9.57,55,0.139,8.21
10.9980,-0.02443,0.05236,1.07861,0.00000,0.00000,0.00000,61,20,24,5,63,15,28,1,ok,2,0,0.003,11,1.01,-0.13,9.57,55,0.152,8.21
11.0013,-0.02443,0.05236,1.07861,0.00000,0.00000,0.00000,62,21,24,5,63,16,26,4,ok,2,0,0.003,11,1.01,-0.13,9.57,55,0.165,8.21
11.0138,-0.02443,0.05236,1.07861,0.00000,0.00000,0.00000,62,22,25,4,63,17,24,7,ok,2,0,0.003,11,1.01,-0.13,9.57,55,0.178,8.21
11.0340,-0.02443,0.05236,1.07861,0.00000,0.00000,0.00000,62,23,26,3,64,17,23,11,ok,2,0,0.003,11,1.01,-0.13,9.57,55,0.190,8.21
11.0392,-0.07505,0.13265,1.13097,0.00000,0.00000,0.00000,61,26,27,3,64,19,23,13,ok,2,0,0.003,11,-0.42,-1.19,8.18,56,0.000,8.21
11.0513,-0.07505,0.13265,1.13097,0.00000,0.00000,0.00000,61,26,27,2,64,19,25,12,ok,2,0,0.003,11,-0.42,-1.19,8.18,56,0.013,8.21
11.0740,-0.07505,0.13265,1.13097,0.00000,0.00000,0.00000,62,25,29,2,64,21,25,12,ok,2,0,0.003,11,-0.42,-1.19,8.18,56,0.025,8.21
11.0773,-0.07505,0.13265,1.13097,0.00000,0.00000,0.00000,64,21,29,2,64,22,26,10,ok,2,0,0.003,11,-0.42,-1.19,8.18,56,0.038,8.21
11.0899,-0.07505,0.13265,1.13097,0.00000,0.00000,0.00000,65,17,30,2,64,23,27,9,ok,2,0,0.003,11,-0.42,-1.19,8.18,56,0.051,8.21
11.1100,-0.07505,0.13265,1.13097,0.00000,0.00000,0.00000,66,13,32,2,64,24,28,10,ok,2,0,0.003,11,-0.42,-1.19,8.18,56,0.064,8.21
11.1148,-0.07505,0.13265,1.13097,0.00000,0.00000,0.00000,66,10,33,2,65,25,29,9,ok,2,0,0.003,11,-0.42,-1.19,8.18,56,0.076,8.21
11.1273,-0.07505,0.13265,1.13097,0.00000,0.00000,0.00000,66,10,35,2,64,27,31,9,ok,2,0,0.003,11,-0.42,-1.19,8.18,56,0.089,8.21
11.1500,-0.07505,0.13265,1.13097,0.00000,0.00000,0.00000,66,7,36,2,64,29,33,9,ok,2,0,0.003,11,-0.42,-1.19,8.18,56,0.101,8.21
11.1533,-0.07505,0.13265,1.13097,0.00000,0.00000,0.00000,65,4,38,3,64,30,33,9,ok,2,0,0.003,11,-0.42,-1.19,8.18,56,0.114,8.21
11.1658,-0.07505,0.13265,1.13097,0.00000,0.00000,0.00000,64,1,39,3,64,32,35,9,ok,2,0,0.003,11,-0.42,-1.19,8.18,56,0.127,8.21
11.1860,-0.07505,0.13265,1.13097,0.00000,0.00000,0.00000,64,-1,41,3,64,34,36,9,ok,2,0,0.003,11,-0.42,-1.19,8.18,56,0.139,8.21
11.1908,-0.07505,0.13265,1.13097,0.00000,0.00000,0.00000,63,-3,42,2,64,35,37,8,ok,2,0,0.003,11,-0.42,-1.19,8.18,56,0.152,8.21
11.2035,-0.07505,0.13265,1.13097,0.00000,0.00000,0.00000,62,-4,43,2,65,35,38,8,ok,2,0,0.003,11,-0.42,-1.19,8.18,56,0.165,8.21
11.2260,-0.07505,0.13265,1.13097,0.00000,0.00000,0.00000,60,-5,43,2,66,35,40,8,ok,2,0,0.003,11,-0.42,-1.19,8.18,56,0.177,8.21
11.2291,-0.07505,0.13265,1.13097,0.00000,0.00000,0.00000,59,-6,44,3,68,33,41,7,ok,2,0,0.003,11,-0.42,-1.19,8.18,56,0.190,8.21
11.2421,0.07505,0.06283,1.16239,0.00000,0.00000,0.00000,59,-9,46,3,70,28,42,7,ok,2,0,0.003,11,0.47,0.11,11.01,57,0.000,8.21
11.2620,0.07505,0.06283,1.16239,0.00000,0.00000,0.00000,56,-9,47,3,72,25,43,7,ok,2,0,0.003,11,0.47,0.11,11.01,57,0.013,8.21
11.2669,0.07505,0.06283,1.16239,0.00000,0.00000,0.00000,54,-10,48,3,74,22,44,7,ok,2,0,0.003,11,0.47,0.11,11.01,57,0.025,8.21
11.2794,0.07505,0.06283,1.16239,0.00000,0.00000,0.00000,52,-10,49,3,75,21,45,7,ok,2,0,0.003,11,0.47,0.11,11.01,57,0.037,8.21
11.3020,0.07505,0.06283,1.16239,0.00000,0.00000,0.00000,51,-11,49,5,75,19,46,7,ok,2,0,0.003,11,0.47,0.11,11.01,57,0.050,8.21
11.3051,0.07505,0.06283,1.16239,0.00000,0.00000,0.00000,49,-10,51,5,75,15,47,7,ok,2,0,0.003,11,0.47,0.11,11.01,57,0.063,8.21
11.3180,0.07505,0.06283,1.16239,0.00000,0.00000,0.00000,47,-10,52,5,74,12,48,7,ok,2,0,0.003,11,0.47,0.11,11.01,57,0.076,8.21
11.3380,0.07505,0.06283,1.16239,0.00000,0.00000,0.00000,45,-9,53,5,73,10,49,7,ok,2,0,0.003,11,0.47,0.11,11.01,57,0.088,8.21
11.3428,0.07505,0.06283,1.16239,0.00000,0.00000,0.00000,43,-10,53,6,72,6,50,8,ok,2,0,0.003,11,0.47,0.11,11.01,57,0.101,8.21
11.3553,0.07505,0.06283,1.16239,0.00000,0.00000,0.00000,40,-10,55,6,72,5,50,7,ok,2,0,0.003,11,0.47,0.11,11.01,57,0.114,8.21
11.3780,0.07505,0.06283,1.16239,0.00000,0.00000,0.00000,39,-9,55,6,71,4,51,8,ok,2,0,0.003,11,0.47,0.11,11.01,57,0.126,8.21
11.3811,0.07505,0.06283,1.16239,0.00000,0.00000,0.00000,36,-8,56,7,69,1,52,7,ok,2,0,0.003,11,0.47,0.11,11.01,57,0.139,8.21
11.3940,0.07505,0.06283,1.16239,0.00000,0.00000,0.00000,34,-8,57,8,66,2,52,8,ok,2,0,0.003,11,0.47,0.11,11.01,57,0.152,8.21
11.4140,0.07505,0.06283,1.16239,0.00000,0.00000,0.00000,31,-6,57,8,65,0,53,8,ok,2,0,0.003,11,0.47,0.11,11.01,57,0.165,8.21
11.4188,0.07505,0.06283,1.16239,0.00000,0.00000,0.00000,28,-5,58,8,64,-2,54,8,ok,2,0,0.003,11,0.47,0.11,11.01,57,0.177,8.21
11.4312,0.07505,0.06283,1.16239,0.00000,0.00000,0.00000,25,-2,59,9,62,-4,55,8,ok,2,0,0.003,11,0.47,0.11,11.01,57,0.189,8.21
11.4540,0.07505,0.06283,1.16239,0.00000,0.00000,0.00000,25,-2,60,11,60,-5,55,8,ok,2,0,0.003,11,0.47,0.11,11.01,57,0.202,8.21
11.4574,0.06632,0.01571,1.20253,0.00000,0.00000,0.00000,24,-1,60,10,59,-5,57,6,ok,2,0,0.003,11,0.28,-0.41,9.89,58,0.000,8.21
11.4699,0.06632,0.01571,1.20253,0.00000,0.00000,0.00000,23,1,61,11,56,-6,57,7,ok,2,0,0.003,11,0.28,-0.41,9.89,58,0.013,8.21
11.4900,0.06632,0.01571,1.20253,0.00000,0.00000,0.00000,21,4,61,11,54,-7,58,7,ok,2,0,0.003,11,0.28,-0.41,9.89,58,0.025,8.21
11.4948,0.06632,0.01571,1.20253,0.00000,0.00000,0.00000,20,8,61,12,51,-6,59,8,ok,2,0,0.003,11,0.28,-0.41,9.89,58,0.038,8.21
11.5072,0.06632,0.01571,1.20253,0.00000,0.00000,0.00000,20,10,61,12,48,-5,59,8,ok,2,0,0.003,11,0.28,-0.41,9.89,58,0.050,8.21
11.5300,0.06632,0.01571,1.20253,0.00000,0.00000,0.00000,20,11,62,13,46,-5,60,9,ok,2,0,0.003,11,0.28,-0.41,9.89,58,0.063,8.21
11.5331,0.06632,0.01571,1.20253,0.00000,0.00000,0.00000,21,10,61,13,43,-5,60,10,ok,2,0,0.003,11,0.28,-0.41,9.89,58,0.076,8.21
11.5458,0.06632,0.01571,1.20253,0.00000,0.00000,0.00000,22,9,62,14,40,-5,61,11,ok,2,0,0.003,11,0.28,-0.41,9.89,58,0.089,8.21
11.5660,0.06632,0.01571,1.20253,0.00000,0.00000,0.00000,24,9,62,14,37,-4,61,11,ok,2,0,0.003,11,0.28,-0.41,9.89,58,0.101,8.21
11.5708,0.06632,0.01571,1.20253,0.00000,0.00000,0.00000,24,8,63,15,35,-3,61,12,ok,2,0,0.003,11,0.28,-0.41,9.89,58,0.114,8.21
11.5833,0.06632,0.01571,1.20253,0.00000,0.00000,0.00000,26,7,63,15,31,-1,61,13,ok,2,0,0.003,11,0.28,-0.41,9.89,58,0.126,8.21
11.6060,0.06632,0.01571,1.20253,0.00000,0.00000,0.00000,26,7,63,17,29,0,62,14,ok,2,0,0.003,11,0.28,-0.41,9.89,58,0.139,8.21
11.6091,0.06632,0.01571,1.20253,0.00000,0.00000,0.00000,28,6,64,18,28,2,62,15,ok,2,0,0.003,11,0.28,-0.41,9.89,58,0.152,8.21
11.6219,0.06632,0.01571,1.20253,0.00000,0.00000,0.00000,29,5,64,19,25,5,63,15,ok,2,0,0.003,11,0.28,-0.41,9.89,58,0.165,8.21
11.6420,0.06632,0.01571,1.20253,0.00000,0.00000,0.00000,29,4,64,20,24,8,63,16,ok,2,0,0.003,11,0.28,-0.41,9.89,58,0.177,8.21
11.6469,0.06632,0.01571,1.20253,0.00000,0.00000,0.00000,31,4,64,22,23,11,63,17,ok,2,0,0.003,11,0.28,-0.41,9.89,58,0.190,8.21
11.6596,0.02618,0.08727,1.15366,0.00000,0.00000,0.00000,31,3,64,23,22,14,64,17,ok,2,0,0.003,11,0.54,1.07,8.72,59,0.000,8.21
11.6820,0.02618,0.08727,1.15366,0.00000,0.00000,0.00000,32,3,63,26,24,13,64,18,ok,2,0,0.003,11,0.54,1.07,8.72,59,0.013,8.21
11.6853,0.02618,0.08727,1.15366,0.00000,0.00000,0.00000,32,2,63,27,24,13,64,19,ok,2,0,0.003,11,0.54,1.07,8.72,59,0.026,8.21
11.6978,0.02618,0.08727,1.15366,0.00000,0.00000,0.00000,34,2,64,26,25,11,64,20,ok,2,0,0.003,12,0.54,1.07,8.72,59,0.038,8.21
11.7180,0.02618,0.08727,1.15366,0.00000,0.00000,0.00000,35,1,67,23,26,10,65,21,ok,2,0,0.003,12,0.54,1.07,8.72,59,0.051,8.21
11.7229,0.02618,0.08727,1.15366,0.00000,0.00000,0.00000,36,1,69,19,27,11,65,22,ok,2,0,0.003,12,0.54,1.07,8.72,59,0.063,8.21
11.7354,0.02618,0.08727,1.15366,0.00000,0.00000,0.00000,36,1,70,15,29,10,64,23,ok,2,0,0.003,12,0.54,1.07,8.72,59,0.076,8.21
11.7580,0.02618,0.08727,1.15366,0.00000,0.00000,0.00000,38,0,70,13,30,9,64,25,ok,2,0,0.003,12,0.54,1.07,8.72,59,0.088,8.21
11.7613,0.02618,0.08727,1.15366,0.00000,0.00000,0.00000,39,1,70,12,33,9,65,26,ok,2,0,0.003,12,0.54,1.07,8.72,59,0.102,8.21
11.7738,0.02618,0.08727,1.15366,0.00000,0.00000,0.00000,40,1,70,9,33,9,64,28,ok,2,0,0.003,12,0.54,1.07,8.72,59,0.115,8.21
11.7940,0.02618,0.08727,1.15366,0.00000,0.00000,0.00000,41,2,69,6,35,9,64,30,ok,2,0,0.003,12,0.54,1.07,8.72,59,0.127,8.21
11.7990,0.02618,0.08727,1.15366,0.00000,0.00000,0.00000,42,2,68,3,36,8,64,31,ok,2,0,0.003,12,0.54,1.07,8.72,59,0.139,8.21
11.8113,0.02618,0.08727,1.15366,0.00000,0.00000,0.00000,44,2,67,0,37,9,64,32,ok,2,0,0.003,12,0.54,1.07,8.72,59,0.152,8.21
11.8340,0.02618,0.08727,1.15366,0.00000,0.00000,0.00000,44,1,66,-2,38,8,64,34,ok,2,0,0.003,12,0.54,1.07,8.72,59,0.165,8.21
11.8371,0.02618,0.08727,1.15366,0.00000,0.00000,0.00000,45,2,64,-3,40,8,63,35,ok,2,0,0.003,12,0.54,1.07,8.72,59,0.178,8.21
11.8500,0.02618,0.08727,1.15366,0.00000,0.00000,0.00000,45,2,62,-4,41,7,65,35,ok,2,0,0.003,12,0.54,1.07,8.72,59,0.190,8.21
11.8700,-0.09425,0.05061,1.21126,0.00000,0.00000,0.00000,47,2,61,-6,42,7,66,34,ok,2,0,0.003,12,0.29,-0.44,10.28,60,0.000,8.21
11.8748,-0.09425,0.05061,1.21126,0.00000,0.00000,0.00000,48,2,60,-8,43,7,68,32,ok,2,0,0.003,12,0.29,-0.44,10.28,60,0.012,8.21
11.8873,-0.09425,0.05061,1.21126,0.00000,0.00000,0.00000,49,3,58,-8,44,7,70,27,ok,2,0,0.003,12,0.29,-0.44,10.28,60,0.025,8.21
11.9100,-0.09425,0.05061,1.21126,0.00000,0.00000,0.00000,50,2,55,-9,45,7,71,23,ok,2,0,0.003,12,0.29,-0.44,10.28,60,0.038,8.21
11.9131,-0.09425,0.05061,1.21126,0.00000,0.00000,0.00000,50,2,53,-9,45,7,73,20,ok,2,0,0.003,12,0.29,-0.44,10.28,60,0.051,8.21
11.9258,-0.09425,0.05061,1.21126,0.00000,0.00000,0.00000,50,4,51,-10,47,7,73,20,ok,2,0,0.003,12,0.29,-0.44,10.28,60,0.064,8.21
11.9460,-0.09425,0.05061,1.21126,0.00000,0.00000,0.00000,51,4,49,-9,47,7,73,18,ok,2,0,0.003,12,0.29,-0.44,10.28,60,0.076,8.21
11.9508,-0.09425,0.05061,1.21126,0.00000,0.00000,0.00000,52,4,46,-9,49,7,73,15,ok,2,0,0.003,12,0.29,-0.44,10.28,60,0.088,8.21
11.9635,-0.09425,0.05061,1.21126,0.00000,0.00000,0.00000,52,5,44,-9,49,8,72,12,ok,2,0,0.003,12,0.29,-0.44,10.28,60,0.101,8.21
11.9860,-0.09425,0.05061,1.21126,0.00000,0.00000,0.00000,52,6,41,-9,50,7,72,11,ok,2,0,0.003,12,0.29,-0.44,10.28,60,0.114,8.21
11.9891,-0.09425,0.05061,1.21126,0.00000,0.00000,0.00000,55,6,39,-10,51,7,71,7,ok,2,0,0.003,12,0.29,-0.44,10.28,60,0.127,8.21
12.0018,-0.09425,0.05061,1.21126,0.00000,0.00000,0.00000,55,6,36,-9,52,7,71,5,ok,2,0,0.003,12,0.29,-0.44,10.28,60,0.140,8.21
12.0220,-0.09425,0.05061,1.21126,0.00000,0.00000,0.00000,56,7,33,-9,52,7,70,4,ok,2,0,0.003,12,0.29,-0.44,10.28,60,0.152,8.21
12.0270,-0.09425,0.05061,1.21126,0.00000,0.00000,0.00000,56,8,30,-7,53,8,68,2,ok,2,0,0.003,12,0.29,-0.44,10.28,60,0.164,8.21
12.0393,-0.09425,0.05061,1.21126,0.00000,0.00000,0.00000,56,8,27,-6,53,8,66,1,ok,2,0,0.003,12,0.29,-0.44,10.28,60,0.177,8.21
12.0620,-0.09425,0.05061,1.21126,0.00000,0.00000,0.00000,57,9,24,-4,54,8,65,0,ok,2,0,0.003,12,0.29,-0.44,10.28,60,0.190,8.21
12.0654,-0.03142,0.03665,1.22522,0.00000,0.00000,0.00000,58,10,20,-2,56,8,64,-2,ok,2,0,0.003,12,0.90,0.07,10.13,61,0.000,8.21
12.0778,-0.03142,0.03665,1.22522,0.00000,0.00000,0.00000,58,10,19,-1,58,6,62,-3,ok,2,0,0.003,12,0.90,0.07,10.13,61,0.013,8.21
12.0980,-0.03142,0.03665,1.22522,0.00000,0.00000,0.00000,58,9,18,0,58,8,60,-5,ok,2,0,0.003,12,0.90,0.07,10.13,61,0.025,8.21
12.1030,-0.03142,0.03665,1.22522,0.00000,0.00000,0.00000,59,10,16,3,59,8,58,-5,ok,2,0,0.003,12,0.90,0.07,10.13,61,0.038,8.21
12.1153,-0.03142,0.03665,1.22522,0.00000,0.00000,0.00000,59,11,14,5,59,9,55,-6,ok,2,0,0.003,12,0.90,0.07,10.13,61,0.050,8.21
12.1380,-0.03142,0.03665,1.22522,0.00000,0.00000,0.00000,59,12,13,9,60,9,53,-6,ok,2,0,0.003,12,0.90,0.07,10.13,61,0.063,8.21
12.1414,-0.03142,0.03665,1.22522,0.00000,0.00000,0.00000,60,12,12,11,60,10,50,-5,ok,2,0,0.003,12,0.90,0.07,10.13,61,0.076,8.21
12.1538,-0.03142,0.03665,1.22522,0.00000,0.00000,0.00000,60,13,14,11,60,10,48,-5,ok,2,0,0.003,12,0.90,0.07,10.13,61,0.089,8.21
12.1740,-0.03142,0.03665,1.22522,0.00000,0.00000,0.00000,59,14,15,11,61,10,46,-5,ok,2,0,0.003,12,0.90,0.07,10.13,61,0.101,8.21
12.1788,-0.03142,0.03665,1.22522,0.00000,0.00000,0.00000,60,14,16,10,61,11,43,-4,ok,2,0,0.003,12,0.90,0.07,10.13,61,0.114,8.21
12.1913,-0.03142,0.03665,1.22522,0.00000,0.00000,0.00000,60,15,19,9,61,12,41,-5,ok,2,0,0.003,12,0.90,0.07,10.13,61,0.126,8.21
12.2140,-0.03142,0.03665,1.22522,0.00000,0.00000,0.00000,60,15,19,9,61,13,37,-3,ok,2,0,0.003,12,0.90,0.07,10.13,61,0.139,8.21
12.2171,-0.03142,0.03665,1.22522,0.00000,0.00000,0.00000,60,16,21,8,62,13,35,-3,ok,2,0,0.003,12,0.90,0.07,10.13,61,0.152,8.21
12.2300,-0.03142,0.03665,1.22522,0.00000,0.00000,0.00000,60,17,21,7,62,14,31,-1,ok,2,0,0.003,12,0.90,0.07,10.13,61,0.165,8.21
12.2500,-0.03142,0.03665,1.22522,0.00000,0.00000,0.00000,61,19,23,6,63,14,30,0,ok,2,0,0.003,12,0.90,0.07,10.13,61,0.177,8.21
12.2548,-0.03142,0.03665,1.22522,0.00000,0.00000,0.00000,61,20,24,5,63,15,28,1,ok,2,0,0.003,12,0.90,0.07,10.13,61,0.190,8.21
12.2675,-0.05411,0.09774,1.22173,0.00000,0.00000,0.00000,62,21,24,5,63,16,26,5,ok,2,0,0.003,12,1.44,-1.76,8.75,62,0.000,8.21
12.2900,-0.05411,0.09774,1.22173,0.00000,0.00000,0.00000,62,22,25,4,63,17,24,7,ok,2,0,0.003,12,1.44,-1.76,8.75,62,0.013,8.21
12.2933,-0.05411,0.09774,1.22173,0.00000,0.00000,0.00000,62,23,26,3,64,17,23,11,ok,2,0,0.003,12,1.44,-1.76,8.75,62,0.026,8.21
