# run_gait log  cmd_fwd=0.100 hz=80.0 fw_balance=off policy_yaw_sign=-1
t,roll,pitch,yaw,gx,gy,gz,j0,j1,j2,j3,j4,j5,j6,j7,guard_state,hottest_j,hottest_tier,hottest_frac,duty_s,ax,ay,az,imu_n,imu_age_s,volt
0.0372,-0.00000,0.00175,0.00000,0.00000,0.00000,0.00000,36,0,57,10,60,-3,54,8,ok,3,0,0.000,0,0.04,-0.06,10.01,8,0.028,nan
0.0420,-0.00000,0.00175,0.00000,0.00000,0.00000,0.00000,34,1,59,10,59,-4,56,6,ok,2,0,0.000,0,0.04,-0.06,10.01,8,0.050,nan
0.0549,-0.00000,0.00175,0.00000,0.00000,0.00000,0.00000,34,4,59,11,56,-5,56,8,ok,4,0,0.000,0,0.04,-0.06,10.01,8,0.063,8.25
0.0772,-0.00873,0.00698,0.00000,0.00000,0.00000,0.00000,32,7,60,12,55,-6,57,8,ok,4,0,0.000,0,0.06,-0.13,10.01,9,0.000,8.25
0.0817,-0.00873,0.00698,0.00000,0.00000,0.00000,0.00000,32,10,60,13,52,-5,57,9,ok,4,0,0.000,0,0.06,-0.13,10.01,9,0.015,8.25
0.0942,-0.00873,0.00698,0.00000,0.00000,0.00000,0.00000,31,12,60,13,50,-5,58,10,ok,4,0,0.000,0,0.06,-0.13,10.01,9,0.027,8.25
0.1172,-0.00873,0.00698,0.00000,0.00000,0.00000,0.00000,32,13,60,14,47,-5,59,11,ok,4,0,0.000,0,0.06,-0.13,10.01,9,0.040,8.25
0.1218,-0.00873,0.00698,0.00000,0.00000,0.00000,0.00000,32,13,60,15,44,-4,59,11,ok,4,0,0.000,0,0.06,-0.13,10.01,9,0.055,8.25
0.1333,-0.00873,0.00698,0.00000,0.00000,0.00000,0.00000,33,12,61,15,42,-4,60,12,ok,4,0,0.000,0,0.06,-0.13,10.01,9,0.067,8.25
0.1531,-0.00873,0.00698,0.00000,0.00000,0.00000,0.00000,34,11,61,16,39,-3,60,12,ok,4,0,0.000,0,0.06,-0.13,10.01,9,0.080,8.25
0.1583,-0.00873,0.00698,0.00000,0.00000,0.00000,0.00000,34,11,61,17,36,-2,61,13,ok,4,0,0.000,0,0.06,-0.13,10.01,9,0.092,8.25
0.1706,-0.00873,0.00698,0.00000,0.00000,0.00000,0.00000,34,9,61,18,32,-1,61,14,ok,4,0,0.000,0,0.06,-0.13,10.01,9,0.105,8.25
0.1930,-0.00873,0.00698,0.00000,0.00000,0.00000,0.00000,34,9,61,19,30,1,62,15,ok,4,0,0.000,0,0.06,-0.13,10.01,9,0.117,8.25
0.1962,-0.00873,0.00698,0.00000,0.00000,0.00000,0.00000,36,8,62,20,27,2,62,16,ok,4,0,0.000,0,0.06,-0.13,10.01,9,0.131,8.25
0.2091,-0.00873,0.00698,0.00000,0.00000,0.00000,0.00000,36,7,62,21,25,5,63,16,ok,4,0,0.000,0,0.06,-0.13,10.01,9,0.143,8.25
0.2290,-0.00873,0.00698,0.00000,0.00000,0.00000,0.00000,37,7,62,21,23,8,63,17,ok,4,0,0.000,0,0.06,-0.13,10.01,9,0.156,8.25
0.2339,-0.00873,0.00698,0.00000,0.00000,0.00000,0.00000,38,6,62,23,22,11,63,18,ok,4,0,0.000,0,0.06,-0.13,10.01,9,0.168,8.25
0.2463,-0.00873,0.00698,0.00000,0.00000,0.00000,0.00000,38,6,62,23,21,14,64,18,ok,4,0,0.000,0,0.06,-0.13,10.01,9,0.181,8.25
0.2691,-0.00873,0.00698,0.00000,0.00000,0.00000,0.00000,38,5,61,26,23,13,65,19,ok,4,0,0.000,0,0.06,-0.13,10.01,9,0.193,8.25
0.2725,-0.04189,-0.04363,0.02967,0.00000,0.00000,0.00000,39,4,62,28,23,14,65,20,ok,4,0,0.000,0,0.06,-0.92,10.26,10,0.000,8.25
0.2849,-0.04189,-0.04363,0.02967,0.00000,0.00000,0.00000,40,4,63,26,24,12,65,21,ok,4,0,0.000,0,0.06,-0.92,10.26,10,0.013,8.25
0.3050,-0.04189,-0.04363,0.02967,0.00000,0.00000,0.00000,40,4,66,23,25,11,66,23,ok,4,0,0.000,0,0.06,-0.92,10.26,10,0.025,8.25
0.3100,-0.04189,-0.04363,0.02967,0.00000,0.00000,0.00000,41,3,68,20,26,11,66,24,ok,4,0,0.000,0,0.06,-0.92,10.26,10,0.038,8.25
0.3223,-0.04189,-0.04363,0.02967,0.00000,0.00000,0.00000,42,3,70,16,27,11,65,25,ok,4,0,0.000,0,0.06,-0.92,10.26,10,0.050,8.25
0.3450,-0.04189,-0.04363,0.02967,0.00000,0.00000,0.00000,42,3,70,14,28,10,65,27,ok,4,0,0.000,0,0.06,-0.92,10.26,10,0.063,8.25
0.3484,-0.04189,-0.04363,0.02967,0.00000,0.00000,0.00000,44,2,71,13,31,10,66,27,ok,4,0,0.000,0,0.06,-0.92,10.26,10,0.076,8.25
0.3609,-0.04189,-0.04363,0.02967,0.00000,0.00000,0.00000,44,2,71,10,31,10,65,30,ok,4,0,0.000,0,0.06,-0.92,10.26,10,0.089,8.25
0.3810,-0.04189,-0.04363,0.02967,0.00000,0.00000,0.00000,45,3,70,7,33,10,65,31,ok,4,0,0.000,0,0.06,-0.92,10.26,10,0.101,8.25
0.3861,-0.04189,-0.04363,0.02967,0.00000,0.00000,0.00000,46,3,70,4,34,9,65,32,ok,4,0,0.000,0,0.06,-0.92,10.26,10,0.114,8.25
0.3984,-0.04189,-0.04363,0.02967,0.00000,0.00000,0.00000,46,3,69,2,35,9,65,33,ok,4,0,0.000,0,0.06,-0.92,10.26,10,0.126,8.25
0.4210,-0.04189,-0.04363,0.02967,0.00000,0.00000,0.00000,47,3,67,0,37,8,64,35,ok,4,0,0.000,0,0.06,-0.92,10.26,10,0.139,8.25
0.4242,-0.04189,-0.04363,0.02967,0.00000,0.00000,0.00000,48,3,67,-2,38,8,64,36,ok,4,0,0.000,0,0.06,-0.92,10.26,10,0.152,8.25
0.4371,-0.04189,-0.04363,0.02967,0.00000,0.00000,0.00000,48,3,64,-3,39,7,65,36,ok,4,0,0.000,0,0.06,-0.92,10.26,10,0.165,8.25
0.4570,-0.04189,-0.04363,0.02967,0.00000,0.00000,0.00000,48,4,63,-5,41,7,66,34,ok,4,0,0.000,0,0.06,-0.92,10.26,10,0.177,8.25
0.4619,-0.04189,-0.04363,0.02967,0.00000,0.00000,0.00000,49,4,62,-7,42,7,68,32,ok,4,0,0.000,0,0.06,-0.92,10.26,10,0.190,8.25
0.4746,-0.04189,-0.04363,0.02967,0.00000,0.00000,0.00000,50,5,59,-8,44,7,70,27,ok,4,0,0.000,0,0.06,-0.92,10.26,10,0.202,8.25
0.4970,-0.09948,0.05934,0.10821,0.00000,0.00000,0.00000,50,4,57,-9,44,7,71,23,ok,4,0,0.000,0,0.37,-1.03,10.42,11,0.000,8.25
0.5002,-0.09948,0.05934,0.10821,0.00000,0.00000,0.00000,51,4,54,-9,46,6,73,20,ok,4,0,0.000,0,0.37,-1.03,10.42,11,0.013,8.25
0.5129,-0.09948,0.05934,0.10821,0.00000,0.00000,0.00000,51,6,52,-10,47,6,73,20,ok,4,0,0.000,0,0.37,-1.03,10.42,11,0.026,8.25
0.5330,-0.09948,0.05934,0.10821,0.00000,0.00000,0.00000,52,6,50,-10,48,6,73,17,ok,4,0,0.000,1,0.37,-1.03,10.42,11,0.039,8.25
0.5379,-0.09948,0.05934,0.10821,0.00000,0.00000,0.00000,52,5,47,-10,49,6,73,14,ok,4,0,0.000,1,0.37,-1.03,10.42,11,0.051,8.25
0.5506,-0.09948,0.05934,0.10821,0.00000,0.00000,0.00000,52,6,45,-9,50,7,72,11,ok,4,0,0.000,1,0.37,-1.03,10.42,11,0.064,8.25
0.5730,-0.09948,0.05934,0.10821,0.00000,0.00000,0.00000,52,6,42,-10,51,7,72,10,ok,4,0,0.000,1,0.37,-1.03,10.42,11,0.076,8.25
0.5763,-0.09948,0.05934,0.10821,0.00000,0.00000,0.00000,54,6,39,-10,52,7,72,6,ok,4,0,0.000,1,0.37,-1.03,10.42,11,0.089,8.25
0.5890,-0.09948,0.05934,0.10821,0.00000,0.00000,0.00000,54,6,37,-9,53,6,71,4,ok,4,0,0.000,1,0.37,-1.03,10.42,11,0.102,8.25
0.6090,-0.09948,0.05934,0.10821,0.00000,0.00000,0.00000,54,6,33,-8,53,7,70,3,ok,4,0,0.000,1,0.37,-1.03,10.42,11,0.115,8.25
0.6141,-0.09948,0.05934,0.10821,0.00000,0.00000,0.00000,54,7,30,-7,53,7,69,1,ok,4,0,0.000,1,0.37,-1.03,10.42,11,0.127,8.25
0.6264,-0.09948,0.05934,0.10821,0.00000,0.00000,0.00000,54,8,27,-6,54,8,66,0,ok,4,0,0.000,1,0.37,-1.03,10.42,11,0.140,8.25
0.6491,-0.09948,0.05934,0.10821,0.00000,0.00000,0.00000,54,9,24,-5,55,8,65,-2,ok,2,0,0.000,1,0.37,-1.03,10.42,11,0.152,8.25
0.6522,-0.09948,0.05934,0.10821,0.00000,0.00000,0.00000,55,10,20,-2,56,8,65,-4,ok,2,0,0.000,1,0.37,-1.03,10.42,11,0.165,8.25
0.6649,-0.09948,0.05934,0.10821,0.00000,0.00000,0.00000,55,10,18,-1,58,6,62,-5,ok,2,0,0.000,1,0.37,-1.03,10.42,11,0.178,8.25
0.6851,-0.09948,0.05934,0.10821,0.00000,0.00000,0.00000,56,9,17,0,58,8,60,-5,ok,2,0,0.000,1,0.37,-1.03,10.42,11,0.191,8.25
0.6902,-0.01920,0.04887,0.07330,0.00000,0.00000,0.00000,56,10,15,3,59,9,59,-6,ok,2,0,0.000,1,0.45,0.07,9.69,12,0.000,8.25
0.7024,-0.01920,0.04887,0.07330,0.00000,0.00000,0.00000,56,10,14,6,59,9,55,-6,ok,2,0,0.000,1,0.45,0.07,9.69,12,0.013,8.25
0.7250,-0.01920,0.04887,0.07330,0.00000,0.00000,0.00000,56,12,12,9,60,10,54,-7,ok,2,0,0.000,1,0.45,0.07,9.69,12,0.025,8.25
0.7282,-0.01920,0.04887,0.07330,0.00000,0.00000,0.00000,56,12,11,11,60,10,50,-6,ok,2,0,0.000,1,0.45,0.07,9.69,12,0.038,8.25
0.7409,-0.01920,0.04887,0.07330,0.00000,0.00000,0.00000,56,13,13,12,61,10,48,-6,ok,2,0,0.000,1,0.45,0.07,9.69,12,0.051,8.25
0.7610,-0.01920,0.04887,0.07330,0.00000,0.00000,0.00000,56,14,14,11,61,11,46,-6,ok,2,0,0.000,1,0.45,0.07,9.69,12,0.063,8.25
0.7659,-0.01920,0.04887,0.07330,0.00000,0.00000,0.00000,56,14,16,10,61,11,42,-5,ok,2,0,0.000,1,0.45,0.07,9.69,12,0.076,8.25
0.7785,-0.01920,0.04887,0.07330,0.00000,0.00000,0.00000,56,15,18,9,61,12,41,-5,ok,2,0,0.000,1,0.45,0.07,9.69,12,0.088,8.25
0.8010,-0.01920,0.04887,0.07330,0.00000,0.00000,0.00000,56,16,19,8,61,12,37,-4,ok,2,0,0.000,1,0.45,0.07,9.69,12,0.101,8.25
0.8042,-0.01920,0.04887,0.07330,0.00000,0.00000,0.00000,56,17,21,7,62,13,35,-3,ok,2,0,0.000,1,0.45,0.07,9.69,12,0.114,8.25
0.8169,-0.01920,0.04887,0.07330,0.00000,0.00000,0.00000,56,18,21,7,62,14,31,-2,ok,2,0,0.000,1,0.45,0.07,9.69,12,0.127,8.25
0.8370,-0.01920,0.04887,0.07330,0.00000,0.00000,0.00000,58,19,23,6,63,14,30,-1,ok,2,0,0.000,1,0.45,0.07,9.69,12,0.139,8.25
0.8419,-0.01920,0.04887,0.07330,0.00000,0.00000,0.00000,58,20,24,5,63,15,28,1,ok,2,0,0.000,1,0.45,0.07,9.69,12,0.152,8.25
0.8546,-0.01920,0.04887,0.07330,0.00000,0.00000,0.00000,58,20,24,4,63,16,26,4,ok,2,0,0.000,1,0.45,0.07,9.69,12,0.164,8.25
0.8770,-0.01920,0.04887,0.07330,0.00000,0.00000,0.00000,58,22,25,4,63,17,24,7,ok,2,0,0.000,1,0.45,0.07,9.69,12,0.177,8.25
0.8803,-0.01920,0.04887,0.07330,0.00000,0.00000,0.00000,58,23,26,3,64,18,23,10,ok,2,0,0.000,1,0.45,0.07,9.69,12,0.190,8.25
0.8932,-0.10647,0.09076,0.07679,0.00000,0.00000,0.00000,57,25,27,2,64,19,23,12,ok,2,0,0.000,1,-0.23,-1.72,10.69,13,0.000,8.25
0.9130,-0.10647,0.09076,0.07679,0.00000,0.00000,0.00000,57,26,28,2,64,19,25,12,ok,2,0,0.000,1,-0.23,-1.72,10.69,13,0.013,8.25
0.9179,-0.10647,0.09076,0.07679,0.00000,0.00000,0.00000,58,25,29,2,64,21,25,11,ok,2,0,0.000,1,-0.23,-1.72,10.69,13,0.025,8.25
0.9304,-0.10647,0.09076,0.07679,0.00000,0.00000,0.00000,58,21,30,2,64,22,26,10,ok,2,0,0.000,1,-0.23,-1.72,10.69,13,0.038,8.25
0.9530,-0.10647,0.09076,0.07679,0.00000,0.00000,0.00000,60,17,31,2,64,23,27,9,ok,2,0,0.000,1,-0.23,-1.72,10.69,13,0.050,8.25
0.9562,-0.10647,0.09076,0.07679,0.00000,0.00000,0.00000,60,12,32,2,64,24,28,10,ok,2,0,0.000,1,-0.23,-1.72,10.69,13,0.063,8.25
0.9689,-0.10647,0.09076,0.07679,0.00000,0.00000,0.00000,60,10,33,2,65,25,30,9,ok,2,0,0.000,1,-0.23,-1.72,10.69,13,0.076,8.25
0.9891,-0.10647,0.09076,0.07679,0.00000,0.00000,0.00000,60,10,35,2,64,27,31,9,ok,2,0,0.000,1,-0.23,-1.72,10.69,13,0.089,8.25
0.9939,-0.10647,0.09076,0.07679,0.00000,0.00000,0.00000,60,6,36,2,64,29,33,9,ok,2,0,0.000,1,-0.23,-1.72,10.69,13,0.101,8.25
1.0064,-0.10647,0.09076,0.07679,0.00000,0.00000,0.00000,60,4,38,3,64,30,34,9,ok,2,0,0.000,1,-0.23,-1.72,10.69,13,0.114,8.25
1.0290,-0.10647,0.09076,0.07679,0.00000,0.00000,0.00000,60,1,39,3,64,32,35,9,ok,2,0,0.000,1,-0.23,-1.72,10.69,13,0.126,8.25
1.0322,-0.10647,0.09076,0.07679,0.00000,0.00000,0.00000,59,-1,41,3,64,33,36,8,ok,2,0,0.000,1,-0.23,-1.72,10.69,13,0.139,8.25
1.0449,-0.10647,0.09076,0.07679,0.00000,0.00000,0.00000,58,-2,42,2,64,35,37,8,ok,2,0,0.000,1,-0.23,-1.72,10.69,13,0.152,8.25
1.0650,-0.10647,0.09076,0.07679,0.00000,0.00000,0.00000,58,-4,43,2,65,35,38,8,ok,2,0,0.000,1,-0.23,-1.72,10.69,13,0.165,8.25
1.0699,-0.10647,0.09076,0.07679,0.00000,0.00000,0.00000,56,-5,44,2,66,35,40,8,ok,2,0,0.000,1,-0.23,-1.72,10.69,13,0.177,8.25
1.0827,-0.10647,0.09076,0.07679,0.00000,0.00000,0.00000,56,-6,45,3,68,33,41,7,ok,2,0,0.000,1,-0.23,-1.72,10.69,13,0.190,8.25
1.1050,-0.02443,-0.02443,0.12392,0.00000,0.00000,0.00000,56,-8,46,3,70,28,42,7,ok,2,0,0.000,1,1.27,0.32,10.04,14,0.000,8.25
1.1082,-0.02443,-0.02443,0.12392,0.00000,0.00000,0.00000,54,-9,48,3,72,24,44,7,ok,2,0,0.000,1,1.27,0.32,10.04,14,0.013,8.25
1.1209,-0.02443,-0.02443,0.12392,0.00000,0.00000,0.00000,53,-10,49,3,73,22,44,7,ok,2,0,0.000,1,1.27,0.32,10.04,14,0.026,8.25
1.1410,-0.02443,-0.02443,0.12392,0.00000,0.00000,0.00000,52,-10,49,3,74,21,45,7,ok,2,0,0.000,1,1.27,0.32,10.04,14,0.039,8.25
1.1459,-0.02443,-0.02443,0.12392,0.00000,0.00000,0.00000,51,-11,50,5,74,19,46,7,ok,2,0,0.000,1,1.27,0.32,10.04,14,0.051,8.25
1.1583,-0.02443,-0.02443,0.12392,0.00000,0.00000,0.00000,50,-10,51,6,74,15,47,8,ok,2,0,0.000,1,1.27,0.32,10.04,14,0.064,8.25
1.1810,-0.02443,-0.02443,0.12392,0.00000,0.00000,0.00000,48,-10,52,5,73,12,48,8,ok,2,0,0.000,1,1.27,0.32,10.04,14,0.076,8.25
1.1842,-0.02443,-0.02443,0.12392,0.00000,0.00000,0.00000,47,-9,53,5,73,10,49,8,ok,2,0,0.000,1,1.27,0.32,10.04,14,0.089,8.25
1.1969,-0.02443,-0.02443,0.12392,0.00000,0.00000,0.00000,46,-10,54,6,72,6,49,8,ok,2,0,0.000,1,1.27,0.32,10.04,14,0.102,8.25
1.2170,-0.02443,-0.02443,0.12392,0.00000,0.00000,0.00000,44,-10,56,6,72,5,50,7,ok,2,0,0.000,1,1.27,0.32,10.04,14,0.115,8.25
1.2219,-0.02443,-0.02443,0.12392,0.00000,0.00000,0.00000,44,-9,56,6,70,4,51,8,ok,2,0,0.000,1,1.27,0.32,10.04,14,0.127,8.25
1.2344,-0.02443,-0.02443,0.12392,0.00000,0.00000,0.00000,42,-8,57,7,69,1,52,7,ok,2,0,0.000,1,1.27,0.32,10.04,14,0.140,8.25
1.2570,-0.02443,-0.02443,0.12392,0.00000,0.00000,0.00000,40,-7,57,8,66,2,52,8,ok,2,0,0.000,1,1.27,0.32,10.04,14,0.152,8.25
1.2602,-0.02443,-0.02443,0.12392,0.00000,0.00000,0.00000,38,-5,58,8,64,-1,52,8,ok,2,0,0.000,1,1.27,0.32,10.04,14,0.165,8.25
1.2730,-0.02443,-0.02443,0.12392,0.00000,0.00000,0.00000,37,-4,59,8,63,-2,54,9,ok,2,0,0.000,1,1.27,0.32,10.04,14,0.178,8.25
1.2930,0.09250,-0.02793,0.13439,0.00000,0.00000,0.00000,35,-1,59,9,61,-4,55,8,ok,2,0,0.000,1,0.23,0.68,9.79,15,0.000,8.25
1.2981,0.09250,-0.02793,0.13439,0.00000,0.00000,0.00000,34,-1,60,10,60,-5,54,8,ok,2,0,0.000,1,0.23,0.68,9.79,15,0.012,8.25
1.3104,0.09250,-0.02793,0.13439,0.00000,0.00000,0.00000,34,0,61,10,58,-5,56,6,ok,2,0,0.000,1,0.23,0.68,9.79,15,0.025,8.25
1.3330,0.09250,-0.02793,0.13439,0.00000,0.00000,0.00000,33,3,61,11,56,-6,56,7,ok,2,0,0.000,1,0.23,0.68,9.79,15,0.038,8.25
1.3362,0.09250,-0.02793,0.13439,0.00000,0.00000,0.00000,32,6,61,10,54,-6,57,8,ok,2,0,0.000,1,0.23,0.68,9.79,15,0.051,8.25
1.3489,0.09250,-0.02793,0.13439,0.00000,0.00000,0.00000,32,10,61,11,51,-6,58,8,ok,2,0,0.000,1,0.23,0.68,9.79,15,0.063,8.25
1.3690,0.09250,-0.02793,0.13439,0.00000,0.00000,0.00000,32,12,62,11,48,-5,58,8,ok,2,0,0.000,1,0.23,0.68,9.79,15,0.076,8.25
1.3739,0.09250,-0.02793,0.13439,0.00000,0.00000,0.00000,32,12,62,12,46,-5,59,9,ok,2,0,0.000,1,0.23,0.68,9.79,15,0.088,8.25
1.3863,0.09250,-0.02793,0.13439,0.00000,0.00000,0.00000,32,12,62,12,42,-5,59,9,ok,4,0,0.000,1,0.23,0.68,9.79,15,0.101,8.25
1.4090,0.09250,-0.02793,0.13439,0.00000,0.00000,0.00000,33,11,62,13,40,-4,60,10,ok,4,0,0.000,1,0.23,0.68,9.79,15,0.113,8.25
1.4123,0.09250,-0.02793,0.13439,0.00000,0.00000,0.00000,34,10,62,14,37,-3,60,11,ok,4,0,0.000,1,0.23,0.68,9.79,15,0.127,8.25
1.4249,0.09250,-0.02793,0.13439,0.00000,0.00000,0.00000,34,9,63,15,34,-3,61,12,ok,4,0,0.000,1,0.23,0.68,9.79,15,0.140,8.25
1.4450,0.09250,-0.02793,0.13439,0.00000,0.00000,0.00000,35,7,63,15,31,-1,61,13,ok,4,0,0.000,1,0.23,0.68,9.79,15,0.152,8.25
1.4499,0.09250,-0.02793,0.13439,0.00000,0.00000,0.00000,36,7,63,17,29,0,62,13,ok,4,0,0.000,1,0.23,0.68,9.79,15,0.164,8.25
1.4624,0.09250,-0.02793,0.13439,0.00000,0.00000,0.00000,36,6,64,18,28,2,62,14,ok,4,0,0.000,1,0.23,0.68,9.79,15,0.177,8.25
1.4890,0.09250,-0.02793,0.13439,0.00000,0.00000,0.00000,37,5,64,19,25,5,63,15,ok,4,0,0.000,1,0.23,0.68,9.79,15,0.190,8.25
1.4925,-0.04014,0.02967,0.10472,0.00000,0.00000,0.00000,38,5,64,20,24,8,63,16,ok,4,0,0.000,1,0.82,0.95,9.14,16,0.000,8.25
1.5049,-0.04014,0.02967,0.10472,0.00000,0.00000,0.00000,38,4,64,22,22,11,63,17,ok,4,0,0.000,1,0.82,0.95,9.14,16,0.013,8.25
1.5250,-0.04014,0.02967,0.10472,0.00000,0.00000,0.00000,38,3,65,23,21,14,64,18,ok,4,0,0.000,1,0.82,0.95,9.14,16,0.025,8.25
1.5299,-0.04014,0.02967,0.10472,0.00000,0.00000,0.00000,39,3,63,26,23,13,64,18,ok,4,0,0.000,1,0.82,0.95,9.14,16,0.038,8.25
1.5424,-0.04014,0.02967,0.10472,0.00000,0.00000,0.00000,40,2,63,28,23,13,64,19,ok,4,0,0.000,1,0.82,0.95,9.14,16,0.050,8.25
1.5650,-0.04014,0.02967,0.10472,0.00000,0.00000,0.00000,40,1,64,26,25,11,64,20,ok,4,0,0.000,2,0.82,0.95,9.14,16,0.063,8.25
1.5682,-0.04014,0.02967,0.10472,0.00000,0.00000,0.00000,40,1,67,23,26,11,65,21,ok,4,0,0.000,2,0.82,0.95,9.14,16,0.076,8.25
1.5809,-0.04014,0.02967,0.10472,0.00000,0.00000,0.00000,41,0,69,20,27,11,65,22,ok,4,0,0.000,2,0.82,0.95,9.14,16,0.089,8.25
1.6050,-0.04014,0.02967,0.10472,0.00000,0.00000,0.00000,42,0,70,16,29,10,64,24,ok,4,0,0.000,2,0.82,0.95,9.14,16,0.101,8.25
1.6082,-0.04014,0.02967,0.10472,0.00000,0.00000,0.00000,42,0,71,13,30,9,64,26,ok,4,0,0.000,2,0.82,0.95,9.14,16,0.116,8.25
1.6208,-0.04014,0.02967,0.10472,0.00000,0.00000,0.00000,44,1,70,13,32,9,65,26,ok,4,0,0.000,2,0.82,0.95,9.14,16,0.129,8.25
1.6411,-0.04014,0.02967,0.10472,0.00000,0.00000,0.00000,44,1,70,9,32,9,64,28,ok,4,0,0.000,2,0.82,0.95,9.14,16,0.141,8.25
1.6461,-0.04014,0.02967,0.10472,0.00000,0.00000,0.00000,45,2,69,6,35,9,64,30,ok,4,0,0.000,2,0.82,0.95,9.14,16,0.154,8.25
1.6584,-0.04014,0.02967,0.10472,0.00000,0.00000,0.00000,46,2,69,3,36,8,64,31,ok,4,0,0.000,2,0.82,0.95,9.14,16,0.166,8.25
1.6810,-0.04014,0.02967,0.10472,0.00000,0.00000,0.00000,46,2,67,0,37,9,64,33,ok,4,0,0.000,2,0.82,0.95,9.14,16,0.179,8.25
1.6842,-0.04014,0.02967,0.10472,0.00000,0.00000,0.00000,47,2,66,-2,38,8,64,34,ok,4,0,0.000,2,0.82,0.95,9.14,16,0.192,8.25
1.6972,-0.15359,0.00698,0.13265,0.00000,0.00000,0.00000,48,3,64,-3,39,8,63,35,ok,4,0,0.000,2,0.56,-1.65,8.61,17,0.000,8.25
1.7170,-0.15359,0.00698,0.13265,0.00000,0.00000,0.00000,48,2,62,-4,40,6,65,36,ok,4,0,0.000,2,0.56,-1.65,8.61,17,0.012,8.25
1.7219,-0.15359,0.00698,0.13265,0.00000,0.00000,0.00000,48,3,61,-5,42,7,66,35,ok,4,0,0.001,2,0.56,-1.65,8.61,17,0.025,8.25
1.7344,-0.15359,0.00698,0.13265,0.00000,0.00000,0.00000,49,3,60,-8,43,7,68,33,ok,4,0,0.001,2,0.56,-1.65,8.61,17,0.038,8.25
1.7570,-0.15359,0.00698,0.13265,0.00000,0.00000,0.00000,50,3,58,-8,43,7,70,27,ok,4,0,0.001,2,0.56,-1.65,8.61,17,0.050,8.25
1.7602,-0.15359,0.00698,0.13265,0.00000,0.00000,0.00000,50,3,55,-9,44,7,71,24,ok,4,0,0.001,2,0.56,-1.65,8.61,17,0.063,8.25
1.7728,-0.15359,0.00698,0.13265,0.00000,0.00000,0.00000,50,2,53,-9,45,7,73,21,ok,4,0,0.001,2,0.56,-1.65,8.61,17,0.076,8.25
1.7930,-0.15359,0.00698,0.13265,0.00000,0.00000,0.00000,50,4,51,-10,47,7,73,20,ok,4,0,0.001,2,0.56,-1.65,8.61,17,0.089,8.25
1.7978,-0.15359,0.00698,0.13265,0.00000,0.00000,0.00000,51,5,49,-10,47,7,73,18,ok,4,0,0.001,2,0.56,-1.65,8.61,17,0.101,8.25
1.8104,-0.15359,0.00698,0.13265,0.00000,0.00000,0.00000,52,5,46,-10,49,7,73,15,ok,4,0,0.001,2,0.56,-1.65,8.61,17,0.113,8.25
1.8331,-0.15359,0.00698,0.13265,0.00000,0.00000,0.00000,52,6,44,-9,49,7,72,12,ok,4,0,0.001,2,0.56,-1.65,8.61,17,0.126,8.25
1.8363,-0.15359,0.00698,0.13265,0.00000,0.00000,0.00000,52,7,41,-10,50,7,72,11,ok,4,0,0.001,2,0.56,-1.65,8.61,17,0.139,8.25
1.8489,-0.15359,0.00698,0.13265,0.00000,0.00000,0.00000,54,7,39,-10,50,7,71,7,ok,4,0,0.001,2,0.56,-1.65,8.61,17,0.152,8.25
1.8690,-0.15359,0.00698,0.13265,0.00000,0.00000,0.00000,54,7,37,-9,52,6,71,6,ok,4,0,0.001,2,0.56,-1.65,8.61,17,0.165,8.25
1.8741,-0.15359,0.00698,0.13265,0.00000,0.00000,0.00000,54,8,33,-9,52,7,70,4,ok,2,0,0.001,2,0.56,-1.65,8.61,17,0.177,8.25
1.8865,-0.15359,0.00698,0.13265,0.00000,0.00000,0.00000,54,8,30,-7,53,7,68,2,ok,2,0,0.001,2,0.56,-1.65,8.61,17,0.190,8.25
1.9090,-0.15359,0.00698,0.13265,0.00000,0.00000,0.00000,54,8,27,-6,53,8,66,2,ok,2,0,0.001,2,0.56,-1.65,8.61,17,0.202,8.25
1.9125,-0.00873,0.00349,0.12217,0.00000,0.00000,0.00000,54,9,24,-5,54,8,65,0,ok,2,0,0.001,2,0.84,0.01,10.34,18,0.000,8.25
1.9249,-0.00873,0.00349,0.12217,0.00000,0.00000,0.00000,55,10,21,-3,56,8,64,-2,ok,2,0,0.001,2,0.84,0.01,10.34,18,0.013,8.25
1.9450,-0.00873,0.00349,0.12217,0.00000,0.00000,0.00000,55,10,19,-1,58,6,61,-3,ok,2,0,0.001,2,0.84,0.01,10.34,18,0.025,8.25
1.9501,-0.00873,0.00349,0.12217,0.00000,0.00000,0.00000,56,10,18,0,58,8,59,-4,ok,2,0,0.001,2,0.84,0.01,10.34,18,0.038,8.25
1.9624,-0.00873,0.00349,0.12217,0.00000,0.00000,0.00000,56,11,16,2,59,8,57,-5,ok,2,0,0.001,2,0.84,0.01,10.34,18,0.050,8.25
1.9850,-0.00873,0.00349,0.12217,0.00000,0.00000,0.00000,56,12,15,5,59,9,55,-6,ok,2,0,0.001,2,0.84,0.01,10.34,18,0.063,8.25
1.9882,-0.00873,0.00349,0.12217,0.00000,0.00000,0.00000,56,13,13,8,60,9,53,-6,ok,2,0,0.001,2,0.84,0.01,10.34,18,0.076,8.25
2.0008,-0.00873,0.00349,0.12217,0.00000,0.00000,0.00000,56,13,13,11,60,9,50,-5,ok,2,0,0.001,2,0.84,0.01,10.34,18,0.089,8.25
2.0210,-0.00873,0.00349,0.12217,0.00000,0.00000,0.00000,56,14,14,11,60,9,48,-5,ok,2,0,0.001,2,0.84,0.01,10.34,18,0.101,8.25
2.0259,-0.00873,0.00349,0.12217,0.00000,0.00000,0.00000,56,15,15,11,61,10,45,-5,ok,2,0,0.001,2,0.84,0.01,10.34,18,0.114,8.25
2.0387,-0.00873,0.00349,0.12217,0.00000,0.00000,0.00000,56,15,17,10,61,11,42,-4,ok,2,0,0.001,2,0.84,0.01,10.34,18,0.126,8.25
2.0610,-0.00873,0.00349,0.12217,0.00000,0.00000,0.00000,56,15,19,9,61,12,40,-5,ok,2,0,0.001,2,0.84,0.01,10.34,18,0.139,8.25
2.0643,-0.00873,0.00349,0.12217,0.00000,0.00000,0.00000,56,15,19,8,61,13,37,-4,ok,2,0,0.001,2,0.84,0.01,10.34,18,0.152,8.25
2.0768,-0.00873,0.00349,0.12217,0.00000,0.00000,0.00000,56,16,21,8,61,13,35,-3,ok,2,0,0.001,2,0.84,0.01,10.34,18,0.165,8.25
2.0970,-0.00873,0.00349,0.12217,0.00000,0.00000,0.00000,56,17,21,7,62,14,31,-1,ok,2,0,0.001,2,0.84,0.01,10.34,18,0.177,8.25
2.1021,-0.00873,0.00349,0.12217,0.00000,0.00000,0.00000,58,19,23,6,63,14,30,0,ok,2,0,0.001,2,0.84,0.01,10.34,18,0.190,8.25
2.1147,-0.05934,0.07156,0.11519,0.00000,0.00000,0.00000,58,20,24,5,63,16,27,1,ok,2,0,0.001,2,1.73,-1.07,11.09,19,0.000,8.25
2.1370,-0.05934,0.07156,0.11519,0.00000,0.00000,0.00000,58,21,24,5,62,16,25,5,ok,2,0,0.001,2,1.73,-1.07,11.09,19,0.013,8.25
2.1402,-0.05934,0.07156,0.11519,0.00000,0.00000,0.00000,58,22,25,4,63,17,24,7,ok,2,0,0.001,2,1.73,-1.07,11.09,19,0.026,8.25
2.1529,-0.05934,0.07156,0.11519,0.00000,0.00000,0.00000,58,23,26,3,63,17,23,11,ok,2,0,0.001,2,1.73,-1.07,11.09,19,0.039,8.25
2.1730,-0.05934,0.07156,0.11519,0.00000,0.00000,0.00000,57,25,27,3,63,18,23,13,ok,2,0,0.001,2,1.73,-1.07,11.09,19,0.051,8.25
2.1779,-0.05934,0.07156,0.11519,0.00000,0.00000,0.00000,57,26,27,2,64,20,25,12,ok,2,0,0.001,2,1.73,-1.07,11.09,19,0.064,8.25
2.1906,-0.05934,0.07156,0.11519,0.00000,0.00000,0.00000,58,25,28,2,64,21,25,12,ok,2,0,0.001,2,1.73,-1.07,11.09,19,0.076,8.25
2.2131,-0.05934,0.07156,0.11519,0.00000,0.00000,0.00000,58,21,29,2,65,22,26,10,ok,2,0,0.001,2,1.73,-1.07,11.09,19,0.089,8.25
2.2163,-0.05934,0.07156,0.11519,0.00000,0.00000,0.00000,60,17,31,2,64,23,27,9,ok,2,0,0.001,2,1.73,-1.07,11.09,19,0.102,8.25
2.2289,-0.05934,0.07156,0.11519,0.00000,0.00000,0.00000,60,13,32,2,64,25,28,11,ok,2,0,0.001,2,1.73,-1.07,11.09,19,0.115,8.25
2.2490,-0.05934,0.07156,0.11519,0.00000,0.00000,0.00000,60,11,33,2,65,25,29,10,ok,2,0,0.001,2,1.73,-1.07,11.09,19,0.127,8.25
2.2541,-0.05934,0.07156,0.11519,0.00000,0.00000,0.00000,60,11,35,2,64,28,31,9,ok,2,0,0.001,2,1.73,-1.07,11.09,19,0.140,8.25
2.2667,-0.05934,0.07156,0.11519,0.00000,0.00000,0.00000,60,7,36,2,64,29,33,9,ok,2,0,0.001,2,1.73,-1.07,11.09,19,0.152,8.25
2.2890,-0.05934,0.07156,0.11519,0.00000,0.00000,0.00000,60,5,38,3,64,30,33,9,ok,2,0,0.001,2,1.73,-1.07,11.09,19,0.165,8.25
2.2923,-0.05934,0.07156,0.11519,0.00000,0.00000,0.00000,60,2,39,3,64,32,35,9,ok,2,0,0.001,2,1.73,-1.07,11.09,19,0.178,8.25
2.3052,-0.07679,0.01745,0.16057,0.00000,0.00000,0.00000,59,0,41,3,64,34,36,8,ok,2,0,0.001,2,0.22,-0.95,9.85,20,0.000,8.25
2.3250,-0.07679,0.01745,0.16057,0.00000,0.00000,0.00000,58,-2,42,2,64,35,37,8,ok,2,0,0.001,2,0.22,-0.95,9.85,20,0.012,8.25
2.3299,-0.07679,0.01745,0.16057,0.00000,0.00000,0.00000,58,-4,44,2,65,35,38,8,ok,2,0,0.001,2,0.22,-0.95,9.85,20,0.025,8.25
2.3424,-0.07679,0.01745,0.16057,0.00000,0.00000,0.00000,56,-5,44,2,66,35,40,8,ok,2,0,0.001,2,0.22,-0.95,9.85,20,0.038,8.25
2.3650,-0.07679,0.01745,0.16057,0.00000,0.00000,0.00000,56,-6,45,3,67,33,41,7,ok,2,0,0.001,2,0.22,-0.95,9.85,20,0.050,8.25
2.3682,-0.07679,0.01745,0.16057,0.00000,0.00000,0.00000,56,-8,46,3,69,28,42,7,ok,2,0,0.001,2,0.22,-0.95,9.85,20,0.063,8.25
2.3811,-0.07679,0.01745,0.16057,0.00000,0.00000,0.00000,54,-9,48,4,71,24,44,7,ok,2,0,0.001,2,0.22,-0.95,9.85,20,0.076,8.25
2.4010,-0.07679,0.01745,0.16057,0.00000,0.00000,0.00000,54,-10,49,4,73,21,44,7,ok,2,0,0.001,2,0.22,-0.95,9.85,20,0.089,8.25
2.4059,-0.07679,0.01745,0.16057,0.00000,0.00000,0.00000,52,-10,49,3,74,21,45,7,ok,2,0,0.001,2,0.22,-0.95,9.85,20,0.101,8.25
2.4185,-0.07679,0.01745,0.16057,0.00000,0.00000,0.00000,51,-11,50,6,74,18,46,7,ok,2,0,0.001,2,0.22,-0.95,9.85,20,0.113,8.25
2.4410,-0.07679,0.01745,0.16057,0.00000,0.00000,0.00000,50,-11,51,6,74,14,47,8,ok,2,0,0.001,2,0.22,-0.95,9.85,20,0.126,8.25
2.4442,-0.07679,0.01745,0.16057,0.00000,0.00000,0.00000,48,-11,52,6,73,11,48,8,ok,2,0,0.001,2,0.22,-0.95,9.85,20,0.139,8.25
2.4569,-0.07679,0.01745,0.16057,0.00000,0.00000,0.00000,48,-10,53,6,73,10,49,8,ok,2,0,0.001,2,0.22,-0.95,9.85,20,0.152,8.25
2.4770,-0.07679,0.01745,0.16057,0.00000,0.00000,0.00000,46,-10,53,7,72,6,49,9,ok,2,0,0.001,2,0.22,-0.95,9.85,20,0.164,8.25
2.4819,-0.07679,0.01745,0.16057,0.00000,0.00000,0.00000,44,-11,55,7,72,5,50,8,ok,2,0,0.001,2,0.22,-0.95,9.85,20,0.177,8.25
2.4945,-0.07679,0.01745,0.16057,0.00000,0.00000,0.00000,43,-10,56,7,71,3,51,9,ok,2,0,0.001,2,0.22,-0.95,9.85,20,0.190,8.25
2.5170,-0.07679,0.01745,0.16057,0.00000,0.00000,0.00000,42,-8,57,7,69,1,52,8,ok,2,0,0.001,2,0.22,-0.95,9.85,20,0.202,8.25
2.5205,0.03316,-0.03840,0.16930,0.00000,0.00000,0.00000,40,-7,57,8,66,1,52,9,ok,2,0,0.001,2,-0.36,0.58,10.02,21,0.000,8.25
2.5329,0.03316,-0.03840,0.16930,0.00000,0.00000,0.00000,38,-6,58,7,65,-1,52,8,ok,2,0,0.001,2,-0.36,0.58,10.02,21,0.013,8.25
2.5530,0.03316,-0.03840,0.16930,0.00000,0.00000,0.00000,37,-4,58,8,64,-2,54,9,ok,2,0,0.001,2,-0.36,0.58,10.02,21,0.025,8.25
2.5579,0.03316,-0.03840,0.16930,0.00000,0.00000,0.00000,35,-1,59,9,62,-4,54,9,ok,2,0,0.001,3,-0.36,0.58,10.02,21,0.038,8.25
2.5704,0.03316,-0.03840,0.16930,0.00000,0.00000,0.00000,34,-1,60,10,61,-5,54,8,ok,2,0,0.001,3,-0.36,0.58,10.02,21,0.050,8.25
2.5930,0.03316,-0.03840,0.16930,0.00000,0.00000,0.00000,34,1,61,9,59,-5,56,6,ok,2,0,0.001,3,-0.36,0.58,10.02,21,0.063,8.25
2.5963,0.03316,-0.03840,0.16930,0.00000,0.00000,0.00000,34,3,61,10,56,-6,57,7,ok,2,0,0.001,3,-0.36,0.58,10.02,21,0.076,8.25
2.6089,0.03316,-0.03840,0.16930,0.00000,0.00000,0.00000,32,6,61,10,54,-7,58,8,ok,2,0,0.001,3,-0.36,0.58,10.02,21,0.089,8.25
2.6290,0.03316,-0.03840,0.16930,0.00000,0.00000,0.00000,32,10,61,11,51,-7,58,8,ok,2,0,0.001,3,-0.36,0.58,10.02,21,0.101,8.25
2.6339,0.03316,-0.03840,0.16930,0.00000,0.00000,0.00000,32,12,62,11,48,-6,59,8,ok,2,0,0.001,3,-0.36,0.58,10.02,21,0.114,8.25
2.6464,0.03316,-0.03840,0.16930,0.00000,0.00000,0.00000,32,12,62,12,46,-6,60,9,ok,2,0,0.001,3,-0.36,0.58,10.02,21,0.126,8.25
2.6690,0.03316,-0.03840,0.16930,0.00000,0.00000,0.00000,32,11,62,13,43,-5,59,10,ok,2,0,0.001,3,-0.36,0.58,10.02,21,0.139,8.25
2.6722,0.03316,-0.03840,0.16930,0.00000,0.00000,0.00000,33,10,63,14,40,-5,60,11,ok,2,0,0.001,3,-0.36,0.58,10.02,21,0.152,8.25
2.6849,0.03316,-0.03840,0.16930,0.00000,0.00000,0.00000,34,9,62,14,37,-4,60,12,ok,4,0,0.001,3,-0.36,0.58,10.02,21,0.165,8.25
2.7050,0.03316,-0.03840,0.16930,0.00000,0.00000,0.00000,34,9,63,15,34,-3,61,13,ok,4,0,0.001,3,-0.36,0.58,10.02,21,0.177,8.25
2.7098,0.03316,-0.03840,0.16930,0.00000,0.00000,0.00000,36,8,63,15,31,-2,61,13,ok,4,0,0.001,3,-0.36,0.58,10.02,21,0.190,8.25
2.7227,-0.10821,0.03840,0.17802,0.00000,0.00000,0.00000,36,7,63,17,29,0,62,14,ok,4,0,0.001,3,0.41,-1.21,10.62,22,0.000,8.25
2.7450,-0.10821,0.03840,0.17802,0.00000,0.00000,0.00000,36,6,64,19,27,1,62,15,ok,4,0,0.001,3,0.41,-1.21,10.62,22,0.012,8.25
2.7482,-0.10821,0.03840,0.17802,0.00000,0.00000,0.00000,37,5,64,20,25,4,63,15,ok,4,0,0.001,3,0.41,-1.21,10.62,22,0.026,8.25
2.7608,-0.10821,0.03840,0.17802,0.00000,0.00000,0.00000,38,4,64,21,23,7,63,17,ok,4,0,0.001,3,0.41,-1.21,10.62,22,0.039,8.25
2.7810,-0.10821,0.03840,0.17802,0.00000,0.00000,0.00000,38,3,64,22,22,10,63,18,ok,4,0,0.001,3,0.41,-1.21,10.62,22,0.051,8.25
2.7860,-0.10821,0.03840,0.17802,0.00000,0.00000,0.00000,38,3,64,24,22,13,64,18,ok,4,0,0.001,3,0.41,-1.21,10.62,22,0.063,8.25
2.7984,-0.10821,0.03840,0.17802,0.00000,0.00000,0.00000,39,2,63,27,24,13,64,19,ok,4,0,0.001,3,0.41,-1.21,10.62,22,0.076,8.25
2.8210,-0.10821,0.03840,0.17802,0.00000,0.00000,0.00000,39,1,63,28,24,13,64,20,ok,4,0,0.001,3,0.41,-1.21,10.62,22,0.089,8.25
2.8243,-0.10821,0.03840,0.17802,0.00000,0.00000,0.00000,40,1,64,27,25,11,64,21,ok,4,0,0.001,3,0.41,-1.21,10.62,22,0.102,8.25
2.8368,-0.10821,0.03840,0.17802,0.00000,0.00000,0.00000,40,0,67,23,26,10,65,22,ok,4,0,0.001,3,0.41,-1.21,10.62,22,0.114,8.25
2.8571,-0.10821,0.03840,0.17802,0.00000,0.00000,0.00000,41,0,69,19,28,10,65,23,ok,4,0,0.001,3,0.41,-1.21,10.62,22,0.127,8.25
2.8620,-0.10821,0.03840,0.17802,0.00000,0.00000,0.00000,42,1,70,15,29,10,65,24,ok,4,0,0.001,3,0.41,-1.21,10.62,22,0.139,8.25
2.8744,-0.10821,0.03840,0.17802,0.00000,0.00000,0.00000,42,1,70,13,30,8,65,26,ok,4,0,0.001,3,0.41,-1.21,10.62,22,0.152,8.25
2.8970,-0.10821,0.03840,0.17802,0.00000,0.00000,0.00000,44,2,70,12,33,9,65,27,ok,4,0,0.001,3,0.41,-1.21,10.62,22,0.165,8.25
2.9002,-0.10821,0.03840,0.17802,0.00000,0.00000,0.00000,44,2,70,9,33,9,64,29,ok,4,0,0.001,3,0.41,-1.21,10.62,22,0.178,8.25
2.9132,-0.10821,0.03840,0.17802,0.00000,0.00000,0.00000,45,3,69,6,35,9,64,30,ok,4,0,0.001,3,0.41,-1.21,10.62,22,0.191,8.25
2.9330,-0.14835,-0.03665,0.19199,0.00000,0.00000,0.00000,46,3,68,3,37,8,64,31,ok,4,0,0.001,3,0.69,-1.84,11.90,23,0.000,8.25
2.9378,-0.14835,-0.03665,0.19199,0.00000,0.00000,0.00000,46,2,67,0,38,8,64,33,ok,4,0,0.001,3,0.69,-1.84,11.90,23,0.012,8.25
2.9504,-0.14835,-0.03665,0.19199,0.00000,0.00000,0.00000,47,2,66,-2,39,7,64,35,ok,4,0,0.001,3,0.69,-1.84,11.90,23,0.025,8.25
2.9730,-0.14835,-0.03665,0.19199,0.00000,0.00000,0.00000,48,2,64,-3,40,7,64,36,ok,4,0,0.001,3,0.69,-1.84,11.90,23,0.038,8.25
2.9764,-0.14835,-0.03665,0.19199,0.00000,0.00000,0.00000,48,3,62,-4,41,6,65,36,ok,4,0,0.001,3,0.69,-1.84,11.90,23,0.051,8.25
2.9889,-0.14835,-0.03665,0.19199,0.00000,0.00000,0.00000,48,3,61,-6,42,7,66,35,ok,4,0,0.001,3,0.69,-1.84,11.90,23,0.064,8.25
3.0090,-0.14835,-0.03665,0.19199,0.00000,0.00000,0.00000,49,3,60,-8,43,7,68,33,ok,4,0,0.001,3,0.69,-1.84,11.90,23,0.076,8.25
3.0138,-0.14835,-0.03665,0.19199,0.00000,0.00000,0.00000,50,4,58,-8,44,7,69,28,ok,4,0,0.001,3,0.69,-1.84,11.90,23,0.088,8.25
3.0264,-0.14835,-0.03665,0.19199,0.00000,0.00000,0.00000,50,3,56,-9,45,7,70,24,ok,4,0,0.001,3,0.69,-1.84,11.90,23,0.101,8.25
3.0490,-0.14835,-0.03665,0.19199,0.00000,0.00000,0.00000,50,3,54,-9,46,7,72,21,ok,4,0,0.001,3,0.69,-1.84,11.90,23,0.113,8.25
3.0522,-0.14835,-0.03665,0.19199,0.00000,0.00000,0.00000,50,5,51,-10,47,7,72,21,ok,4,0,0.001,3,0.69,-1.84,11.90,23,0.127,8.25
3.0649,-0.14835,-0.03665,0.19199,0.00000,0.00000,0.00000,51,6,49,-10,47,7,72,19,ok,4,0,0.001,3,0.69,-1.84,11.90,23,0.140,8.25
3.0850,-0.14835,-0.03665,0.19199,0.00000,0.00000,0.00000,52,6,46,-10,48,7,72,15,ok,4,0,0.001,3,0.69,-1.84,11.90,23,0.152,8.25
3.0899,-0.14835,-0.03665,0.19199,0.00000,0.00000,0.00000,52,7,44,-10,49,7,72,13,ok,4,0,0.001,3,0.69,-1.84,11.90,23,0.164,8.25
3.1026,-0.14835,-0.03665,0.19199,0.00000,0.00000,0.00000,52,7,42,-10,50,7,71,11,ok,2,0,0.001,3,0.69,-1.84,11.90,23,0.177,8.25
3.1250,-0.14835,-0.03665,0.19199,0.00000,0.00000,0.00000,54,7,39,-10,50,7,70,8,ok,2,0,0.001,3,0.69,-1.84,11.90,23,0.190,8.25
3.1285,-0.05236,-0.01396,0.17104,0.00000,0.00000,0.00000,54,7,37,-9,51,6,70,6,ok,2,0,0.001,3,0.02,-0.33,9.65,24,0.000,8.25
3.1408,-0.05236,-0.01396,0.17104,0.00000,0.00000,0.00000,54,8,34,-9,52,7,69,4,ok,2,0,0.001,3,0.02,-0.33,9.65,24,0.013,8.25
3.1610,-0.05236,-0.01396,0.17104,0.00000,0.00000,0.00000,54,8,31,-8,53,7,67,2,ok,2,0,0.001,3,0.02,-0.33,9.65,24,0.025,8.25
3.1661,-0.05236,-0.01396,0.17104,0.00000,0.00000,0.00000,54,9,27,-6,54,8,65,2,ok,2,0,0.001,3,0.02,-0.33,9.65,24,0.038,8.25
3.1784,-0.05236,-0.01396,0.17104,0.00000,0.00000,0.00000,54,9,25,-5,55,8,64,0,ok,2,0,0.001,3,0.02,-0.33,9.65,24,0.050,8.25
3.2010,-0.05236,-0.01396,0.17104,0.00000,0.00000,0.00000,56,10,21,-2,56,8,63,-2,ok,2,0,0.001,3,0.02,-0.33,9.65,24,0.063,8.25
3.2042,-0.05236,-0.01396,0.17104,0.00000,0.00000,0.00000,56,11,19,-1,58,6,61,-3,ok,2,0,0.001,3,0.02,-0.33,9.65,24,0.076,8.25
3.2169,-0.05236,-0.01396,0.17104,0.00000,0.00000,0.00000,56,11,18,0,58,7,59,-4,ok,2,0,0.001,3,0.02,-0.33,9.65,24,0.089,8.25
3.2370,-0.05236,-0.01396,0.17104,0.00000,0.00000,0.00000,56,11,16,2,59,8,58,-4,ok,2,0,0.001,3,0.02,-0.33,9.65,24,0.101,8.25
3.2420,-0.05236,-0.01396,0.17104,0.00000,0.00000,0.00000,56,12,15,6,59,8,55,-5,ok,2,0,0.001,3,0.02,-0.33,9.65,24,0.114,8.25
3.2545,-0.05236,-0.01396,0.17104,0.00000,0.00000,0.00000,56,13,13,9,60,9,53,-6,ok,2,0,0.001,3,0.02,-0.33,9.65,24,0.126,8.25
3.2770,-0.05236,-0.01396,0.17104,0.00000,0.00000,0.00000,56,12,13,11,60,9,50,-5,ok,2,0,0.001,3,0.02,-0.33,9.65,24,0.139,8.25
3.2803,-0.05236,-0.01396,0.17104,0.00000,0.00000,0.00000,56,13,15,12,60,9,47,-5,ok,2,0,0.001,3,0.02,-0.33,9.65,24,0.152,8.25
3.2931,-0.05236,-0.01396,0.17104,0.00000,0.00000,0.00000,56,13,15,11,61,10,45,-5,ok,2,0,0.001,3,0.02,-0.33,9.65,24,0.165,8.25
3.3130,-0.05236,-0.01396,0.17104,0.00000,0.00000,0.00000,56,14,17,10,61,11,42,-4,ok,2,0,0.001,3,0.02,-0.33,9.65,24,0.177,8.25
3.3179,-0.05236,-0.01396,0.17104,0.00000,0.00000,0.00000,56,15,19,9,61,12,40,-4,ok,2,0,0.001,3,0.02,-0.33,9.65,24,0.190,8.25
3.3307,-0.01396,0.07679,0.15184,0.00000,0.00000,0.00000,56,15,19,9,61,12,37,-3,ok,2,0,0.001,3,1.88,0.10,12.03,25,0.000,8.25
3.3530,-0.01396,0.07679,0.15184,0.00000,0.00000,0.00000,56,16,21,8,61,13,34,-3,ok,2,0,0.001,3,1.88,0.10,12.03,25,0.013,8.25
3.3562,-0.01396,0.07679,0.15184,0.00000,0.00000,0.00000,56,18,21,8,61,14,30,-1,ok,2,0,0.001,3,1.88,0.10,12.03,25,0.026,8.25
3.3689,-0.01396,0.07679,0.15184,0.00000,0.00000,0.00000,58,19,23,6,63,14,29,0,ok,2,0,0.001,3,1.88,0.10,12.03,25,0.039,8.25
3.3890,-0.01396,0.07679,0.15184,0.00000,0.00000,0.00000,58,20,24,5,63,15,27,2,ok,2,0,0.001,3,1.88,0.10,12.03,25,0.051,8.25
3.3939,-0.01396,0.07679,0.15184,0.00000,0.00000,0.00000,58,21,24,5,63,16,25,5,ok,2,0,0.001,3,1.88,0.10,12.03,25,0.064,8.25
3.4064,-0.01396,0.07679,0.15184,0.00000,0.00000,0.00000,58,22,25,4,63,16,24,7,ok,2,0,0.001,3,1.88,0.10,12.03,25,0.076,8.25
3.4290,-0.01396,0.07679,0.15184,0.00000,0.00000,0.00000,58,23,25,3,64,17,23,11,ok,2,0,0.001,3,1.88,0.10,12.03,25,0.089,8.25
3.4325,-0.01396,0.07679,0.15184,0.00000,0.00000,0.00000,57,26,26,3,64,18,22,13,ok,2,0,0.001,3,1.88,0.10,12.03,25,0.102,8.25
3.4449,-0.01396,0.07679,0.15184,0.00000,0.00000,0.00000,57,27,27,2,64,20,24,12,ok,2,0,0.001,3,1.88,0.10,12.03,25,0.115,8.25
3.4650,-0.01396,0.07679,0.15184,0.00000,0.00000,0.00000,58,25,28,2,64,21,25,12,ok,2,0,0.001,3,1.88,0.10,12.03,25,0.127,8.25
3.4699,-0.01396,0.07679,0.15184,0.00000,0.00000,0.00000,58,21,29,2,65,22,25,10,ok,2,0,0.001,3,1.88,0.10,12.03,25,0.140,8.25
3.4825,-0.01396,0.07679,0.15184,0.00000,0.00000,0.00000,60,18,31,1,64,23,27,9,ok,2,0,0.001,3,1.88,0.10,12.03,25,0.152,8.25
3.5050,-0.01396,0.07679,0.15184,0.00000,0.00000,0.00000,60,13,32,2,65,25,28,10,ok,2,0,0.001,3,1.88,0.10,12.03,25,0.165,8.25
3.5083,-0.01396,0.07679,0.15184,0.00000,0.00000,0.00000,60,11,33,2,65,25,29,9,ok,2,0,0.001,3,1.88,0.10,12.03,25,0.178,8.25
3.5222,-0.01396,0.07679,0.15184,0.00000,0.00000,0.00000,60,10,35,2,64,28,30,9,ok,2,0,0.001,3,1.88,0.10,12.03,25,0.191,8.25
3.5410,-0.08727,-0.01920,0.19548,0.00000,0.00000,0.00000,60,7,36,2,64,29,32,9,ok,2,0,0.001,3,-1.51,-0.44,9.55,26,0.000,8.25
3.5459,-0.08727,-0.01920,0.19548,0.00000,0.00000,0.00000,60,4,38,3,64,30,33,9,ok,2,0,0.001,3,-1.51,-0.44,9.55,26,0.012,8.25
3.5584,-0.08727,-0.01920,0.19548,0.00000,0.00000,0.00000,60,2,40,3,65,32,35,9,ok,2,0,0.001,3,-1.51,-0.44,9.55,26,0.025,8.25
3.5810,-0.08727,-0.01920,0.19548,0.00000,0.00000,0.00000,59,-1,41,3,64,33,36,8,ok,2,0,0.001,4,-1.51,-0.44,9.55,26,0.037,8.25
3.5842,-0.08727,-0.01920,0.19548,0.00000,0.00000,0.00000,58,-3,43,2,64,35,37,8,ok,2,0,0.001,4,-1.51,-0.44,9.55,26,0.051,8.25
3.5968,-0.08727,-0.01920,0.19548,0.00000,0.00000,0.00000,58,-4,44,3,64,35,39,8,ok,2,0,0.001,4,-1.51,-0.44,9.55,26,0.063,8.25
3.6170,-0.08727,-0.01920,0.19548,0.00000,0.00000,0.00000,57,-5,44,3,66,35,40,8,ok,2,0,0.001,4,-1.51,-0.44,9.55,26,0.076,8.25
3.6218,-0.08727,-0.01920,0.19548,0.00000,0.00000,0.00000,56,-6,46,3,67,33,41,7,ok,2,0,0.001,4,-1.51,-0.44,9.55,26,0.088,8.25
3.6345,-0.08727,-0.01920,0.19548,0.00000,0.00000,0.00000,56,-8,47,3,69,28,42,7,ok,2,0,0.001,4,-1.51,-0.44,9.55,26,0.101,8.25
3.6571,-0.08727,-0.01920,0.19548,0.00000,0.00000,0.00000,54,-9,48,4,71,24,43,7,ok,2,0,0.001,4,-1.51,-0.44,9.55,26,0.113,8.25
3.6605,-0.08727,-0.01920,0.19548,0.00000,0.00000,0.00000,54,-10,49,4,73,21,44,7,ok,2,0,0.001,4,-1.51,-0.44,9.55,26,0.127,8.25
3.6729,-0.08727,-0.01920,0.19548,0.00000,0.00000,0.00000,52,-10,50,4,74,20,45,8,ok,2,0,0.001,4,-1.51,-0.44,9.55,26,0.139,8.25
3.6930,-0.08727,-0.01920,0.19548,0.00000,0.00000,0.00000,52,-11,50,6,73,18,46,8,ok,2,0,0.001,4,-1.51,-0.44,9.55,26,0.152,8.25
3.6979,-0.08727,-0.01920,0.19548,0.00000,0.00000,0.00000,50,-11,51,6,74,14,47,8,ok,2,0,0.001,4,-1.51,-0.44,9.55,26,0.164,8.25
3.7106,-0.08727,-0.01920,0.19548,0.00000,0.00000,0.00000,48,-11,52,6,73,11,48,8,ok,2,0,0.001,4,-1.51,-0.44,9.55,26,0.177,8.25
3.7330,-0.08727,-0.01920,0.19548,0.00000,0.00000,0.00000,48,-10,53,6,72,9,49,8,ok,2,0,0.001,4,-1.51,-0.44,9.55,26,0.189,8.25
3.7366,0.02269,0.01396,0.24086,0.00000,0.00000,0.00000,46,-10,54,7,72,6,49,9,ok,2,0,0.001,4,-0.03,-0.14,9.06,27,0.000,8.25
3.7489,0.02269,0.01396,0.24086,0.00000,0.00000,0.00000,44,-10,56,7,72,5,49,8,ok,2,0,0.001,4,-0.03,-0.14,9.06,27,0.013,8.25
3.7690,0.02269,0.01396,0.24086,0.00000,0.00000,0.00000,44,-9,56,7,71,4,50,9,ok,2,0,0.001,4,-0.03,-0.14,9.06,27,0.025,8.25
3.7739,0.02269,0.01396,0.24086,0.00000,0.00000,0.00000,42,-8,57,7,69,1,51,8,ok,2,0,0.001,4,-0.03,-0.14,9.06,27,0.038,8.25
3.7867,0.02269,0.01396,0.24086,0.00000,0.00000,0.00000,40,-6,57,8,67,1,51,9,ok,2,0,0.001,4,-0.03,-0.14,9.06,27,0.050,8.25
3.8090,0.02269,0.01396,0.24086,0.00000,0.00000,0.00000,38,-5,58,7,65,-1,52,8,ok,2,0,0.001,4,-0.03,-0.14,9.06,27,0.063,8.25
3.8123,0.02269,0.01396,0.24086,0.00000,0.00000,0.00000,37,-3,58,8,64,-3,53,9,ok,2,0,0.001,4,-0.03,-0.14,9.06,27,0.076,8.25
3.8248,0.02269,0.01396,0.24086,0.00000,0.00000,0.00000,35,-1,59,8,62,-4,54,9,ok,2,0,0.001,4,-0.03,-0.14,9.06,27,0.089,8.25
3.8451,0.02269,0.01396,0.24086,0.00000,0.00000,0.00000,35,-1,60,10,61,-5,54,8,ok,2,0,0.001,4,-0.03,-0.14,9.06,27,0.101,8.25
3.8499,0.02269,0.01396,0.24086,0.00000,0.00000,0.00000,34,0,60,10,59,-6,56,6,ok,2,0,0.001,4,-0.03,-0.14,9.06,27,0.114,8.25
3.8625,0.02269,0.01396,0.24086,0.00000,0.00000,0.00000,34,2,61,11,56,-7,57,7,ok,2,0,0.001,4,-0.03,-0.14,9.06,27,0.126,8.25
3.8850,0.02269,0.01396,0.24086,0.00000,0.00000,0.00000,32,5,61,11,54,-7,58,8,ok,2,0,0.001,4,-0.03,-0.14,9.06,27,0.139,8.25
3.8883,0.02269,0.01396,0.24086,0.00000,0.00000,0.00000,32,8,61,12,51,-6,58,9,ok,2,0,0.001,4,-0.03,-0.14,9.06,27,0.152,8.25
3.9011,0.02269,0.01396,0.24086,0.00000,0.00000,0.00000,31,11,61,12,48,-6,59,9,ok,2,0,0.001,4,-0.03,-0.14,9.06,27,0.165,8.25
3.9210,0.02269,0.01396,0.24086,0.00000,0.00000,0.00000,32,11,62,13,46,-6,60,10,ok,2,0,0.001,4,-0.03,-0.14,9.06,27,0.177,8.25
3.9260,0.02269,0.01396,0.24086,0.00000,0.00000,0.00000,32,11,61,14,43,-5,59,10,ok,2,0,0.001,4,-0.03,-0.14,9.06,27,0.190,8.25
3.9387,0.02269,0.01396,0.24086,0.00000,0.00000,0.00000,33,9,62,14,40,-5,60,11,ok,2,0,0.001,4,-0.03,-0.14,9.06,27,0.202,8.25
3.9610,-0.12392,-0.00175,0.24260,0.00000,0.00000,0.00000,34,9,62,15,38,-4,60,12,ok,2,0,0.001,4,0.08,-1.72,9.61,28,0.000,8.25
3.9642,-0.12392,-0.00175,0.24260,0.00000,0.00000,0.00000,34,8,62,15,34,-4,62,13,ok,2,0,0.001,4,0.08,-1.72,9.61,28,0.013,8.25
3.9768,-0.12392,-0.00175,0.24260,0.00000,0.00000,0.00000,36,7,63,16,31,-2,62,13,ok,4,0,0.001,4,0.08,-1.72,9.61,28,0.026,8.25
3.9970,-0.12392,-0.00175,0.24260,0.00000,0.00000,0.00000,36,6,63,17,29,-1,63,14,ok,4,0,0.001,4,0.08,-1.72,9.61,28,0.038,8.25
4.0021,-0.12392,-0.00175,0.24260,0.00000,0.00000,0.00000,36,5,64,19,27,1,63,15,ok,4,0,0.001,4,0.08,-1.72,9.61,28,0.051,8.25
4.0144,-0.12392,-0.00175,0.24260,0.00000,0.00000,0.00000,37,4,64,20,25,4,64,16,ok,4,0,0.001,4,0.08,-1.72,9.61,28,0.064,8.25
4.0370,-0.12392,-0.00175,0.24260,0.00000,0.00000,0.00000,38,3,64,21,24,7,64,17,ok,4,0,0.001,4,0.08,-1.72,9.61,28,0.076,8.25
4.0402,-0.12392,-0.00175,0.24260,0.00000,0.00000,0.00000,38,3,64,23,23,10,63,18,ok,4,0,0.001,4,0.08,-1.72,9.61,28,0.089,8.25
4.0531,-0.12392,-0.00175,0.24260,0.00000,0.00000,0.00000,38,2,64,24,22,14,64,19,ok,4,0,0.001,4,0.08,-1.72,9.61,28,0.102,8.25
4.0730,-0.12392,-0.00175,0.24260,0.00000,0.00000,0.00000,39,2,63,26,24,13,64,20,ok,4,0,0.001,4,0.08,-1.72,9.61,28,0.114,8.25
4.0778,-0.12392,-0.00175,0.24260,0.00000,0.00000,0.00000,40,2,63,27,24,13,64,20,ok,4,0,0.001,4,0.08,-1.72,9.61,28,0.127,8.25
4.0904,-0.12392,-0.00175,0.24260,0.00000,0.00000,0.00000,40,2,65,26,25,11,64,21,ok,4,0,0.001,4,0.08,-1.72,9.61,28,0.139,8.25
4.1130,-0.12392,-0.00175,0.24260,0.00000,0.00000,0.00000,40,2,67,22,27,10,65,22,ok,4,0,0.001,4,0.08,-1.72,9.61,28,0.152,8.25
4.1163,-0.12392,-0.00175,0.24260,0.00000,0.00000,0.00000,41,1,69,19,28,10,65,23,ok,4,0,0.001,4,0.08,-1.72,9.61,28,0.165,8.25
4.1291,-0.12392,-0.00175,0.24260,0.00000,0.00000,0.00000,42,2,70,15,29,9,64,24,ok,4,0,0.001,4,0.08,-1.72,9.61,28,0.178,8.25
4.1490,-0.12392,-0.00175,0.24260,0.00000,0.00000,0.00000,42,2,71,12,30,8,64,26,ok,4,0,0.001,4,0.08,-1.72,9.61,28,0.190,8.25
4.1541,-0.13090,0.01396,0.25482,0.00000,0.00000,0.00000,44,2,70,12,33,9,65,27,ok,4,0,0.001,4,0.37,-1.19,10.45,29,0.000,8.25
4.1666,-0.13090,0.01396,0.25482,0.00000,0.00000,0.00000,44,2,70,8,33,8,64,29,ok,4,0,0.001,4,0.37,-1.19,10.45,29,0.013,8.25
4.1890,-0.13090,0.01396,0.25482,0.00000,0.00000,0.00000,45,3,69,6,35,8,64,31,ok,4,0,0.001,4,0.37,-1.19,10.45,29,0.025,8.25
4.1922,-0.13090,0.01396,0.25482,0.00000,0.00000,0.00000,46,3,69,3,36,8,64,32,ok,4,0,0.001,4,0.37,-1.19,10.45,29,0.038,8.25
4.2048,-0.13090,0.01396,0.25482,0.00000,0.00000,0.00000,46,3,67,0,37,8,64,33,ok,4,0,0.001,4,0.37,-1.19,10.45,29,0.051,8.25
4.2250,-0.13090,0.01396,0.25482,0.00000,0.00000,0.00000,47,2,66,-2,39,7,63,35,ok,4,0,0.001,4,0.37,-1.19,10.45,29,0.064,8.25
4.2298,-0.13090,0.01396,0.25482,0.00000,0.00000,0.00000,48,3,64,-3,40,7,63,36,ok,4,0,0.001,4,0.37,-1.19,10.45,29,0.076,8.25
4.2426,-0.13090,0.01396,0.25482,0.00000,0.00000,0.00000,48,3,62,-4,41,6,64,36,ok,4,0,0.001,4,0.37,-1.19,10.45,29,0.089,8.25
4.2650,-0.13090,0.01396,0.25482,0.00000,0.00000,0.00000,48,3,61,-6,42,6,65,35,ok,4,0,0.001,4,0.37,-1.19,10.45,29,0.101,8.25
4.2682,-0.13090,0.01396,0.25482,0.00000,0.00000,0.00000,49,3,60,-8,43,6,67,33,ok,4,0,0.001,4,0.37,-1.19,10.45,29,0.114,8.25
4.2811,-0.13090,0.01396,0.25482,0.00000,0.00000,0.00000,50,4,58,-8,44,7,69,28,ok,4,0,0.001,4,0.37,-1.19,10.45,29,0.127,8.25
4.3010,-0.13090,0.01396,0.25482,0.00000,0.00000,0.00000,50,3,55,-9,45,7,70,24,ok,4,0,0.001,4,0.37,-1.19,10.45,29,0.140,8.25
4.3059,-0.13090,0.01396,0.25482,0.00000,0.00000,0.00000,50,3,53,-9,46,6,72,21,ok,2,0,0.001,4,0.37,-1.19,10.45,29,0.152,8.25
4.3184,-0.13090,0.01396,0.25482,0.00000,0.00000,0.00000,50,5,51,-10,47,6,72,21,ok,2,0,0.001,4,0.37,-1.19,10.45,29,0.165,8.25
4.3410,-0.13090,0.01396,0.25482,0.00000,0.00000,0.00000,51,6,49,-10,48,7,72,19,ok,2,0,0.001,4,0.37,-1.19,10.45,29,0.177,8.25
4.3444,-0.13090,0.01396,0.25482,0.00000,0.00000,0.00000,52,6,46,-10,49,7,72,15,ok,2,0,0.001,4,0.37,-1.19,10.45,29,0.190,8.25
4.3572,-0.03665,-0.04538,0.25482,0.00000,0.00000,0.00000,52,6,44,-10,49,7,72,13,ok,2,0,0.001,4,-0.20,-0.31,9.46,30,0.000,8.25
4.3770,-0.03665,-0.04538,0.25482,0.00000,0.00000,0.00000,52,7,41,-10,50,7,71,11,ok,2,0,0.001,4,-0.20,-0.31,9.46,30,0.013,8.25
4.3819,-0.03665,-0.04538,0.25482,0.00000,0.00000,0.00000,53,7,39,-11,51,7,70,8,ok,2,0,0.001,4,-0.20,-0.31,9.46,30,0.025,8.25
4.3944,-0.03665,-0.04538,0.25482,0.00000,0.00000,0.00000,53,7,37,-10,52,6,70,6,ok,2,0,0.001,4,-0.20,-0.31,9.46,30,0.037,8.25
4.4170,-0.03665,-0.04538,0.25482,0.00000,0.00000,0.00000,54,8,33,-9,52,7,69,4,ok,2,0,0.001,4,-0.20,-0.31,9.46,30,0.050,8.25
4.4203,-0.03665,-0.04538,0.25482,0.00000,0.00000,0.00000,54,9,31,-8,53,7,67,2,ok,2,0,0.001,4,-0.20,-0.31,9.46,30,0.063,8.25
4.4329,-0.03665,-0.04538,0.25482,0.00000,0.00000,0.00000,54,9,28,-7,54,8,66,2,ok,2,0,0.001,4,-0.20,-0.31,9.46,30,0.076,8.25
4.4530,-0.03665,-0.04538,0.25482,0.00000,0.00000,0.00000,55,10,25,-5,55,8,65,0,ok,2,0,0.001,4,-0.20,-0.31,9.46,30,0.089,8.25
4.4580,-0.03665,-0.04538,0.25482,0.00000,0.00000,0.00000,56,11,21,-3,56,8,64,-2,ok,2,0,0.001,4,-0.20,-0.31,9.46,30,0.101,8.25
4.4705,-0.03665,-0.04538,0.25482,0.00000,0.00000,0.00000,56,11,19,-1,58,6,61,-3,ok,2,0,0.001,4,-0.20,-0.31,9.46,30,0.114,8.25
4.4930,-0.03665,-0.04538,0.25482,0.00000,0.00000,0.00000,56,10,19,0,58,7,59,-4,ok,2,0,0.001,4,-0.20,-0.31,9.46,30,0.126,8.25
4.4963,-0.03665,-0.04538,0.25482,0.00000,0.00000,0.00000,56,11,17,3,59,8,57,-4,ok,2,0,0.001,4,-0.20,-0.31,9.46,30,0.139,8.25
4.5088,-0.03665,-0.04538,0.25482,0.00000,0.00000,0.00000,56,11,15,6,59,8,55,-5,ok,2,0,0.001,4,-0.20,-0.31,9.46,30,0.152,8.25
4.5290,-0.03665,-0.04538,0.25482,0.00000,0.00000,0.00000,56,12,13,9,60,9,53,-6,ok,2,0,0.001,4,-0.20,-0.31,9.46,30,0.164,8.25
4.5339,-0.03665,-0.04538,0.25482,0.00000,0.00000,0.00000,56,12,13,12,60,9,50,-5,ok,2,0,0.001,4,-0.20,-0.31,9.46,30,0.177,8.25
4.5464,-0.03665,-0.04538,0.25482,0.00000,0.00000,0.00000,56,13,15,12,60,9,47,-4,ok,2,0,0.001,4,-0.20,-0.31,9.46,30,0.189,8.25
4.5690,0.00000,0.04538,0.24435,0.00000,0.00000,0.00000,56,13,16,12,61,10,45,-5,ok,2,0,0.001,4,-0.05,-0.03,9.91,31,0.000,8.25
4.5725,0.00000,0.04538,0.24435,0.00000,0.00000,0.00000,56,14,17,10,61,11,42,-4,ok,2,0,0.001,4,-0.05,-0.03,9.91,31,0.013,8.25
4.5849,0.00000,0.04538,0.24435,0.00000,0.00000,0.00000,56,15,19,9,61,12,40,-4,ok,2,0,0.001,5,-0.05,-0.03,9.91,31,0.026,8.25
4.6050,0.00000,0.04538,0.24435,0.00000,0.00000,0.00000,56,16,19,9,61,12,36,-3,ok,2,0,0.001,5,-0.05,-0.03,9.91,31,0.039,8.25
4.6099,0.00000,0.04538,0.24435,0.00000,0.00000,0.00000,57,16,21,8,62,13,34,-3,ok,2,0,0.001,5,-0.05,-0.03,9.91,31,0.051,8.25
4.6224,0.00000,0.04538,0.24435,0.00000,0.00000,0.00000,56,18,21,8,62,14,30,-1,ok,2,0,0.001,5,-0.05,-0.03,9.91,31,0.064,8.25
4.6450,0.00000,0.04538,0.24435,0.00000,0.00000,0.00000,58,19,23,6,63,14,29,0,ok,2,0,0.001,5,-0.05,-0.03,9.91,31,0.076,8.25
4.6485,0.00000,0.04538,0.24435,0.00000,0.00000,0.00000,58,20,24,5,63,15,27,2,ok,2,0,0.001,5,-0.05,-0.03,9.91,31,0.089,8.25
4.6610,0.00000,0.04538,0.24435,0.00000,0.00000,0.00000,58,21,24,5,63,16,25,5,ok,2,0,0.001,5,-0.05,-0.03,9.91,31,0.102,8.25
4.6811,0.00000,0.04538,0.24435,0.00000,0.00000,0.00000,58,22,25,4,63,17,24,7,ok,2,0,0.001,5,-0.05,-0.03,9.91,31,0.115,8.25
4.6860,0.00000,0.04538,0.24435,0.00000,0.00000,0.00000,58,23,26,3,64,17,23,11,ok,2,0,0.001,5,-0.05,-0.03,9.91,31,0.127,8.25
4.6985,0.00000,0.04538,0.24435,0.00000,0.00000,0.00000,57,26,27,3,64,18,22,13,ok,2,0,0.001,5,-0.05,-0.03,9.91,31,0.140,8.25
4.7210,0.00000,0.04538,0.24435,0.00000,0.00000,0.00000,57,26,27,2,64,20,24,12,ok,2,0,0.001,5,-0.05,-0.03,9.91,31,0.152,8.25
4.7243,0.00000,0.04538,0.24435,0.00000,0.00000,0.00000,58,25,29,2,64,21,25,12,ok,2,0,0.001,5,-0.05,-0.03,9.91,31,0.165,8.25
4.7370,0.00000,0.04538,0.24435,0.00000,0.00000,0.00000,58,21,30,2,65,22,25,10,ok,2,0,0.001,5,-0.05,-0.03,9.91,31,0.178,8.25
4.7610,0.00000,0.04538,0.24435,0.00000,0.00000,0.00000,60,18,31,1,64,23,27,10,ok,2,0,0.001,5,-0.05,-0.03,9.91,31,0.191,8.25
4.7645,-0.14137,0.04014,0.28798,0.00000,0.00000,0.00000,60,13,32,2,64,25,28,10,ok,2,0,0.001,5,0.81,-1.55,10.07,32,0.000,8.25
4.7771,-0.14137,0.04014,0.28798,0.00000,0.00000,0.00000,60,11,34,2,65,25,29,10,ok,2,0,0.001,5,0.81,-1.55,10.07,32,0.013,8.25
4.7970,-0.14137,0.04014,0.28798,0.00000,0.00000,0.00000,60,10,36,2,64,27,31,9,ok,2,0,0.001,5,0.81,-1.55,10.07,32,0.025,8.25
4.8019,-0.14137,0.04014,0.28798,0.00000,0.00000,0.00000,60,7,37,2,64,28,33,9,ok,2,0,0.001,5,0.81,-1.55,10.07,32,0.038,8.25
4.8144,-0.14137,0.04014,0.28798,0.00000,0.00000,0.00000,60,4,38,3,64,30,34,9,ok,2,0,0.001,5,0.81,-1.55,10.07,32,0.050,8.25
4.8370,-0.14137,0.04014,0.28798,0.00000,0.00000,0.00000,60,1,40,4,64,31,35,9,ok,2,0,0.001,5,0.81,-1.55,10.07,32,0.063,8.25
4.8404,-0.14137,0.04014,0.28798,0.00000,0.00000,0.00000,59,-1,41,3,64,33,36,9,ok,2,0,0.001,5,0.81,-1.55,10.07,32,0.076,8.25
4.8529,-0.14137,0.04014,0.28798,0.00000,0.00000,0.00000,58,-3,42,3,64,34,37,9,ok,2,0,0.001,5,0.81,-1.55,10.07,32,0.089,8.25
4.8730,-0.14137,0.04014,0.28798,0.00000,0.00000,0.00000,58,-5,44,3,65,35,38,9,ok,2,0,0.001,5,0.81,-1.55,10.07,32,0.101,8.25
4.8781,-0.14137,0.04014,0.28798,0.00000,0.00000,0.00000,56,-6,44,3,66,35,39,9,ok,2,0,0.001,5,0.81,-1.55,10.07,32,0.114,8.25
4.8904,-0.14137,0.04014,0.28798,0.00000,0.00000,0.00000,56,-7,45,3,68,33,41,8,ok,2,0,0.001,5,0.81,-1.55,10.07,32,0.126,8.25
4.9130,-0.14137,0.04014,0.28798,0.00000,0.00000,0.00000,56,-9,46,3,70,28,42,8,ok,2,0,0.001,5,0.81,-1.55,10.07,32,0.139,8.25
4.9163,-0.14137,0.04014,0.28798,0.00000,0.00000,0.00000,54,-9,48,4,71,24,43,8,ok,2,0,0.001,5,0.81,-1.55,10.07,32,0.152,8.25
4.9289,-0.14137,0.04014,0.28798,0.00000,0.00000,0.00000,54,-10,49,4,73,21,44,8,ok,2,0,0.001,5,0.81,-1.55,10.07,32,0.165,8.25
4.9490,-0.14137,0.04014,0.28798,0.00000,0.00000,0.00000,52,-10,49,3,74,20,45,8,ok,2,0,0.001,5,0.81,-1.55,10.07,32,0.177,8.25
4.9539,-0.14137,0.04014,0.28798,0.00000,0.00000,0.00000,51,-11,49,6,74,18,46,8,ok,2,0,0.001,5,0.81,-1.55,10.07,32,0.190,8.25
4.9666,-0.14137,0.04014,0.28798,0.00000,0.00000,0.00000,50,-11,51,6,74,14,47,9,ok,2,0,0.001,5,0.81,-1.55,10.07,32,0.202,8.25
4.9890,0.07156,0.05236,0.28100,0.00000,0.00000,0.00000,48,-11,52,6,73,11,48,9,ok,2,0,0.001,5,0.79,0.72,10.33,33,0.000,8.25
4.9924,0.07156,0.05236,0.28100,0.00000,0.00000,0.00000,47,-10,53,6,73,10,48,8,ok,2,0,0.001,5,0.79,0.72,10.33,33,0.013,8.25
5.0049,0.07156,0.05236,0.28100,0.00000,0.00000,0.00000,46,-10,53,6,73,7,49,9,ok,2,0,0.001,5,0.79,0.72,10.33,33,0.026,8.25
5.0250,0.07156,0.05236,0.28100,0.00000,0.00000,0.00000,44,-10,55,6,73,5,49,8,ok,2,0,0.001,5,0.79,0.72,10.33,33,0.038,8.25
5.0411,0.07156,0.05236,0.28100,0.00000,0.00000,0.00000,43,-9,56,6,72,4,50,9,ok,2,0,0.001,5,0.79,0.72,10.33,33,0.051,8.25
5.0445,0.07156,0.05236,0.28100,0.00000,0.00000,0.00000,42,-7,57,6,70,1,51,8,ok,2,0,0.001,5,0.79,0.72,10.33,33,0.066,8.25
5.0650,0.07156,0.05236,0.28100,0.00000,0.00000,0.00000,40,-6,57,7,67,1,51,8,ok,2,0,0.001,5,0.79,0.72,10.33,33,0.078,8.25
5.0696,0.07156,0.05236,0.28100,0.00000,0.00000,0.00000,38,-4,57,6,65,-1,52,8,ok,2,0,0.001,5,0.79,0.72,10.33,33,0.091,8.25
5.0821,0.07156,0.05236,0.28100,0.00000,0.00000,0.00000,37,-2,58,7,64,-3,54,9,ok,2,0,0.001,5,0.79,0.72,10.33,33,0.103,8.25
5.1050,0.07156,0.05236,0.28100,0.00000,0.00000,0.00000,35,0,59,8,62,-4,55,8,ok,2,0,0.001,5,0.79,0.72,10.33,33,0.116,8.25
5.1083,0.07156,0.05236,0.28100,0.00000,0.00000,0.00000,35,0,60,10,61,-5,54,8,ok,2,0,0.001,5,0.79,0.72,10.33,33,0.129,8.25
5.1211,0.07156,0.05236,0.28100,0.00000,0.00000,0.00000,34,0,60,10,59,-6,56,6,ok,2,0,0.001,5,0.79,0.72,10.33,33,0.142,8.25
5.1410,0.07156,0.05236,0.28100,0.00000,0.00000,0.00000,33,2,61,11,56,-6,57,7,ok,2,0,0.001,5,0.79,0.72,10.33,33,0.154,8.25
5.1459,0.07156,0.05236,0.28100,0.00000,0.00000,0.00000,32,5,61,11,54,-7,58,8,ok,2,0,0.001,5,0.79,0.72,10.33,33,0.167,8.25
5.1586,0.07156,0.05236,0.28100,0.00000,0.00000,0.00000,32,8,61,12,51,-6,58,8,ok,2,0,0.001,5,0.79,0.72,10.33,33,0.179,8.25
5.1810,0.07156,0.05236,0.28100,0.00000,0.00000,0.00000,31,10,61,12,48,-6,59,9,ok,2,0,0.001,5,0.79,0.72,10.33,33,0.192,8.25
5.1845,-0.08029,-0.01745,0.29322,0.00000,0.00000,0.00000,32,11,61,13,46,-6,60,10,ok,2,0,0.001,5,0.12,-1.36,9.56,34,0.000,8.25
5.1969,-0.08029,-0.01745,0.29322,0.00000,0.00000,0.00000,32,10,61,14,43,-6,60,10,ok,2,0,0.001,5,0.12,-1.36,9.56,34,0.013,8.25
5.2170,-0.08029,-0.01745,0.29322,0.00000,0.00000,0.00000,33,9,62,14,40,-5,61,11,ok,2,0,0.001,5,0.12,-1.36,9.56,34,0.025,8.25
5.2220,-0.08029,-0.01745,0.29322,0.00000,0.00000,0.00000,34,8,62,15,37,-4,62,12,ok,2,0,0.001,5,0.12,-1.36,9.56,34,0.038,8.25
5.2345,-0.08029,-0.01745,0.29322,0.00000,0.00000,0.00000,34,7,62,16,34,-4,62,13,ok,2,0,0.001,5,0.12,-1.36,9.56,34,0.050,8.25
5.2570,-0.08029,-0.01745,0.29322,0.00000,0.00000,0.00000,35,6,63,16,31,-2,62,13,ok,2,0,0.001,5,0.12,-1.36,9.56,34,0.063,8.25
5.2602,-0.08029,-0.01745,0.29322,0.00000,0.00000,0.00000,36,6,63,18,29,-1,63,14,ok,2,0,0.001,5,0.12,-1.36,9.56,34,0.076,8.25
5.2732,-0.08029,-0.01745,0.29322,0.00000,0.00000,0.00000,36,4,64,19,28,1,63,15,ok,2,0,0.001,5,0.12,-1.36,9.56,34,0.089,8.25
5.2930,-0.08029,-0.01745,0.29322,0.00000,0.00000,0.00000,37,4,64,20,25,4,64,16,ok,2,0,0.001,5,0.12,-1.36,9.56,34,0.101,8.25
5.2979,-0.08029,-0.01745,0.29322,0.00000,0.00000,0.00000,38,3,64,21,24,7,63,17,ok,2,0,0.001,5,0.12,-1.36,9.56,34,0.114,8.25
5.3104,-0.08029,-0.01745,0.29322,0.00000,0.00000,0.00000,38,3,64,22,23,11,63,18,ok,2,0,0.001,5,0.12,-1.36,9.56,34,0.126,8.25
5.3330,-0.08029,-0.01745,0.29322,0.00000,0.00000,0.00000,38,3,64,23,22,14,64,18,ok,2,0,0.001,5,0.12,-1.36,9.56,34,0.139,8.25
5.3363,-0.08029,-0.01745,0.29322,0.00000,0.00000,0.00000,39,4,63,26,24,13,64,19,ok,2,0,0.001,5,0.12,-1.36,9.56,34,0.152,8.25
5.3489,-0.08029,-0.01745,0.29322,0.00000,0.00000,0.00000,40,3,63,27,24,13,64,20,ok,2,0,0.001,5,0.12,-1.36,9.56,34,0.165,8.25
5.3690,-0.08029,-0.01745,0.29322,0.00000,0.00000,0.00000,40,3,65,25,25,11,64,21,ok,2,0,0.001,5,0.12,-1.36,9.56,34,0.177,8.25
5.3740,-0.08029,-0.01745,0.29322,0.00000,0.00000,0.00000,40,2,67,22,27,10,65,22,ok,2,0,0.001,5,0.12,-1.36,9.56,34,0.190,8.25
5.3867,-0.13439,0.00698,0.31590,0.00000,0.00000,0.00000,41,1,69,19,28,10,65,23,ok,2,0,0.001,5,-0.66,-1.25,9.57,35,0.000,8.25
5.4090,-0.13439,0.00698,0.31590,0.00000,0.00000,0.00000,42,2,70,15,29,9,64,24,ok,2,0,0.001,5,-0.66,-1.25,9.57,35,0.012,8.25
5.4122,-0.13439,0.00698,0.31590,0.00000,0.00000,0.00000,43,2,71,13,30,8,64,26,ok,2,0,0.001,5,-0.66,-1.25,9.57,35,0.026,8.25
5.4248,-0.13439,0.00698,0.31590,0.00000,0.00000,0.00000,44,2,70,12,32,8,65,27,ok,2,0,0.001,5,-0.66,-1.25,9.57,35,0.038,8.25
5.4450,-0.13439,0.00698,0.31590,0.00000,0.00000,0.00000,44,1,70,9,33,8,64,29,ok,2,0,0.001,5,-0.66,-1.25,9.57,35,0.051,8.25
5.4501,-0.13439,0.00698,0.31590,0.00000,0.00000,0.00000,45,2,69,6,35,8,64,31,ok,2,0,0.001,5,-0.66,-1.25,9.57,35,0.063,8.25
5.4624,-0.13439,0.00698,0.31590,0.00000,0.00000,0.00000,46,2,69,3,36,8,64,32,ok,2,0,0.001,5,-0.66,-1.25,9.57,35,0.076,8.25
5.4850,-0.13439,0.00698,0.31590,0.00000,0.00000,0.00000,46,2,67,1,37,8,64,33,ok,2,0,0.001,5,-0.66,-1.25,9.57,35,0.088,8.25
5.4883,-0.13439,0.00698,0.31590,0.00000,0.00000,0.00000,47,2,66,-1,39,7,63,35,ok,2,0,0.001,5,-0.66,-1.25,9.57,35,0.102,8.25
5.5011,-0.13439,0.00698,0.31590,0.00000,0.00000,0.00000,48,2,64,-3,40,7,63,36,ok,2,0,0.001,5,-0.66,-1.25,9.57,35,0.114,8.25
5.5210,-0.13439,0.00698,0.31590,0.00000,0.00000,0.00000,48,2,62,-4,41,6,64,36,ok,2,0,0.001,5,-0.66,-1.25,9.57,35,0.127,8.25
5.5259,-0.13439,0.00698,0.31590,0.00000,0.00000,0.00000,48,3,61,-5,42,6,65,35,ok,2,0,0.001,5,-0.66,-1.25,9.57,35,0.139,8.25
5.5386,-0.13439,0.00698,0.31590,0.00000,0.00000,0.00000,49,3,60,-8,43,6,67,33,ok,2,0,0.001,5,-0.66,-1.25,9.57,35,0.152,8.25
5.5610,-0.13439,0.00698,0.31590,0.00000,0.00000,0.00000,50,4,58,-8,44,6,69,28,ok,2,0,0.001,5,-0.66,-1.25,9.57,35,0.165,8.25
5.5643,-0.13439,0.00698,0.31590,0.00000,0.00000,0.00000,50,3,55,-9,45,6,70,24,ok,2,0,0.001,5,-0.66,-1.25,9.57,35,0.178,8.25
5.5770,-0.13439,0.00698,0.31590,0.00000,0.00000,0.00000,50,3,53,-9,46,6,72,21,ok,2,0,0.001,5,-0.66,-1.25,9.57,35,0.190,8.25
5.5970,-0.07156,0.07854,0.31590,0.00000,0.00000,0.00000,50,5,51,-10,47,6,72,21,ok,2,0,0.001,5,-0.74,-0.87,8.98,36,0.000,8.25
5.6019,-0.07156,0.07854,0.31590,0.00000,0.00000,0.00000,51,6,49,-10,48,7,72,19,ok,2,0,0.001,6,-0.74,-0.87,8.98,36,0.012,8.25
5.6146,-0.07156,0.07854,0.31590,0.00000,0.00000,0.00000,52,6,46,-10,49,7,72,15,ok,2,0,0.001,6,-0.74,-0.87,8.98,36,0.025,8.25
5.6370,-0.07156,0.07854,0.31590,0.00000,0.00000,0.00000,52,6,44,-10,49,7,71,13,ok,2,0,0.001,6,-0.74,-0.87,8.98,36,0.038,8.25
5.6402,-0.07156,0.07854,0.31590,0.00000,0.00000,0.00000,52,7,41,-10,50,7,71,11,ok,2,0,0.001,6,-0.74,-0.87,8.98,36,0.051,8.25
5.6529,-0.07156,0.07854,0.31590,0.00000,0.00000,0.00000,53,7,39,-11,51,7,70,7,ok,2,0,0.001,6,-0.74,-0.87,8.98,36,0.064,8.25
5.6730,-0.07156,0.07854,0.31590,0.00000,0.00000,0.00000,53,7,36,-10,52,6,70,6,ok,2,0,0.002,6,-0.74,-0.87,8.98,36,0.076,8.25
5.6779,-0.07156,0.07854,0.31590,0.00000,0.00000,0.00000,54,7,33,-9,52,7,69,4,ok,2,0,0.002,6,-0.74,-0.87,8.98,36,0.088,8.25
5.6904,-0.07156,0.07854,0.31590,0.00000,0.00000,0.00000,54,8,30,-8,53,7,68,2,ok,2,0,0.002,6,-0.74,-0.87,8.98,36,0.101,8.25
5.7130,-0.07156,0.07854,0.31590,0.00000,0.00000,0.00000,54,8,26,-6,54,8,66,2,ok,2,0,0.002,6,-0.74,-0.87,8.98,36,0.114,8.25
5.7162,-0.07156,0.07854,0.31590,0.00000,0.00000,0.00000,54,9,24,-4,55,8,65,0,ok,2,0,0.002,6,-0.74,-0.87,8.98,36,0.127,8.25
5.7289,-0.07156,0.07854,0.31590,0.00000,0.00000,0.00000,55,10,20,-2,56,8,64,-2,ok,2,0,0.002,6,-0.74,-0.87,8.98,36,0.140,8.25
5.7490,-0.07156,0.07854,0.31590,0.00000,0.00000,0.00000,55,9,18,-1,58,6,62,-3,ok,2,0,0.002,6,-0.74,-0.87,8.98,36,0.152,8.25
5.7539,-0.07156,0.07854,0.31590,0.00000,0.00000,0.00000,56,9,17,0,58,7,60,-4,ok,2,0,0.002,6,-0.74,-0.87,8.98,36,0.164,8.25
5.7664,-0.07156,0.07854,0.31590,0.00000,0.00000,0.00000,56,10,15,3,59,8,58,-4,ok,2,0,0.002,6,-0.74,-0.87,8.98,36,0.177,8.25
5.7890,-0.07156,0.07854,0.31590,0.00000,0.00000,0.00000,56,10,14,6,59,8,55,-5,ok,2,0,0.002,6,-0.74,-0.87,8.98,36,0.189,8.25
5.7925,-0.02269,0.04189,0.27402,0.00000,0.00000,0.00000,56,11,12,9,60,9,54,-6,ok,2,0,0.002,6,1.04,0.13,10.09,37,0.000,8.25
5.8049,-0.02269,0.04189,0.27402,0.00000,0.00000,0.00000,56,11,12,11,61,9,50,-5,ok,2,0,0.002,6,1.04,0.13,10.09,37,0.013,8.25
5.8250,-0.02269,0.04189,0.27402,0.00000,0.00000,0.00000,56,12,14,12,61,10,48,-5,ok,2,0,0.002,6,1.04,0.13,10.09,37,0.025,8.25
5.8299,-0.02269,0.04189,0.27402,0.00000,0.00000,0.00000,56,13,15,11,61,11,46,-5,ok,2,0,0.002,6,1.04,0.13,10.09,37,0.038,8.25
5.8424,-0.02269,0.04189,0.27402,0.00000,0.00000,0.00000,56,13,16,10,62,11,42,-4,ok,2,0,0.002,6,1.04,0.13,10.09,37,0.050,8.25
5.8650,-0.02269,0.04189,0.27402,0.00000,0.00000,0.00000,56,15,18,9,62,12,41,-4,ok,2,0,0.002,6,1.04,0.13,10.09,37,0.063,8.25
5.8684,-0.02269,0.04189,0.27402,0.00000,0.00000,0.00000,56,15,19,8,62,12,37,-3,ok,2,0,0.002,6,1.04,0.13,10.09,37,0.076,8.25
5.8810,-0.02269,0.04189,0.27402,0.00000,0.00000,0.00000,56,16,21,7,62,13,35,-3,ok,2,0,0.002,6,1.04,0.13,10.09,37,0.089,8.25
5.9010,-0.02269,0.04189,0.27402,0.00000,0.00000,0.00000,56,17,21,7,62,14,31,-1,ok,2,0,0.002,6,1.04,0.13,10.09,37,0.101,8.25
5.9058,-0.02269,0.04189,0.27402,0.00000,0.00000,0.00000,57,19,23,6,63,14,30,0,ok,2,0,0.002,6,1.04,0.13,10.09,37,0.114,8.25
5.9184,-0.02269,0.04189,0.27402,0.00000,0.00000,0.00000,57,20,24,5,63,15,27,2,ok,2,0,0.002,6,1.04,0.13,10.09,37,0.126,8.25
5.9410,-0.02269,0.04189,0.27402,0.00000,0.00000,0.00000,58,21,24,4,63,16,25,5,ok,2,0,0.002,6,1.04,0.13,10.09,37,0.139,8.25
5.9443,-0.02269,0.04189,0.27402,0.00000,0.00000,0.00000,58,22,25,4,64,17,24,7,ok,2,0,0.002,6,1.04,0.13,10.09,37,0.152,8.25
5.9569,-0.02269,0.04189,0.27402,0.00000,0.00000,0.00000,58,23,26,3,64,17,23,11,ok,2,0,0.002,6,1.04,0.13,10.09,37,0.165,8.25
5.9770,-0.02269,0.04189,0.27402,0.00000,0.00000,0.00000,57,26,27,3,64,18,22,13,ok,2,0,0.002,6,1.04,0.13,10.09,37,0.177,8.25
5.9820,-0.02269,0.04189,0.27402,0.00000,0.00000,0.00000,57,26,27,2,64,20,25,12,ok,2,0,0.002,6,1.04,0.13,10.09,37,0.190,8.25
5.9947,-0.18326,0.09076,0.29671,0.00000,0.00000,0.00000,58,25,29,2,64,21,25,12,ok,2,0,0.002,6,1.37,-2.98,9.64,38,0.000,8.25
6.0170,-0.18326,0.09076,0.29671,0.00000,0.00000,0.00000,58,21,30,3,65,21,26,10,ok,2,0,0.002,6,1.37,-2.98,9.64,38,0.013,8.25
6.0202,-0.18326,0.09076,0.29671,0.00000,0.00000,0.00000,60,17,31,2,64,22,27,10,ok,2,0,0.002,6,1.37,-2.98,9.64,38,0.026,8.25
6.0330,-0.18326,0.09076,0.29671,0.00000,0.00000,0.00000,60,12,32,3,64,24,29,11,ok,2,0,0.002,6,1.37,-2.98,9.64,38,0.038,8.25
6.0530,-0.18326,0.09076,0.29671,0.00000,0.00000,0.00000,60,10,33,3,64,25,30,10,ok,2,0,0.002,6,1.37,-2.98,9.64,38,0.051,8.25
6.0578,-0.18326,0.09076,0.29671,0.00000,0.00000,0.00000,60,9,35,3,63,27,31,9,ok,2,0,0.002,6,1.37,-2.98,9.64,38,0.063,8.25
6.0705,-0.18326,0.09076,0.29671,0.00000,0.00000,0.00000,60,6,36,3,64,28,33,10,ok,2,0,0.002,6,1.37,-2.98,9.64,38,0.076,8.25
6.0930,-0.18326,0.09076,0.29671,0.00000,0.00000,0.00000,60,3,38,4,64,30,33,10,ok,2,0,0.002,6,1.37,-2.98,9.64,38,0.089,8.25
6.0963,-0.18326,0.09076,0.29671,0.00000,0.00000,0.00000,60,0,39,4,64,32,35,9,ok,2,0,0.002,6,1.37,-2.98,9.64,38,0.102,8.25
6.1088,-0.18326,0.09076,0.29671,0.00000,0.00000,0.00000,59,-2,41,3,64,33,36,9,ok,2,0,0.002,6,1.37,-2.98,9.64,38,0.115,8.25
6.1290,-0.18326,0.09076,0.29671,0.00000,0.00000,0.00000,58,-4,42,3,64,34,37,9,ok,2,0,0.002,6,1.37,-2.98,9.64,38,0.127,8.25
6.1339,-0.18326,0.09076,0.29671,0.00000,0.00000,0.00000,58,-4,43,3,65,35,38,9,ok,2,0,0.002,6,1.37,-2.98,9.64,38,0.140,8.25
6.1466,-0.18326,0.09076,0.29671,0.00000,0.00000,0.00000,56,-5,43,3,66,34,40,8,ok,2,0,0.002,6,1.37,-2.98,9.64,38,0.152,8.25
6.1690,-0.18326,0.09076,0.29671,0.00000,0.00000,0.00000,56,-6,45,3,68,32,41,8,ok,2,0,0.002,6,1.37,-2.98,9.64,38,0.165,8.25
6.1722,-0.18326,0.09076,0.29671,0.00000,0.00000,0.00000,56,-8,46,3,70,28,42,8,ok,2,0,0.002,6,1.37,-2.98,9.64,38,0.178,8.25
6.1852,-0.18326,0.09076,0.29671,0.00000,0.00000,0.00000,54,-9,47,4,72,23,44,8,ok,2,0,0.002,6,1.37,-2.98,9.64,38,0.190,8.25
6.2050,0.00349,0.02269,0.31416,0.00000,0.00000,0.00000,54,-10,48,3,73,21,44,8,ok,2,0,0.002,6,1.37,0.55,9.97,39,0.000,8.25
6.2098,0.00349,0.02269,0.31416,0.00000,0.00000,0.00000,52,-10,49,3,75,21,45,8,ok,2,0,0.002,6,1.37,0.55,9.97,39,0.012,8.25
6.2224,0.00349,0.02269,0.31416,0.00000,0.00000,0.00000,51,-11,49,5,75,19,46,8,ok,2,0,0.002,6,1.37,0.55,9.97,39,0.025,8.25
6.2450,0.00349,0.02269,0.31416,0.00000,0.00000,0.00000,50,-10,50,5,75,15,47,8,ok,2,0,0.002,6,1.37,0.55,9.97,39,0.038,8.25
6.2484,0.00349,0.02269,0.31416,0.00000,0.00000,0.00000,48,-10,51,5,75,12,48,8,ok,2,0,0.002,6,1.37,0.55,9.97,39,0.051,8.25
6.2609,0.00349,0.02269,0.31416,0.00000,0.00000,0.00000,47,-9,53,5,74,10,49,8,ok,2,0,0.002,6,1.37,0.55,9.97,39,0.064,8.25
6.2810,0.00349,0.02269,0.31416,0.00000,0.00000,0.00000,46,-9,53,6,73,6,49,9,ok,2,0,0.002,6,1.37,0.55,9.97,39,0.076,8.25
6.2859,0.00349,0.02269,0.31416,0.00000,0.00000,0.00000,44,-9,55,6,72,5,49,8,ok,2,0,0.002,6,1.37,0.55,9.97,39,0.089,8.25
6.2985,0.00349,0.02269,0.31416,0.00000,0.00000,0.00000,43,-8,56,6,71,3,51,9,ok,2,0,0.002,6,1.37,0.55,9.97,39,0.101,8.25
6.3210,0.00349,0.02269,0.31416,0.00000,0.00000,0.00000,42,-7,57,6,69,1,51,7,ok,2,0,0.002,6,1.37,0.55,9.97,39,0.114,8.25
6.3243,0.00349,0.02269,0.31416,0.00000,0.00000,0.00000,40,-6,57,7,66,1,52,8,ok,2,0,0.002,6,1.37,0.55,9.97,39,0.127,8.25
6.3368,0.00349,0.02269,0.31416,0.00000,0.00000,0.00000,38,-5,57,7,65,-1,52,8,ok,2,0,0.002,6,1.37,0.55,9.97,39,0.140,8.25
6.3570,0.00349,0.02269,0.31416,0.00000,0.00000,0.00000,37,-4,58,8,64,-3,54,9,ok,2,0,0.002,6,1.37,0.55,9.97,39,0.152,8.25
6.3619,0.00349,0.02269,0.31416,0.00000,0.00000,0.00000,35,-2,59,9,62,-4,55,9,ok,2,0,0.002,6,1.37,0.55,9.97,39,0.164,8.25
6.3744,0.00349,0.02269,0.31416,0.00000,0.00000,0.00000,34,-2,60,11,61,-5,54,8,ok,2,0,0.002,6,1.37,0.55,9.97,39,0.177,8.25
6.3970,0.00349,0.02269,0.31416,0.00000,0.00000,0.00000,34,-1,60,10,59,-6,56,6,ok,2,0,0.002,6,1.37,0.55,9.97,39,0.190,8.25
6.4005,0.07854,0.03142,0.31940,0.00000,0.00000,0.00000,33,2,61,11,56,-7,57,8,ok,2,0,0.002,6,0.59,-0.07,10.44,40,0.000,8.25
6.4129,0.07854,0.03142,0.31940,0.00000,0.00000,0.00000,32,5,61,11,54,-7,57,8,ok,2,0,0.002,6,0.59,-0.07,10.44,40,0.013,8.25
6.4330,0.07854,0.03142,0.31940,0.00000,0.00000,0.00000,32,8,61,12,51,-6,58,9,ok,2,0,0.002,6,0.59,-0.07,10.44,40,0.025,8.25
6.4379,0.07854,0.03142,0.31940,0.00000,0.00000,0.00000,31,11,61,12,48,-6,58,9,ok,2,0,0.002,6,0.59,-0.07,10.44,40,0.038,8.25
6.4505,0.07854,0.03142,0.31940,0.00000,0.00000,0.00000,32,11,61,13,46,-6,59,10,ok,2,0,0.002,6,0.59,-0.07,10.44,40,0.050,8.25
6.4730,0.07854,0.03142,0.31940,0.00000,0.00000,0.00000,32,11,61,13,43,-5,59,10,ok,2,0,0.002,6,0.59,-0.07,10.44,40,0.063,8.25
6.4763,0.07854,0.03142,0.31940,0.00000,0.00000,0.00000,33,10,62,13,41,-5,60,11,ok,2,0,0.002,6,0.59,-0.07,10.44,40,0.076,8.25
6.4889,0.07854,0.03142,0.31940,0.00000,0.00000,0.00000,34,9,61,14,38,-4,60,12,ok,2,0,0.002,6,0.59,-0.07,10.44,40,0.089,8.25
6.5090,0.07854,0.03142,0.31940,0.00000,0.00000,0.00000,34,9,62,14,35,-4,61,13,ok,2,0,0.002,6,0.59,-0.07,10.44,40,0.101,8.25
6.5139,0.07854,0.03142,0.31940,0.00000,0.00000,0.00000,35,8,63,15,32,-2,61,13,ok,2,0,0.002,6,0.59,-0.07,10.44,40,0.114,8.25
6.5266,0.07854,0.03142,0.31940,0.00000,0.00000,0.00000,36,7,63,16,30,0,62,14,ok,2,0,0.002,6,0.59,-0.07,10.44,40,0.126,8.25
6.5490,0.07854,0.03142,0.31940,0.00000,0.00000,0.00000,36,6,64,18,28,1,62,15,ok,2,0,0.002,6,0.59,-0.07,10.44,40,0.139,8.25
6.5522,0.07854,0.03142,0.31940,0.00000,0.00000,0.00000,37,5,64,19,26,5,63,15,ok,2,0,0.002,6,0.59,-0.07,10.44,40,0.152,8.25
6.5649,0.07854,0.03142,0.31940,0.00000,0.00000,0.00000,37,4,64,20,25,8,63,16,ok,2,0,0.002,6,0.59,-0.07,10.44,40,0.165,8.25
6.5850,0.07854,0.03142,0.31940,0.00000,0.00000,0.00000,38,4,64,22,23,11,63,18,ok,2,0,0.002,6,0.59,-0.07,10.44,40,0.177,8.25
6.5902,0.07854,0.03142,0.31940,0.00000,0.00000,0.00000,38,3,64,23,22,14,64,18,ok,2,0,0.002,6,0.59,-0.07,10.44,40,0.190,8.25
6.6027,0.00524,0.06807,0.24958,0.00000,0.00000,0.00000,39,3,63,26,24,13,64,19,ok,2,0,0.002,6,0.49,-0.00,9.95,41,0.000,8.25
6.6250,0.00524,0.06807,0.24958,0.00000,0.00000,0.00000,39,2,63,27,24,13,64,19,ok,2,0,0.002,7,0.49,-0.00,9.95,41,0.013,8.25
6.6283,0.00524,0.06807,0.24958,0.00000,0.00000,0.00000,40,2,64,26,25,11,64,21,ok,2,0,0.002,7,0.49,-0.00,9.95,41,0.026,8.25
6.6408,0.00524,0.06807,0.24958,0.00000,0.00000,0.00000,40,1,67,23,26,10,65,21,ok,2,0,0.002,7,0.49,-0.00,9.95,41,0.038,8.25
6.6610,0.00524,0.06807,0.24958,0.00000,0.00000,0.00000,41,0,69,19,27,10,65,22,ok,2,0,0.002,7,0.49,-0.00,9.95,41,0.051,8.25
6.6660,0.00524,0.06807,0.24958,0.00000,0.00000,0.00000,42,0,70,15,29,10,64,24,ok,2,0,0.002,7,0.49,-0.00,9.95,41,0.063,8.25
6.6785,0.00524,0.06807,0.24958,0.00000,0.00000,0.00000,42,0,70,13,30,9,64,26,ok,2,0,0.002,7,0.49,-0.00,9.95,41,0.076,8.25
6.7011,0.00524,0.06807,0.24958,0.00000,0.00000,0.00000,44,0,70,13,33,9,65,26,ok,2,0,0.002,7,0.49,-0.00,9.95,41,0.088,8.25
6.7044,0.00524,0.06807,0.24958,0.00000,0.00000,0.00000,44,0,70,9,33,9,64,29,ok,2,0,0.002,7,0.49,-0.00,9.95,41,0.102,8.25
6.7171,0.00524,0.06807,0.24958,0.00000,0.00000,0.00000,44,1,69,6,35,9,64,30,ok,2,0,0.002,7,0.49,-0.00,9.95,41,0.115,8.25
6.7370,0.00524,0.06807,0.24958,0.00000,0.00000,0.00000,46,1,68,3,37,8,64,31,ok,2,0,0.002,7,0.49,-0.00,9.95,41,0.127,8.25
6.7420,0.00524,0.06807,0.24958,0.00000,0.00000,0.00000,46,2,67,1,38,9,64,33,ok,2,0,0.002,7,0.49,-0.00,9.95,41,0.140,8.25
6.7547,0.00524,0.06807,0.24958,0.00000,0.00000,0.00000,46,1,66,-2,39,8,64,34,ok,2,0,0.002,7,0.49,-0.00,9.95,41,0.152,8.25
6.7770,0.00524,0.06807,0.24958,0.00000,0.00000,0.00000,48,2,64,-3,40,8,63,36,ok,2,0,0.002,7,0.49,-0.00,9.95,41,0.165,8.25
6.7802,0.00524,0.06807,0.24958,0.00000,0.00000,0.00000,48,2,62,-4,41,7,64,36,ok,2,0,0.002,7,0.49,-0.00,9.95,41,0.178,8.25
6.7932,-0.16232,0.03316,0.41539,0.00000,0.00000,0.00000,48,2,61,-5,42,7,66,35,ok,2,0,0.002,7,1.40,-1.55,11.68,42,0.000,8.25
6.8130,-0.16232,0.03316,0.41539,0.00000,0.00000,0.00000,48,2,60,-7,43,6,68,33,ok,2,0,0.002,7,1.40,-1.55,11.68,42,0.013,8.25
6.8178,-0.16232,0.03316,0.41539,0.00000,0.00000,0.00000,50,3,58,-8,44,6,70,27,ok,2,0,0.002,7,1.40,-1.55,11.68,42,0.025,8.25
6.8306,-0.16232,0.03316,0.41539,0.00000,0.00000,0.00000,50,2,55,-9,45,6,71,24,ok,2,0,0.002,7,1.40,-1.55,11.68,42,0.038,8.25
6.8530,-0.16232,0.03316,0.41539,0.00000,0.00000,0.00000,50,2,53,-9,45,6,73,21,ok,2,0,0.002,7,1.40,-1.55,11.68,42,0.050,8.25
6.8563,-0.16232,0.03316,0.41539,0.00000,0.00000,0.00000,50,4,51,-10,47,6,73,21,ok,2,0,0.002,7,1.40,-1.55,11.68,42,0.063,8.25
6.8689,-0.16232,0.03316,0.41539,0.00000,0.00000,0.00000,51,4,49,-9,48,7,73,19,ok,2,0,0.002,7,1.40,-1.55,11.68,42,0.076,8.25
6.8890,-0.16232,0.03316,0.41539,0.00000,0.00000,0.00000,52,4,46,-9,49,7,73,15,ok,2,0,0.002,7,1.40,-1.55,11.68,42,0.089,8.25
6.8939,-0.16232,0.03316,0.41539,0.00000,0.00000,0.00000,52,5,44,-9,49,7,72,13,ok,2,0,0.002,7,1.40,-1.55,11.68,42,0.101,8.25
6.9065,-0.16232,0.03316,0.41539,0.00000,0.00000,0.00000,52,6,41,-9,50,7,72,11,ok,2,0,0.002,7,1.40,-1.55,11.68,42,0.114,8.25
6.9290,-0.16232,0.03316,0.41539,0.00000,0.00000,0.00000,53,6,39,-10,51,7,71,8,ok,2,0,0.002,7,1.40,-1.55,11.68,42,0.126,8.25
6.9322,-0.16232,0.03316,0.41539,0.00000,0.00000,0.00000,54,7,36,-9,52,6,71,6,ok,2,0,0.002,7,1.40,-1.55,11.68,42,0.139,8.25
6.9448,-0.16232,0.03316,0.41539,0.00000,0.00000,0.00000,54,7,33,-9,52,7,70,4,ok,2,0,0.002,7,1.40,-1.55,11.68,42,0.152,8.25
6.9650,-0.16232,0.03316,0.41539,0.00000,0.00000,0.00000,54,8,30,-7,53,7,68,2,ok,2,0,0.002,7,1.40,-1.55,11.68,42,0.165,8.25
6.9698,-0.16232,0.03316,0.41539,0.00000,0.00000,0.00000,54,8,27,-6,54,8,66,2,ok,2,0,0.002,7,1.40,-1.55,11.68,42,0.177,8.25
6.9824,-0.16232,0.03316,0.41539,0.00000,0.00000,0.00000,54,9,24,-5,55,8,65,0,ok,2,0,0.002,7,1.40,-1.55,11.68,42,0.190,8.25
7.0050,-0.16232,0.03316,0.41539,0.00000,0.00000,0.00000,55,10,20,-2,56,8,64,-2,ok,2,0,0.002,7,1.40,-1.55,11.68,42,0.202,8.25
7.0086,-0.04887,0.03840,0.39619,0.00000,0.00000,0.00000,56,10,18,-1,58,6,62,-3,ok,2,0,0.002,7,0.79,-0.08,10.55,43,0.000,8.25
7.0208,-0.04887,0.03840,0.39619,0.00000,0.00000,0.00000,56,10,18,0,58,7,59,-4,ok,2,0,0.002,7,0.79,-0.08,10.55,43,0.013,8.25
7.0410,-0.04887,0.03840,0.39619,0.00000,0.00000,0.00000,56,11,16,3,59,8,57,-4,ok,2,0,0.002,7,0.79,-0.08,10.55,43,0.025,8.25
7.0458,-0.04887,0.03840,0.39619,0.00000,0.00000,0.00000,56,11,14,5,60,8,55,-5,ok,2,0,0.002,7,0.79,-0.08,10.55,43,0.038,8.25
7.0584,-0.04887,0.03840,0.39619,0.00000,0.00000,0.00000,56,13,13,9,60,9,53,-6,ok,2,0,0.002,7,0.79,-0.08,10.55,43,0.050,8.25
7.0810,-0.04887,0.03840,0.39619,0.00000,0.00000,0.00000,56,13,12,11,61,9,50,-5,ok,2,0,0.002,7,0.79,-0.08,10.55,43,0.063,8.25
7.0844,-0.04887,0.03840,0.39619,0.00000,0.00000,0.00000,56,14,14,11,61,9,47,-5,ok,2,0,0.002,7,0.79,-0.08,10.55,43,0.076,8.25
7.0968,-0.04887,0.03840,0.39619,0.00000,0.00000,0.00000,56,14,15,11,61,10,45,-5,ok,2,0,0.002,7,0.79,-0.08,10.55,43,0.089,8.25
7.1170,-0.04887,0.03840,0.39619,0.00000,0.00000,0.00000,56,14,16,9,61,10,42,-4,ok,2,0,0.002,7,0.79,-0.08,10.55,43,0.101,8.25
7.1218,-0.04887,0.03840,0.39619,0.00000,0.00000,0.00000,56,15,18,9,62,11,40,-4,ok,2,0,0.002,7,0.79,-0.08,10.55,43,0.114,8.25
7.1346,-0.04887,0.03840,0.39619,0.00000,0.00000,0.00000,56,16,19,8,61,12,37,-3,ok,2,0,0.002,7,0.79,-0.08,10.55,43,0.126,8.25
7.1570,-0.04887,0.03840,0.39619,0.00000,0.00000,0.00000,56,16,21,7,62,13,35,-3,ok,2,0,0.002,7,0.79,-0.08,10.55,43,0.139,8.25
7.1602,-0.04887,0.03840,0.39619,0.00000,0.00000,0.00000,56,17,21,7,62,14,31,-1,ok,2,0,0.002,7,0.79,-0.08,10.55,43,0.152,8.25
7.1729,-0.04887,0.03840,0.39619,0.00000,0.00000,0.00000,58,18,23,6,63,14,30,0,ok,2,0,0.002,7,0.79,-0.08,10.55,43,0.165,8.25
7.1930,-0.04887,0.03840,0.39619,0.00000,0.00000,0.00000,58,20,24,5,63,15,27,2,ok,2,0,0.002,7,0.79,-0.08,10.55,43,0.177,8.25
7.1979,-0.04887,0.03840,0.39619,0.00000,0.00000,0.00000,58,21,24,5,63,16,25,5,ok,2,0,0.002,7,0.79,-0.08,10.55,43,0.190,8.25
7.2107,-0.09948,0.10297,0.41713,0.00000,0.00000,0.00000,58,22,25,4,63,17,24,7,ok,2,0,0.002,7,1.79,-1.66,9.58,44,0.000,8.25
7.2330,-0.09948,0.10297,0.41713,0.00000,0.00000,0.00000,58,23,25,4,64,17,23,11,ok,2,0,0.002,7,1.79,-1.66,9.58,44,0.013,8.25
7.2363,-0.09948,0.10297,0.41713,0.00000,0.00000,0.00000,57,26,27,3,64,18,23,13,ok,2,0,0.002,7,1.79,-1.66,9.58,44,0.026,8.25
7.2489,-0.09948,0.10297,0.41713,0.00000,0.00000,0.00000,57,26,27,2,64,19,25,12,ok,2,0,0.002,7,1.79,-1.66,9.58,44,0.039,8.25
7.2690,-0.09948,0.10297,0.41713,0.00000,0.00000,0.00000,58,25,28,2,64,20,25,12,ok,2,0,0.002,7,1.79,-1.66,9.58,44,0.051,8.25
7.2740,-0.09948,0.10297,0.41713,0.00000,0.00000,0.00000,58,21,29,2,65,21,26,10,ok,2,0,0.002,7,1.79,-1.66,9.58,44,0.064,8.25
7.2867,-0.09948,0.10297,0.41713,0.00000,0.00000,0.00000,60,17,30,2,64,23,27,10,ok,2,0,0.002,7,1.79,-1.66,9.58,44,0.076,8.25
7.3090,-0.09948,0.10297,0.41713,0.00000,0.00000,0.00000,60,12,32,2,64,24,28,11,ok,2,0,0.002,7,1.79,-1.66,9.58,44,0.089,8.25
7.3122,-0.09948,0.10297,0.41713,0.00000,0.00000,0.00000,60,10,33,2,65,25,29,10,ok,2,0,0.002,7,1.79,-1.66,9.58,44,0.102,8.25
7.3250,-0.09948,0.10297,0.41713,0.00000,0.00000,0.00000,60,10,35,2,64,27,30,9,ok,2,0,0.002,7,1.79,-1.66,9.58,44,0.114,8.25
7.3450,-0.09948,0.10297,0.41713,0.00000,0.00000,0.00000,60,7,36,2,64,28,33,9,ok,2,0,0.002,7,1.79,-1.66,9.58,44,0.127,8.25
7.3498,-0.09948,0.10297,0.41713,0.00000,0.00000,0.00000,60,4,38,3,64,30,33,10,ok,2,0,0.002,7,1.79,-1.66,9.58,44,0.139,8.25
7.3626,-0.09948,0.10297,0.41713,0.00000,0.00000,0.00000,60,2,39,3,65,32,35,9,ok,2,0,0.002,7,1.79,-1.66,9.58,44,0.152,8.25
7.3850,-0.09948,0.10297,0.41713,0.00000,0.00000,0.00000,59,-1,41,3,64,33,36,9,ok,2,0,0.002,7,1.79,-1.66,9.58,44,0.164,8.25
7.3882,-0.09948,0.10297,0.41713,0.00000,0.00000,0.00000,58,-3,42,2,64,35,37,9,ok,2,0,0.002,7,1.79,-1.66,9.58,44,0.178,8.25
7.4009,-0.09948,0.10297,0.41713,0.00000,0.00000,0.00000,58,-4,43,3,65,35,38,8,ok,2,0,0.002,7,1.79,-1.66,9.58,44,0.191,8.25
7.4210,-0.09948,0.10297,0.41713,0.00000,0.00000,0.00000,56,-5,43,3,66,35,39,8,ok,2,0,0.002,7,1.79,-1.66,9.58,44,0.203,8.25
7.4261,-0.02269,-0.01396,0.44157,0.00000,0.00000,0.00000,56,-6,45,3,68,33,41,7,ok,2,0,0.002,7,1.59,1.06,8.53,45,0.000,8.25
7.4384,-0.02269,-0.01396,0.44157,0.00000,0.00000,0.00000,56,-9,46,2,70,28,42,7,ok,2,0,0.002,7,1.59,1.06,8.53,45,0.013,8.25
7.4610,-0.02269,-0.01396,0.44157,0.00000,0.00000,0.00000,54,-9,47,3,72,24,43,7,ok,2,0,0.002,7,1.59,1.06,8.53,45,0.025,8.25
7.4642,-0.02269,-0.01396,0.44157,0.00000,0.00000,0.00000,53,-10,49,3,73,22,44,7,ok,2,0,0.002,7,1.59,1.06,8.53,45,0.038,8.25
7.4768,-0.02269,-0.01396,0.44157,0.00000,0.00000,0.00000,52,-10,49,3,74,21,45,7,ok,2,0,0.002,7,1.59,1.06,8.53,45,0.051,8.25
7.4970,-0.02269,-0.01396,0.44157,0.00000,0.00000,0.00000,51,-11,49,5,74,18,46,7,ok,2,0,0.002,7,1.59,1.06,8.53,45,0.064,8.25
7.5020,-0.02269,-0.01396,0.44157,0.00000,0.00000,0.00000,50,-10,51,6,74,15,47,8,ok,2,0,0.002,7,1.59,1.06,8.53,45,0.076,8.25
7.5144,-0.02269,-0.01396,0.44157,0.00000,0.00000,0.00000,48,-10,52,5,73,12,48,8,ok,2,0,0.002,7,1.59,1.06,8.53,45,0.089,8.25
7.5370,-0.02269,-0.01396,0.44157,0.00000,0.00000,0.00000,48,-10,53,5,73,9,49,8,ok,2,0,0.002,7,1.59,1.06,8.53,45,0.101,8.25
7.5403,-0.02269,-0.01396,0.44157,0.00000,0.00000,0.00000,46,-10,53,6,72,6,49,9,ok,2,0,0.002,7,1.59,1.06,8.53,45,0.114,8.25
7.5530,-0.02269,-0.01396,0.44157,0.00000,0.00000,0.00000,44,-10,56,6,72,5,50,8,ok,2,0,0.002,7,1.59,1.06,8.53,45,0.127,8.25
7.5730,-0.02269,-0.01396,0.44157,0.00000,0.00000,0.00000,44,-9,56,7,71,3,51,9,ok,2,0,0.002,7,1.59,1.06,8.53,45,0.140,8.25
7.5778,-0.02269,-0.01396,0.44157,0.00000,0.00000,0.00000,42,-8,57,7,69,1,52,8,ok,2,0,0.002,7,1.59,1.06,8.53,45,0.152,8.25
7.5906,-0.02269,-0.01396,0.44157,0.00000,0.00000,0.00000,40,-7,57,8,66,1,52,9,ok,2,0,0.002,7,1.59,1.06,8.53,45,0.164,8.25
7.6130,-0.02269,-0.01396,0.44157,0.00000,0.00000,0.00000,38,-6,58,8,65,-1,52,9,ok,2,0,0.002,7,1.59,1.06,8.53,45,0.177,8.25
7.6165,0.02793,-0.03316,0.45902,0.00000,0.00000,0.00000,37,-4,58,8,64,-3,54,9,ok,2,0,0.002,7,-0.00,0.41,9.87,46,0.000,8.25
7.6289,0.02793,-0.03316,0.45902,0.00000,0.00000,0.00000,35,-1,59,9,62,-4,54,9,ok,2,0,0.002,8,-0.00,0.41,9.87,46,0.013,8.25
7.6490,0.02793,-0.03316,0.45902,0.00000,0.00000,0.00000,35,-1,60,10,61,-5,54,8,ok,2,0,0.002,8,-0.00,0.41,9.87,46,0.025,8.25
7.6539,0.02793,-0.03316,0.45902,0.00000,0.00000,0.00000,34,0,61,10,59,-5,56,6,ok,2,0,0.002,8,-0.00,0.41,9.87,46,0.038,8.25
7.6665,0.02793,-0.03316,0.45902,0.00000,0.00000,0.00000,34,2,61,11,56,-6,57,8,ok,2,0,0.002,8,-0.00,0.41,9.87,46,0.050,8.25
7.6890,0.02793,-0.03316,0.45902,0.00000,0.00000,0.00000,32,6,61,10,54,-7,57,8,ok,2,0,0.002,8,-0.00,0.41,9.87,46,0.063,8.25
7.6923,0.02793,-0.03316,0.45902,0.00000,0.00000,0.00000,32,9,61,12,51,-6,58,9,ok,2,0,0.002,8,-0.00,0.41,9.87,46,0.076,8.25
7.7049,0.02793,-0.03316,0.45902,0.00000,0.00000,0.00000,32,11,62,11,48,-6,58,9,ok,2,0,0.002,8,-0.00,0.41,9.87,46,0.089,8.25
7.7250,0.02793,-0.03316,0.45902,0.00000,0.00000,0.00000,32,12,62,12,46,-6,59,10,ok,2,0,0.002,8,-0.00,0.41,9.87,46,0.101,8.25
7.7298,0.02793,-0.03316,0.45902,0.00000,0.00000,0.00000,32,11,62,13,43,-5,59,10,ok,2,0,0.002,8,-0.00,0.41,9.87,46,0.114,8.25
7.7424,0.02793,-0.03316,0.45902,0.00000,0.00000,0.00000,33,10,62,13,40,-5,60,11,ok,2,0,0.002,8,-0.00,0.41,9.87,46,0.126,8.25
7.7650,0.02793,-0.03316,0.45902,0.00000,0.00000,0.00000,34,9,62,14,37,-4,60,12,ok,2,0,0.002,8,-0.00,0.41,9.87,46,0.139,8.25
7.7682,0.02793,-0.03316,0.45902,0.00000,0.00000,0.00000,34,9,63,15,35,-3,61,13,ok,2,0,0.002,8,-0.00,0.41,9.87,46,0.152,8.25
7.7811,0.02793,-0.03316,0.45902,0.00000,0.00000,0.00000,36,8,63,16,31,-2,61,13,ok,2,0,0.002,8,-0.00,0.41,9.87,46,0.165,8.25
7.8010,0.02793,-0.03316,0.45902,0.00000,0.00000,0.00000,36,7,63,17,30,0,62,14,ok,2,0,0.002,8,-0.00,0.41,9.87,46,0.177,8.25
7.8058,0.02793,-0.03316,0.45902,0.00000,0.00000,0.00000,36,6,64,18,28,1,62,15,ok,2,0,0.002,8,-0.00,0.41,9.87,46,0.190,8.25
7.8186,0.02793,-0.03316,0.45902,0.00000,0.00000,0.00000,37,5,64,19,25,5,63,15,ok,2,0,0.002,8,-0.00,0.41,9.87,46,0.202,8.25
7.8410,-0.10821,-0.00349,0.44855,0.00000,0.00000,0.00000,38,5,64,20,24,8,63,16,ok,2,0,0.002,8,1.72,-0.60,10.20,47,0.000,8.25
7.8442,-0.10821,-0.00349,0.44855,0.00000,0.00000,0.00000,38,4,64,22,23,10,63,18,ok,2,0,0.002,8,1.72,-0.60,10.20,47,0.013,8.25
7.8568,-0.10821,-0.00349,0.44855,0.00000,0.00000,0.00000,38,3,64,23,22,13,64,18,ok,2,0,0.002,8,1.72,-0.60,10.20,47,0.026,8.25
7.8770,-0.10821,-0.00349,0.44855,0.00000,0.00000,0.00000,40,3,63,26,23,13,64,19,ok,2,0,0.002,8,1.72,-0.60,10.20,47,0.039,8.25
7.8818,-0.10821,-0.00349,0.44855,0.00000,0.00000,0.00000,40,2,63,28,24,13,64,20,ok,2,0,0.002,8,1.72,-0.60,10.20,47,0.051,8.25
7.8944,-0.10821,-0.00349,0.44855,0.00000,0.00000,0.00000,40,1,64,26,25,11,64,21,ok,2,0,0.002,8,1.72,-0.60,10.20,47,0.063,8.25
7.9170,-0.10821,-0.00349,0.44855,0.00000,0.00000,0.00000,40,1,67,23,26,10,65,22,ok,2,0,0.002,8,1.72,-0.60,10.20,47,0.076,8.25
7.9203,-0.10821,-0.00349,0.44855,0.00000,0.00000,0.00000,41,0,69,20,27,10,65,23,ok,2,0,0.002,8,1.72,-0.60,10.20,47,0.089,8.25
7.9328,-0.10821,-0.00349,0.44855,0.00000,0.00000,0.00000,42,0,70,16,29,10,64,24,ok,2,0,0.002,8,1.72,-0.60,10.20,47,0.102,8.25
7.9530,-0.10821,-0.00349,0.44855,0.00000,0.00000,0.00000,42,0,71,13,30,9,64,26,ok,2,0,0.002,8,1.72,-0.60,10.20,47,0.115,8.25
7.9580,-0.10821,-0.00349,0.44855,0.00000,0.00000,0.00000,44,1,71,13,33,9,65,27,ok,2,0,0.002,8,1.72,-0.60,10.20,47,0.127,8.25
7.9704,-0.10821,-0.00349,0.44855,0.00000,0.00000,0.00000,44,1,71,9,33,9,64,29,ok,2,0,0.002,8,1.72,-0.60,10.20,47,0.140,8.25
7.9930,-0.10821,-0.00349,0.44855,0.00000,0.00000,0.00000,45,3,69,6,35,8,64,30,ok,2,0,0.002,8,1.72,-0.60,10.20,47,0.152,8.25
7.9964,-0.10821,-0.00349,0.44855,0.00000,0.00000,0.00000,46,3,69,3,36,8,64,32,ok,2,0,0.002,8,1.72,-0.60,10.20,47,0.165,8.25
8.0088,-0.10821,-0.00349,0.44855,0.00000,0.00000,0.00000,46,3,67,0,37,8,64,33,ok,2,0,0.002,8,1.72,-0.60,10.20,47,0.178,8.25
8.0290,-0.10821,-0.00349,0.44855,0.00000,0.00000,0.00000,47,2,66,-2,39,7,63,35,ok,2,0,0.002,8,1.72,-0.60,10.20,47,0.191,8.25
8.0341,-0.15882,0.02618,0.50440,0.00000,0.00000,0.00000,48,3,64,-3,39,7,63,36,ok,2,0,0.002,8,0.86,-1.87,10.74,48,0.000,8.25
8.0466,-0.15882,0.02618,0.50440,0.00000,0.00000,0.00000,48,3,62,-4,40,6,64,36,ok,2,0,0.002,8,0.86,-1.87,10.74,48,0.013,8.25
8.0690,-0.15882,0.02618,0.50440,0.00000,0.00000,0.00000,48,3,61,-5,42,6,66,35,ok,2,0,0.002,8,0.86,-1.87,10.74,48,0.025,8.25
8.0723,-0.15882,0.02618,0.50440,0.00000,0.00000,0.00000,49,3,60,-8,43,6,67,33,ok,2,0,0.002,8,0.86,-1.87,10.74,48,0.038,8.25
8.0849,-0.15882,0.02618,0.50440,0.00000,0.00000,0.00000,50,3,58,-8,44,6,69,28,ok,2,0,0.002,8,0.86,-1.87,10.74,48,0.051,8.25
8.1050,-0.15882,0.02618,0.50440,0.00000,0.00000,0.00000,50,3,55,-9,45,6,71,24,ok,2,0,0.002,8,0.86,-1.87,10.74,48,0.064,8.25
8.1099,-0.15882,0.02618,0.50440,0.00000,0.00000,0.00000,50,3,53,-9,46,6,72,21,ok,2,0,0.002,8,0.86,-1.87,10.74,48,0.076,8.25
8.1224,-0.15882,0.02618,0.50440,0.00000,0.00000,0.00000,50,5,51,-10,47,7,72,21,ok,2,0,0.002,8,0.86,-1.87,10.74,48,0.089,8.25
8.1450,-0.15882,0.02618,0.50440,0.00000,0.00000,0.00000,51,6,48,-10,48,7,72,19,ok,2,0,0.002,8,0.86,-1.87,10.74,48,0.101,8.25
8.1483,-0.15882,0.02618,0.50440,0.00000,0.00000,0.00000,52,5,46,-10,49,7,72,15,ok,2,0,0.002,8,0.86,-1.87,10.74,48,0.114,8.25
8.1610,-0.15882,0.02618,0.50440,0.00000,0.00000,0.00000,52,6,44,-9,49,7,72,13,ok,2,0,0.002,8,0.86,-1.87,10.74,48,0.127,8.25
8.1810,-0.15882,0.02618,0.50440,0.00000,0.00000,0.00000,52,7,41,-10,50,7,71,11,ok,2,0,0.002,8,0.86,-1.87,10.74,48,0.140,8.25
8.1858,-0.15882,0.02618,0.50440,0.00000,0.00000,0.00000,53,7,39,-10,51,7,71,7,ok,2,0,0.002,8,0.86,-1.87,10.74,48,0.152,8.25
8.1984,-0.15882,0.02618,0.50440,0.00000,0.00000,0.00000,54,7,36,-9,52,6,71,6,ok,2,0,0.002,8,0.86,-1.87,10.74,48,0.165,8.25
8.2210,-0.15882,0.02618,0.50440,0.00000,0.00000,0.00000,54,7,33,-8,52,7,70,4,ok,2,0,0.002,8,0.86,-1.87,10.74,48,0.177,8.25
8.2244,-0.15882,0.02618,0.50440,0.00000,0.00000,0.00000,54,8,30,-7,53,7,68,2,ok,2,0,0.002,8,0.86,-1.87,10.74,48,0.190,8.25
8.2372,-0.01920,-0.01047,0.48695,0.00000,0.00000,0.00000,54,8,27,-6,54,8,66,2,ok,2,0,0.002,8,1.26,0.03,10.75,49,0.000,8.25
8.2570,-0.01920,-0.01047,0.48695,0.00000,0.00000,0.00000,54,9,24,-5,55,8,64,0,ok,2,0,0.002,8,1.26,0.03,10.75,49,0.012,8.25
8.2618,-0.01920,-0.01047,0.48695,0.00000,0.00000,0.00000,55,10,20,-3,56,8,63,-2,ok,2,0,0.002,8,1.26,0.03,10.75,49,0.025,8.25
8.2744,-0.01920,-0.01047,0.48695,0.00000,0.00000,0.00000,55,10,19,-1,58,6,61,-3,ok,2,0,0.002,8,1.26,0.03,10.75,49,0.038,8.25
8.2970,-0.01920,-0.01047,0.48695,0.00000,0.00000,0.00000,56,10,18,0,59,7,59,-4,ok,2,0,0.002,8,1.26,0.03,10.75,49,0.050,8.25
8.3002,-0.01920,-0.01047,0.48695,0.00000,0.00000,0.00000,56,11,16,2,59,8,57,-4,ok,2,0,0.002,8,1.26,0.03,10.75,49,0.063,8.25
8.3129,-0.01920,-0.01047,0.48695,0.00000,0.00000,0.00000,56,12,15,5,59,8,55,-5,ok,2,0,0.002,8,1.26,0.03,10.75,49,0.076,8.25
8.3331,-0.01920,-0.01047,0.48695,0.00000,0.00000,0.00000,56,13,13,8,60,9,53,-6,ok,2,0,0.002,8,1.26,0.03,10.75,49,0.089,8.25
8.3381,-0.01920,-0.01047,0.48695,0.00000,0.00000,0.00000,56,13,13,11,60,9,50,-5,ok,2,0,0.002,8,1.26,0.03,10.75,49,0.101,8.25
8.3504,-0.01920,-0.01047,0.48695,0.00000,0.00000,0.00000,56,14,14,11,60,9,47,-5,ok,2,0,0.002,8,1.26,0.03,10.75,49,0.113,8.25
8.3730,-0.01920,-0.01047,0.48695,0.00000,0.00000,0.00000,56,14,15,11,61,10,45,-5,ok,2,0,0.002,8,1.26,0.03,10.75,49,0.126,8.25
8.3762,-0.01920,-0.01047,0.48695,0.00000,0.00000,0.00000,56,14,17,10,61,11,42,-4,ok,2,0,0.002,8,1.26,0.03,10.75,49,0.139,8.25
8.3889,-0.01920,-0.01047,0.48695,0.00000,0.00000,0.00000,56,15,19,9,61,12,40,-4,ok,2,0,0.002,8,1.26,0.03,10.75,49,0.152,8.25
8.4090,-0.01920,-0.01047,0.48695,0.00000,0.00000,0.00000,56,15,19,9,61,12,37,-3,ok,2,0,0.002,8,1.26,0.03,10.75,49,0.165,8.25
8.4139,-0.01920,-0.01047,0.48695,0.00000,0.00000,0.00000,56,16,21,8,62,13,35,-3,ok,2,0,0.002,8,1.26,0.03,10.75,49,0.177,8.25
8.4266,-0.01920,-0.01047,0.48695,0.00000,0.00000,0.00000,56,17,22,7,62,14,31,-1,ok,2,0,0.002,8,1.26,0.03,10.75,49,0.190,8.25
8.4490,-0.00349,0.05585,0.49218,0.00000,0.00000,0.00000,58,19,23,6,63,14,29,0,ok,2,0,0.002,8,0.00,-0.59,8.51,50,0.000,8.25
8.4522,-0.00349,0.05585,0.49218,0.00000,0.00000,0.00000,58,20,24,5,63,15,27,2,ok,2,0,0.002,8,0.00,-0.59,8.51,50,0.013,8.25
8.4648,-0.00349,0.05585,0.49218,0.00000,0.00000,0.00000,58,21,24,5,63,16,25,5,ok,2,0,0.002,8,0.00,-0.59,8.51,50,0.026,8.25
8.4890,-0.00349,0.05585,0.49218,0.00000,0.00000,0.00000,58,22,25,4,63,17,24,7,ok,2,0,0.002,8,0.00,-0.59,8.51,50,0.039,8.25
8.4924,-0.00349,0.05585,0.49218,0.00000,0.00000,0.00000,58,23,26,3,64,17,22,11,ok,2,0,0.002,8,0.00,-0.59,8.51,50,0.053,8.25
8.5049,-0.00349,0.05585,0.49218,0.00000,0.00000,0.00000,57,26,27,3,64,18,22,13,ok,2,0,0.002,8,0.00,-0.59,8.51,50,0.066,8.25
8.5251,-0.00349,0.05585,0.49218,0.00000,0.00000,0.00000,57,27,27,2,64,19,24,12,ok,2,0,0.002,8,0.00,-0.59,8.51,50,0.079,8.25
8.5299,-0.00349,0.05585,0.49218,0.00000,0.00000,0.00000,58,25,29,2,64,21,24,12,ok,2,0,0.002,8,0.00,-0.59,8.51,50,0.091,8.25
8.5424,-0.00349,0.05585,0.49218,0.00000,0.00000,0.00000,58,21,30,2,65,22,25,10,ok,2,0,0.002,8,0.00,-0.59,8.51,50,0.103,8.25
8.5650,-0.00349,0.05585,0.49218,0.00000,0.00000,0.00000,60,18,31,1,64,23,27,10,ok,2,0,0.002,8,0.00,-0.59,8.51,50,0.116,8.25
8.5684,-0.00349,0.05585,0.49218,0.00000,0.00000,0.00000,60,13,32,2,64,25,28,10,ok,2,0,0.002,8,0.00,-0.59,8.51,50,0.129,8.25
8.5809,-0.00349,0.05585,0.49218,0.00000,0.00000,0.00000,60,11,33,2,65,25,29,10,ok,2,0,0.002,8,0.00,-0.59,8.51,50,0.142,8.25
8.6010,-0.00349,0.05585,0.49218,0.00000,0.00000,0.00000,60,11,35,2,64,28,30,9,ok,2,0,0.002,8,0.00,-0.59,8.51,50,0.155,8.25
8.6059,-0.00349,0.05585,0.49218,0.00000,0.00000,0.00000,60,7,36,2,64,29,32,9,ok,2,0,0.002,8,0.00,-0.59,8.51,50,0.167,8.25
8.6183,-0.00349,0.05585,0.49218,0.00000,0.00000,0.00000,60,5,38,3,64,30,33,9,ok,2,0,0.002,8,0.00,-0.59,8.51,50,0.180,8.25
8.6410,-0.00349,0.05585,0.49218,0.00000,0.00000,0.00000,60,2,40,3,64,32,35,9,ok,2,0,0.002,8,0.00,-0.59,8.51,50,0.192,8.25
8.6444,-0.06807,0.00873,0.53582,0.00000,0.00000,0.00000,59,-1,41,3,64,34,36,9,ok,2,0,0.002,9,-0.44,-0.38,9.72,51,0.000,8.25
8.6569,-0.06807,0.00873,0.53582,0.00000,0.00000,0.00000,58,-3,42,2,64,35,37,9,ok,2,0,0.002,9,-0.44,-0.38,9.72,51,0.013,8.25
8.6770,-0.06807,0.00873,0.53582,0.00000,0.00000,0.00000,58,-4,44,3,65,35,38,8,ok,2,0,0.002,9,-0.44,-0.38,9.72,51,0.025,8.25
8.6818,-0.06807,0.00873,0.53582,0.00000,0.00000,0.00000,56,-5,44,3,66,35,40,8,ok,2,0,0.002,9,-0.44,-0.38,9.72,51,0.038,8.25
8.6955,-0.06807,0.00873,0.53582,0.00000,0.00000,0.00000,56,-6,45,3,67,33,41,7,ok,2,0,0.002,9,-0.44,-0.38,9.72,51,0.050,8.25
8.7170,-0.06807,0.00873,0.53582,0.00000,0.00000,0.00000,56,-9,47,3,69,28,42,7,ok,2,0,0.002,9,-0.44,-0.38,9.72,51,0.063,8.25
8.7204,-0.06807,0.00873,0.53582,0.00000,0.00000,0.00000,54,-9,48,4,71,24,43,7,ok,2,0,0.002,9,-0.44,-0.38,9.72,51,0.076,8.25
8.7329,-0.06807,0.00873,0.53582,0.00000,0.00000,0.00000,54,-10,49,4,73,21,44,7,ok,2,0,0.002,9,-0.44,-0.38,9.72,51,0.089,8.25
8.7530,-0.06807,0.00873,0.53582,0.00000,0.00000,0.00000,52,-11,50,4,74,20,45,8,ok,2,0,0.002,9,-0.44,-0.38,9.72,51,0.101,8.25
8.7580,-0.06807,0.00873,0.53582,0.00000,0.00000,0.00000,51,-12,50,6,74,18,46,8,ok,2,0,0.002,9,-0.44,-0.38,9.72,51,0.114,8.25
8.7705,-0.06807,0.00873,0.53582,0.00000,0.00000,0.00000,50,-11,51,6,74,14,47,8,ok,2,0,0.002,9,-0.44,-0.38,9.72,51,0.126,8.25
8.7930,-0.06807,0.00873,0.53582,0.00000,0.00000,0.00000,48,-11,52,6,73,11,48,8,ok,2,0,0.002,9,-0.44,-0.38,9.72,51,0.139,8.25
8.7962,-0.06807,0.00873,0.53582,0.00000,0.00000,0.00000,48,-10,53,6,73,10,49,8,ok,2,0,0.002,9,-0.44,-0.38,9.72,51,0.152,8.25
8.8090,-0.06807,0.00873,0.53582,0.00000,0.00000,0.00000,46,-10,53,7,72,6,49,9,ok,2,0,0.002,9,-0.44,-0.38,9.72,51,0.165,8.25
8.8290,-0.06807,0.00873,0.53582,0.00000,0.00000,0.00000,44,-11,55,7,72,5,50,8,ok,2,0,0.002,9,-0.44,-0.38,9.72,51,0.177,8.25
8.8341,-0.06807,0.00873,0.53582,0.00000,0.00000,0.00000,44,-10,56,7,71,3,51,9,ok,2,0,0.002,9,-0.44,-0.38,9.72,51,0.190,8.25
8.8466,-0.01222,-0.00698,0.54978,0.00000,0.00000,0.00000,42,-8,57,7,69,1,52,8,ok,2,0,0.002,9,-0.77,0.42,9.88,52,0.000,8.25
8.8690,-0.01222,-0.00698,0.54978,0.00000,0.00000,0.00000,40,-7,57,8,66,1,52,9,ok,2,0,0.002,9,-0.77,0.42,9.88,52,0.013,8.25
8.8721,-0.01222,-0.00698,0.54978,0.00000,0.00000,0.00000,38,-5,58,7,65,-1,52,9,ok,2,0,0.002,9,-0.77,0.42,9.88,52,0.026,8.25
8.8849,-0.01222,-0.00698,0.54978,0.00000,0.00000,0.00000,37,-4,58,8,64,-3,54,9,ok,2,0,0.002,9,-0.77,0.42,9.88,52,0.039,8.25
8.9050,-0.01222,-0.00698,0.54978,0.00000,0.00000,0.00000,35,-1,59,9,62,-4,55,9,ok,2,0,0.002,9,-0.77,0.42,9.88,52,0.051,8.25
8.9099,-0.01222,-0.00698,0.54978,0.00000,0.00000,0.00000,35,-1,60,10,61,-5,54,8,ok,2,0,0.002,9,-0.77,0.42,9.88,52,0.064,8.25
8.9225,-0.01222,-0.00698,0.54978,0.00000,0.00000,0.00000,34,0,61,10,59,-6,56,6,ok,2,0,0.002,9,-0.77,0.42,9.88,52,0.076,8.25
8.9451,-0.01222,-0.00698,0.54978,0.00000,0.00000,0.00000,34,3,61,11,56,-7,57,7,ok,2,0,0.002,9,-0.77,0.42,9.88,52,0.089,8.25
8.9483,-0.01222,-0.00698,0.54978,0.00000,0.00000,0.00000,32,6,61,10,54,-7,58,8,ok,2,0,0.002,9,-0.77,0.42,9.88,52,0.102,8.25
8.9610,-0.01222,-0.00698,0.54978,0.00000,0.00000,0.00000,32,9,61,12,51,-7,58,9,ok,2,0,0.002,9,-0.77,0.42,9.88,52,0.115,8.25
8.9810,-0.01222,-0.00698,0.54978,0.00000,0.00000,0.00000,32,11,61,11,48,-6,59,9,ok,2,0,0.002,9,-0.77,0.42,9.88,52,0.127,8.25
8.9861,-0.01222,-0.00698,0.54978,0.00000,0.00000,0.00000,32,11,62,12,46,-6,60,10,ok,2,0,0.002,9,-0.77,0.42,9.88,52,0.140,8.25
8.9984,-0.01222,-0.00698,0.54978,0.00000,0.00000,0.00000,32,11,61,13,43,-5,59,10,ok,2,0,0.002,9,-0.77,0.42,9.88,52,0.152,8.25
9.0210,-0.01222,-0.00698,0.54978,0.00000,0.00000,0.00000,33,10,62,14,40,-5,60,11,ok,2,0,0.002,9,-0.77,0.42,9.88,52,0.165,8.25
9.0242,-0.01222,-0.00698,0.54978,0.00000,0.00000,0.00000,34,9,62,14,37,-4,60,12,ok,2,0,0.002,9,-0.77,0.42,9.88,52,0.178,8.25
9.0372,-0.01222,-0.00698,0.54978,0.00000,0.00000,0.00000,34,8,62,15,34,-3,61,13,ok,2,0,0.002,9,-0.77,0.42,9.88,52,0.191,8.25
9.0570,-0.08552,0.00524,0.56549,0.00000,0.00000,0.00000,36,7,63,16,32,-2,61,13,ok,2,0,0.002,9,-0.09,-0.79,8.52,53,0.000,8.25
9.0619,-0.08552,0.00524,0.56549,0.00000,0.00000,0.00000,36,7,63,17,29,-1,62,14,ok,2,0,0.002,9,-0.09,-0.79,8.52,53,0.012,8.25
9.0743,-0.08552,0.00524,0.56549,0.00000,0.00000,0.00000,36,6,64,18,28,1,62,15,ok,2,0,0.002,9,-0.09,-0.79,8.52,53,0.025,8.25
9.0970,-0.08552,0.00524,0.56549,0.00000,0.00000,0.00000,37,5,64,20,25,4,63,16,ok,2,0,0.002,9,-0.09,-0.79,8.52,53,0.038,8.25
9.1003,-0.08552,0.00524,0.56549,0.00000,0.00000,0.00000,38,4,64,21,24,7,63,17,ok,2,0,0.002,9,-0.09,-0.79,8.52,53,0.051,8.25
9.1129,-0.08552,0.00524,0.56549,0.00000,0.00000,0.00000,38,4,64,22,23,10,63,18,ok,2,0,0.002,9,-0.09,-0.79,8.52,53,0.063,8.25
9.1330,-0.08552,0.00524,0.56549,0.00000,0.00000,0.00000,38,3,64,23,22,14,64,18,ok,2,0,0.002,9,-0.09,-0.79,8.52,53,0.076,8.25
9.1379,-0.08552,0.00524,0.56549,0.00000,0.00000,0.00000,39,3,63,26,24,13,64,19,ok,2,0,0.002,9,-0.09,-0.79,8.52,53,0.088,8.25
9.1504,-0.08552,0.00524,0.56549,0.00000,0.00000,0.00000,40,2,63,27,24,13,64,20,ok,2,0,0.002,9,-0.09,-0.79,8.52,53,0.101,8.25
9.1730,-0.08552,0.00524,0.56549,0.00000,0.00000,0.00000,40,2,64,26,25,11,64,21,ok,2,0,0.002,9,-0.09,-0.79,8.52,53,0.113,8.25
9.1762,-0.08552,0.00524,0.56549,0.00000,0.00000,0.00000,40,1,67,23,27,10,65,22,ok,2,0,0.002,9,-0.09,-0.79,8.52,53,0.127,8.25
9.1889,-0.08552,0.00524,0.56549,0.00000,0.00000,0.00000,41,1,69,19,28,10,65,23,ok,2,0,0.002,9,-0.09,-0.79,8.52,53,0.139,8.25
9.2090,-0.08552,0.00524,0.56549,0.00000,0.00000,0.00000,42,1,70,15,29,10,64,24,ok,2,0,0.002,9,-0.09,-0.79,8.52,53,0.152,8.25
9.2141,-0.08552,0.00524,0.56549,0.00000,0.00000,0.00000,42,1,71,12,30,8,64,26,ok,2,0,0.002,9,-0.09,-0.79,8.52,53,0.164,8.25
9.2264,-0.08552,0.00524,0.56549,0.00000,0.00000,0.00000,44,2,70,12,33,9,65,27,ok,2,0,0.002,9,-0.09,-0.79,8.52,53,0.177,8.25
9.2490,-0.08552,0.00524,0.56549,0.00000,0.00000,0.00000,44,2,70,8,33,9,64,29,ok,2,0,0.002,9,-0.09,-0.79,8.52,53,0.189,8.25
9.2525,-0.13265,0.00000,0.62657,0.00000,0.00000,0.00000,45,3,69,6,35,8,64,30,ok,2,0,0.002,9,0.17,-1.42,10.03,54,0.000,8.25
9.2649,-0.13265,0.00000,0.62657,0.00000,0.00000,0.00000,46,3,69,3,36,8,64,32,ok,2,0,0.002,9,0.17,-1.42,10.03,54,0.013,8.25
9.2850,-0.13265,0.00000,0.62657,0.00000,0.00000,0.00000,46,2,67,0,37,8,64,33,ok,2,0,0.002,9,0.17,-1.42,10.03,54,0.025,8.25
9.2899,-0.13265,0.00000,0.62657,0.00000,0.00000,0.00000,47,2,66,-2,39,7,64,35,ok,2,0,0.002,9,0.17,-1.42,10.03,54,0.038,8.25
9.3024,-0.13265,0.00000,0.62657,0.00000,0.00000,0.00000,48,2,64,-3,39,7,63,36,ok,2,0,0.002,9,0.17,-1.42,10.03,54,0.050,8.25
9.3250,-0.13265,0.00000,0.62657,0.00000,0.00000,0.00000,48,2,62,-4,41,6,65,36,ok,2,0,0.002,9,0.17,-1.42,10.03,54,0.063,8.25
9.3283,-0.13265,0.00000,0.62657,0.00000,0.00000,0.00000,48,3,61,-5,42,6,66,35,ok,2,0,0.002,9,0.17,-1.42,10.03,54,0.076,8.25
9.3409,-0.13265,0.00000,0.62657,0.00000,0.00000,0.00000,49,3,60,-8,43,6,67,33,ok,2,0,0.002,9,0.17,-1.42,10.03,54,0.089,8.25
9.3610,-0.13265,0.00000,0.62657,0.00000,0.00000,0.00000,50,3,58,-8,44,7,69,28,ok,2,0,0.002,9,0.17,-1.42,10.03,54,0.101,8.25
9.3659,-0.13265,0.00000,0.62657,0.00000,0.00000,0.00000,50,3,55,-9,45,7,70,24,ok,2,0,0.002,9,0.17,-1.42,10.03,54,0.114,8.25
9.3783,-0.13265,0.00000,0.62657,0.00000,0.00000,0.00000,50,3,53,-9,46,7,72,21,ok,2,0,0.002,9,0.17,-1.42,10.03,54,0.126,8.25
9.4010,-0.13265,0.00000,0.62657,0.00000,0.00000,0.00000,50,5,51,-10,47,7,72,21,ok,2,0,0.002,9,0.17,-1.42,10.03,54,0.139,8.25
9.4045,-0.13265,0.00000,0.62657,0.00000,0.00000,0.00000,51,6,49,-10,47,7,72,19,ok,2,0,0.002,9,0.17,-1.42,10.03,54,0.152,8.25
9.4169,-0.13265,0.00000,0.62657,0.00000,0.00000,0.00000,52,6,46,-10,49,7,72,15,ok,2,0,0.002,9,0.17,-1.42,10.03,54,0.165,8.25
9.4371,-0.13265,0.00000,0.62657,0.00000,0.00000,0.00000,52,6,44,-10,49,7,72,13,ok,2,0,0.002,9,0.17,-1.42,10.03,54,0.177,8.25
9.4421,-0.13265,0.00000,0.62657,0.00000,0.00000,0.00000,52,7,41,-10,50,7,71,11,ok,2,0,0.002,9,0.17,-1.42,10.03,54,0.190,8.25
9.4547,-0.13265,0.00000,0.62657,0.00000,0.00000,0.00000,54,7,39,-10,51,7,71,8,ok,2,0,0.002,9,0.17,-1.42,10.03,54,0.202,8.25
9.4770,-0.03840,-0.03840,0.62832,0.00000,0.00000,0.00000,54,7,37,-9,52,6,70,6,ok,2,0,0.002,9,-0.28,-0.47,8.22,55,0.000,8.25
9.4801,-0.03840,-0.03840,0.62832,0.00000,0.00000,0.00000,54,7,33,-9,52,7,69,4,ok,2,0,0.002,9,-0.28,-0.47,8.22,55,0.013,8.25
9.4929,-0.03840,-0.03840,0.62832,0.00000,0.00000,0.00000,54,8,30,-8,53,7,67,2,ok,2,0,0.003,9,-0.28,-0.47,8.22,55,0.026,8.25
9.5130,-0.03840,-0.03840,0.62832,0.00000,0.00000,0.00000,54,8,27,-7,54,8,65,2,ok,2,0,0.003,9,-0.28,-0.47,8.22,55,0.039,8.25
9.5181,-0.03840,-0.03840,0.62832,0.00000,0.00000,0.00000,54,9,25,-5,55,8,64,0,ok,2,0,0.003,9,-0.28,-0.47,8.22,55,0.051,8.25
9.5305,-0.03840,-0.03840,0.62832,0.00000,0.00000,0.00000,55,10,21,-3,56,8,63,-2,ok,2,0,0.003,9,-0.28,-0.47,8.22,55,0.064,8.25
9.5531,-0.03840,-0.03840,0.62832,0.00000,0.00000,0.00000,56,11,19,-1,58,6,61,-3,ok,2,0,0.003,9,-0.28,-0.47,8.22,55,0.076,8.25
9.5562,-0.03840,-0.03840,0.62832,0.00000,0.00000,0.00000,56,11,18,0,58,7,59,-4,ok,2,0,0.003,9,-0.28,-0.47,8.22,55,0.089,8.25
9.5689,-0.03840,-0.03840,0.62832,0.00000,0.00000,0.00000,56,11,17,2,59,8,57,-5,ok,2,0,0.003,9,-0.28,-0.47,8.22,55,0.102,8.25
9.5890,-0.03840,-0.03840,0.62832,0.00000,0.00000,0.00000,56,12,15,5,59,8,55,-5,ok,2,0,0.003,9,-0.28,-0.47,8.22,55,0.115,8.25
9.5940,-0.03840,-0.03840,0.62832,0.00000,0.00000,0.00000,56,13,13,9,59,9,53,-6,ok,2,0,0.003,9,-0.28,-0.47,8.22,55,0.127,8.25
9.6066,-0.03840,-0.03840,0.62832,0.00000,0.00000,0.00000,56,12,13,11,60,9,50,-5,ok,2,0,0.003,9,-0.28,-0.47,8.22,55,0.140,8.25
9.6290,-0.03840,-0.03840,0.62832,0.00000,0.00000,0.00000,56,13,15,12,60,9,47,-5,ok,2,0,0.003,9,-0.28,-0.47,8.22,55,0.152,8.25
9.6322,-0.03840,-0.03840,0.62832,0.00000,0.00000,0.00000,56,14,16,12,61,10,45,-5,ok,2,0,0.003,9,-0.28,-0.47,8.22,55,0.165,8.25
9.6449,-0.03840,-0.03840,0.62832,0.00000,0.00000,0.00000,56,14,17,10,61,11,42,-4,ok,2,0,0.003,9,-0.28,-0.47,8.22,55,0.178,8.25
9.6650,0.00349,0.01396,0.59341,0.00000,0.00000,0.00000,56,15,19,9,61,12,40,-4,ok,2,0,0.003,9,0.54,-0.07,10.30,56,0.000,8.25
9.6699,0.00349,0.01396,0.59341,0.00000,0.00000,0.00000,56,16,20,9,61,12,36,-3,ok,2,0,0.003,10,0.54,-0.07,10.30,56,0.012,8.25
9.6824,0.00349,0.01396,0.59341,0.00000,0.00000,0.00000,57,17,21,8,61,13,34,-3,ok,2,0,0.003,10,0.54,-0.07,10.30,56,0.025,8.25
9.7050,0.00349,0.01396,0.59341,0.00000,0.00000,0.00000,57,18,22,7,62,14,30,-1,ok,2,0,0.003,10,0.54,-0.07,10.30,56,0.038,8.25
9.7082,0.00349,0.01396,0.59341,0.00000,0.00000,0.00000,58,19,23,6,63,14,29,0,ok,2,0,0.003,10,0.54,-0.07,10.30,56,0.051,8.25
9.7210,0.00349,0.01396,0.59341,0.00000,0.00000,0.00000,58,20,24,5,63,15,27,2,ok,2,0,0.003,10,0.54,-0.07,10.30,56,0.064,8.25
9.7410,0.00349,0.01396,0.59341,0.00000,0.00000,0.00000,58,21,24,5,63,16,25,5,ok,2,0,0.003,10,0.54,-0.07,10.30,56,0.076,8.25
9.7459,0.00349,0.01396,0.59341,0.00000,0.00000,0.00000,58,22,25,4,63,17,24,7,ok,2,0,0.003,10,0.54,-0.07,10.30,56,0.089,8.25
9.7586,0.00349,0.01396,0.59341,0.00000,0.00000,0.00000,58,23,26,3,64,17,23,11,ok,2,0,0.003,10,0.54,-0.07,10.30,56,0.101,8.25
9.7810,0.00349,0.01396,0.59341,0.00000,0.00000,0.00000,57,26,27,3,64,18,22,13,ok,2,0,0.003,10,0.54,-0.07,10.30,56,0.114,8.25
9.7841,0.00349,0.01396,0.59341,0.00000,0.00000,0.00000,57,27,28,2,64,20,24,12,ok,2,0,0.003,10,0.54,-0.07,10.30,56,0.127,8.25
9.7969,0.00349,0.01396,0.59341,0.00000,0.00000,0.00000,58,25,29,2,64,21,24,12,ok,2,0,0.003,10,0.54,-0.07,10.30,56,0.140,8.25
9.8170,0.00349,0.01396,0.59341,0.00000,0.00000,0.00000,59,21,30,2,65,22,25,10,ok,2,0,0.003,10,0.54,-0.07,10.30,56,0.152,8.25
9.8218,0.00349,0.01396,0.59341,0.00000,0.00000,0.00000,60,18,31,1,64,23,26,10,ok,2,0,0.003,10,0.54,-0.07,10.30,56,0.164,8.25
9.8344,0.00349,0.01396,0.59341,0.00000,0.00000,0.00000,60,13,33,2,64,25,28,10,ok,2,0,0.003,10,0.54,-0.07,10.30,56,0.177,8.25
9.8570,0.00349,0.01396,0.59341,0.00000,0.00000,0.00000,60,11,34,2,65,25,29,10,ok,2,0,0.003,10,0.54,-0.07,10.30,56,0.189,8.25
9.8605,-0.05934,0.04014,0.63006,0.00000,0.00000,0.00000,60,11,36,2,64,28,30,9,ok,2,0,0.003,10,-0.88,-0.79,8.81,57,0.000,8.25
9.8729,-0.05934,0.04014,0.63006,0.00000,0.00000,0.00000,60,7,37,2,64,28,32,9,ok,2,0,0.003,10,-0.88,-0.79,8.81,57,0.013,8.25
9.8930,-0.05934,0.04014,0.63006,0.00000,0.00000,0.00000,60,5,39,3,64,30,33,9,ok,2,0,0.003,10,-0.88,-0.79,8.81,57,0.025,8.25
9.8979,-0.05934,0.04014,0.63006,0.00000,0.00000,0.00000,60,2,40,3,64,31,35,9,ok,2,0,0.003,10,-0.88,-0.79,8.81,57,0.038,8.25
9.9103,-0.05934,0.04014,0.63006,0.00000,0.00000,0.00000,59,-1,42,3,63,33,36,9,ok,2,0,0.003,10,-0.88,-0.79,8.81,57,0.050,8.25
9.9330,-0.05934,0.04014,0.63006,0.00000,0.00000,0.00000,58,-3,43,3,63,34,37,9,ok,2,0,0.003,10,-0.88,-0.79,8.81,57,0.063,8.25
9.9362,-0.05934,0.04014,0.63006,0.00000,0.00000,0.00000,58,-4,44,3,64,35,38,8,ok,2,0,0.003,10,-0.88,-0.79,8.81,57,0.076,8.25
9.9489,-0.05934,0.04014,0.63006,0.00000,0.00000,0.00000,56,-5,44,3,66,35,39,8,ok,2,0,0.003,10,-0.88,-0.79,8.81,57,0.089,8.25
9.9690,-0.05934,0.04014,0.63006,0.00000,0.00000,0.00000,56,-7,45,3,67,33,40,7,ok,2,0,0.003,10,-0.88,-0.79,8.81,57,0.101,8.25
9.9739,-0.05934,0.04014,0.63006,0.00000,0.00000,0.00000,56,-9,46,3,70,28,42,7,ok,2,0,0.003,10,-0.88,-0.79,8.81,57,0.114,8.25
9.9864,-0.05934,0.04014,0.63006,0.00000,0.00000,0.00000,54,-9,48,4,71,24,43,7,ok,2,0,0.003,10,-0.88,-0.79,8.81,57,0.126,8.25
10.0090,-0.05934,0.04014,0.63006,0.00000,0.00000,0.00000,54,-10,49,4,73,21,44,7,ok,2,0,0.003,10,-0.88,-0.79,8.81,57,0.139,8.25
10.0122,-0.05934,0.04014,0.63006,0.00000,0.00000,0.00000,52,-10,49,4,74,20,45,8,ok,2,0,0.003,10,-0.88,-0.79,8.81,57,0.152,8.25
10.0250,-0.05934,0.04014,0.63006,0.00000,0.00000,0.00000,51,-11,49,6,74,18,46,8,ok,2,0,0.003,10,-0.88,-0.79,8.81,57,0.165,8.25
10.0530,-0.05934,0.04014,0.63006,0.00000,0.00000,0.00000,50,-11,51,6,74,14,47,8,ok,2,0,0.003,10,-0.88,-0.79,8.81,57,0.177,8.25
10.0565,-0.00524,0.02967,0.66497,0.00000,0.00000,0.00000,48,-11,52,6,73,11,48,8,ok,2,0,0.003,10,-0.35,-0.17,10.58,58,0.000,8.25
10.0691,-0.00524,0.02967,0.66497,0.00000,0.00000,0.00000,47,-10,53,6,73,10,49,8,ok,2,0,0.003,10,-0.35,-0.17,10.58,58,0.013,8.25
10.0890,-0.00524,0.02967,0.66497,0.00000,0.00000,0.00000,46,-11,53,7,72,6,49,9,ok,2,0,0.003,10,-0.35,-0.17,10.58,58,0.025,8.25
10.0938,-0.00524,0.02967,0.66497,0.00000,0.00000,0.00000,44,-11,55,7,72,5,50,8,ok,2,0,0.003,10,-0.35,-0.17,10.58,58,0.038,8.25
10.1064,-0.00524,0.02967,0.66497,0.00000,0.00000,0.00000,43,-10,56,7,71,4,51,9,ok,2,0,0.003,10,-0.35,-0.17,10.58,58,0.050,8.25
10.1290,-0.00524,0.02967,0.66497,0.00000,0.00000,0.00000,42,-8,57,7,69,1,52,8,ok,2,0,0.003,10,-0.35,-0.17,10.58,58,0.063,8.25
10.1322,-0.00524,0.02967,0.66497,0.00000,0.00000,0.00000,40,-7,57,8,66,1,52,9,ok,2,0,0.003,10,-0.35,-0.17,10.58,58,0.076,8.25
10.1450,-0.00524,0.02967,0.66497,0.00000,0.00000,0.00000,38,-5,58,7,65,-1,52,9,ok,2,0,0.003,10,-0.35,-0.17,10.58,58,0.089,8.25
10.1650,-0.00524,0.02967,0.66497,0.00000,0.00000,0.00000,37,-4,58,8,64,-3,54,9,ok,2,0,0.003,10,-0.35,-0.17,10.58,58,0.101,8.25
10.1699,-0.00524,0.02967,0.66497,0.00000,0.00000,0.00000,35,-1,59,9,62,-4,55,9,ok,2,0,0.003,10,-0.35,-0.17,10.58,58,0.114,8.25
10.1824,-0.00524,0.02967,0.66497,0.00000,0.00000,0.00000,34,-1,60,10,61,-5,54,8,ok,2,0,0.003,10,-0.35,-0.17,10.58,58,0.126,8.25
10.2050,-0.00524,0.02967,0.66497,0.00000,0.00000,0.00000,34,0,60,10,59,-6,57,6,ok,2,0,0.003,10,-0.35,-0.17,10.58,58,0.139,8.25
10.2082,-0.00524,0.02967,0.66497,0.00000,0.00000,0.00000,33,2,61,11,56,-7,57,7,ok,2,0,0.003,10,-0.35,-0.17,10.58,58,0.152,8.25
10.2210,-0.00524,0.02967,0.66497,0.00000,0.00000,0.00000,32,5,61,11,54,-7,58,8,ok,2,0,0.003,10,-0.35,-0.17,10.58,58,0.165,8.25
10.2410,-0.00524,0.02967,0.66497,0.00000,0.00000,0.00000,32,8,61,12,51,-7,58,9,ok,2,0,0.003,10,-0.35,-0.17,10.58,58,0.177,8.25
10.2458,-0.00524,0.02967,0.66497,0.00000,0.00000,0.00000,31,10,61,12,48,-6,59,9,ok,2,0,0.003,10,-0.35,-0.17,10.58,58,0.190,8.25
10.2587,-0.04887,0.01920,0.68766,0.00000,0.00000,0.00000,32,11,61,13,46,-6,60,10,ok,2,0,0.003,10,0.95,-0.80,9.68,59,0.000,8.25
10.2810,-0.04887,0.01920,0.68766,0.00000,0.00000,0.00000,32,10,61,14,43,-5,60,10,ok,2,0,0.003,10,0.95,-0.80,9.68,59,0.013,8.25
10.2844,-0.04887,0.01920,0.68766,0.00000,0.00000,0.00000,33,9,62,14,40,-5,61,11,ok,2,0,0.003,10,0.95,-0.80,9.68,59,0.026,8.25
10.2968,-0.04887,0.01920,0.68766,0.00000,0.00000,0.00000,34,9,62,15,38,-4,61,12,ok,2,0,0.003,10,0.95,-0.80,9.68,59,0.039,8.25
10.3170,-0.04887,0.01920,0.68766,0.00000,0.00000,0.00000,34,8,62,15,35,-4,61,13,ok,2,0,0.003,10,0.95,-0.80,9.68,59,0.051,8.25
10.3218,-0.04887,0.01920,0.68766,0.00000,0.00000,0.00000,35,7,62,16,32,-2,61,13,ok,2,0,0.003,10,0.95,-0.80,9.68,59,0.063,8.25
10.3344,-0.04887,0.01920,0.68766,0.00000,0.00000,0.00000,36,7,63,17,30,-1,62,14,ok,2,0,0.003,10,0.95,-0.80,9.68,59,0.076,8.25
10.3570,-0.04887,0.01920,0.68766,0.00000,0.00000,0.00000,36,5,64,18,28,1,62,15,ok,2,0,0.003,10,0.95,-0.80,9.68,59,0.089,8.25
10.3604,-0.04887,0.01920,0.68766,0.00000,0.00000,0.00000,37,5,64,20,26,4,63,15,ok,2,0,0.003,10,0.95,-0.80,9.68,59,0.102,8.25
10.3730,-0.04887,0.01920,0.68766,0.00000,0.00000,0.00000,38,4,64,21,24,7,63,17,ok,2,0,0.003,10,0.95,-0.80,9.68,59,0.115,8.25
10.3970,-0.04887,0.01920,0.68766,0.00000,0.00000,0.00000,38,4,64,22,23,11,63,18,ok,2,0,0.003,10,0.95,-0.80,9.68,59,0.127,8.25
10.4004,-0.04887,0.01920,0.68766,0.00000,0.00000,0.00000,38,3,64,23,22,14,64,18,ok,2,0,0.003,10,0.95,-0.80,9.68,59,0.142,8.25
10.4129,-0.04887,0.01920,0.68766,0.00000,0.00000,0.00000,39,3,63,26,24,13,64,19,ok,2,0,0.003,10,0.95,-0.80,9.68,59,0.155,8.25
10.4330,-0.04887,0.01920,0.68766,0.00000,0.00000,0.00000,40,2,63,27,24,13,64,20,ok,2,0,0.003,10,0.95,-0.80,9.68,59,0.167,8.25
10.4379,-0.04887,0.01920,0.68766,0.00000,0.00000,0.00000,40,2,64,26,26,11,64,21,ok,2,0,0.003,10,0.95,-0.80,9.68,59,0.179,8.25
10.4503,-0.04887,0.01920,0.68766,0.00000,0.00000,0.00000,40,2,67,22,27,10,65,22,ok,2,0,0.003,10,0.95,-0.80,9.68,59,0.192,8.25
10.4730,-0.06807,0.01047,0.68941,0.00000,0.00000,0.00000,41,1,69,19,28,10,65,23,ok,2,0,0.003,10,-0.46,-0.34,9.61,60,0.000,8.25
10.4764,-0.06807,0.01047,0.68941,0.00000,0.00000,0.00000,42,1,70,15,29,10,64,24,ok,2,0,0.003,10,-0.46,-0.34,9.61,60,0.013,8.25
10.4890,-0.06807,0.01047,0.68941,0.00000,0.00000,0.00000,42,1,71,13,30,8,64,26,ok,2,0,0.003,10,-0.46,-0.34,9.61,60,0.026,8.25
10.5090,-0.06807,0.01047,0.68941,0.00000,0.00000,0.00000,44,1,70,12,33,9,65,27,ok,2,0,0.003,10,-0.46,-0.34,9.61,60,0.039,8.25
10.5139,-0.06807,0.01047,0.68941,0.00000,0.00000,0.00000,44,1,70,9,33,9,64,29,ok,2,0,0.003,10,-0.46,-0.34,9.61,60,0.051,8.25
10.5263,-0.06807,0.01047,0.68941,0.00000,0.00000,0.00000,45,2,69,6,35,8,64,30,ok,2,0,0.003,10,-0.46,-0.34,9.61,60,0.064,8.25
10.5490,-0.06807,0.01047,0.68941,0.00000,0.00000,0.00000,46,2,69,3,37,8,64,31,ok,2,0,0.003,10,-0.46,-0.34,9.61,60,0.076,8.25
10.5524,-0.06807,0.01047,0.68941,0.00000,0.00000,0.00000,46,2,67,0,38,8,64,33,ok,2,0,0.003,10,-0.46,-0.34,9.61,60,0.089,8.25
10.5649,-0.06807,0.01047,0.68941,0.00000,0.00000,0.00000,47,2,66,-2,39,8,63,35,ok,2,0,0.003,10,-0.46,-0.34,9.61,60,0.102,8.25
10.5850,-0.06807,0.01047,0.68941,0.00000,0.00000,0.00000,48,2,64,-3,40,7,63,36,ok,2,0,0.003,10,-0.46,-0.34,9.61,60,0.115,8.25
10.5899,-0.06807,0.01047,0.68941,0.00000,0.00000,0.00000,48,2,62,-4,41,6,64,36,ok,2,0,0.003,10,-0.46,-0.34,9.61,60,0.127,8.25
10.6023,-0.06807,0.01047,0.68941,0.00000,0.00000,0.00000,48,3,61,-5,42,7,65,35,ok,2,0,0.003,10,-0.46,-0.34,9.61,60,0.140,8.25
10.6250,-0.06807,0.01047,0.68941,0.00000,0.00000,0.00000,49,3,60,-8,43,7,67,33,ok,2,0,0.003,10,-0.46,-0.34,9.61,60,0.152,8.25
10.6283,-0.06807,0.01047,0.68941,0.00000,0.00000,0.00000,50,3,58,-8,44,7,69,28,ok,2,0,0.003,10,-0.46,-0.34,9.61,60,0.165,8.25
10.6409,-0.06807,0.01047,0.68941,0.00000,0.00000,0.00000,50,3,55,-9,45,7,70,24,ok,2,0,0.003,10,-0.46,-0.34,9.61,60,0.178,8.25
10.6610,-0.06807,0.01047,0.68941,0.00000,0.00000,0.00000,50,3,53,-9,46,7,72,21,ok,2,0,0.003,10,-0.46,-0.34,9.61,60,0.191,8.25
10.6661,-0.09425,0.01920,0.75398,0.00000,0.00000,0.00000,50,5,51,-10,47,7,72,21,ok,2,0,0.003,10,1.54,-1.44,11.74,61,0.000,8.25
10.6786,-0.09425,0.01920,0.75398,0.00000,0.00000,0.00000,51,6,49,-10,47,7,72,19,ok,2,0,0.003,10,1.54,-1.44,11.74,61,0.013,8.25
10.7010,-0.09425,0.01920,0.75398,0.00000,0.00000,0.00000,52,5,46,-10,49,7,73,15,ok,2,0,0.003,11,1.54,-1.44,11.74,61,0.025,8.25
10.7042,-0.09425,0.01920,0.75398,0.00000,0.00000,0.00000,52,6,44,-9,49,7,72,13,ok,2,0,0.003,11,1.54,-1.44,11.74,61,0.038,8.25
10.7169,-0.09425,0.01920,0.75398,0.00000,0.00000,0.00000,52,7,41,-10,50,7,71,11,ok,2,0,0.003,11,1.54,-1.44,11.74,61,0.051,8.25
10.7370,-0.09425,0.01920,0.75398,0.00000,0.00000,0.00000,53,7,39,-10,51,7,71,7,ok,2,0,0.003,11,1.54,-1.44,11.74,61,0.064,8.25
10.7421,-0.09425,0.01920,0.75398,0.00000,0.00000,0.00000,54,7,36,-9,52,6,70,6,ok,2,0,0.003,11,1.54,-1.44,11.74,61,0.076,8.25
10.7543,-0.09425,0.01920,0.75398,0.00000,0.00000,0.00000,54,7,33,-8,52,7,70,4,ok,2,0,0.003,11,1.54,-1.44,11.74,61,0.089,8.25
10.7770,-0.09425,0.01920,0.75398,0.00000,0.00000,0.00000,54,8,30,-7,53,7,68,2,ok,2,0,0.003,11,1.54,-1.44,11.74,61,0.101,8.25
10.7801,-0.09425,0.01920,0.75398,0.00000,0.00000,0.00000,54,8,27,-6,54,8,66,2,ok,2,0,0.003,11,1.54,-1.44,11.74,61,0.114,8.25
10.7930,-0.09425,0.01920,0.75398,0.00000,0.00000,0.00000,54,8,24,-4,55,8,65,0,ok,2,0,0.003,11,1.54,-1.44,11.74,61,0.127,8.25
10.8130,-0.09425,0.01920,0.75398,0.00000,0.00000,0.00000,55,9,20,-2,56,8,64,-2,ok,2,0,0.003,11,1.54,-1.44,11.74,61,0.140,8.25
10.8179,-0.09425,0.01920,0.75398,0.00000,0.00000,0.00000,55,10,19,-1,58,6,62,-3,ok,2,0,0.003,11,1.54,-1.44,11.74,61,0.152,8.25
10.8305,-0.09425,0.01920,0.75398,0.00000,0.00000,0.00000,56,9,18,1,58,7,60,-4,ok,2,0,0.003,11,1.54,-1.44,11.74,61,0.165,8.25
10.8530,-0.09425,0.01920,0.75398,0.00000,0.00000,0.00000,56,10,16,3,59,8,58,-4,ok,2,0,0.003,11,1.54,-1.44,11.74,61,0.177,8.25
10.8562,-0.09425,0.01920,0.75398,0.00000,0.00000,0.00000,56,11,15,6,59,8,55,-5,ok,2,0,0.003,11,1.54,-1.44,11.74,61,0.190,8.25
10.8692,0.01920,0.01047,0.74526,0.00000,0.00000,0.00000,56,12,13,9,60,9,53,-6,ok,2,0,0.003,11,0.79,-0.09,10.61,62,0.000,8.25
10.8890,0.01920,0.01047,0.74526,0.00000,0.00000,0.00000,56,12,12,11,60,9,50,-5,ok,2,0,0.003,11,0.79,-0.09,10.61,62,0.013,8.25
10.8939,0.01920,0.01047,0.74526,0.00000,0.00000,0.00000,56,13,14,12,61,10,47,-5,ok,2,0,0.003,11,0.79,-0.09,10.61,62,0.025,8.25
10.9064,0.01920,0.01047,0.74526,0.00000,0.00000,0.00000,56,14,15,11,61,11,45,-5,ok,2,0,0.003,11,0.79,-0.09,10.61,62,0.038,8.25
10.9290,0.01920,0.01047,0.74526,0.00000,0.00000,0.00000,56,14,17,10,62,11,42,-4,ok,2,0,0.003,11,0.79,-0.09,10.61,62,0.050,8.25
10.9322,0.01920,0.01047,0.74526,0.00000,0.00000,0.00000,56,15,19,9,62,12,40,-4,ok,2,0,0.003,11,0.79,-0.09,10.61,62,0.063,8.25
10.9449,0.01920,0.01047,0.74526,0.00000,0.00000,0.00000,56,16,19,8,61,12,37,-3,ok,2,0,0.003,11,0.79,-0.09,10.61,62,0.076,8.25
10.9650,0.01920,0.01047,0.74526,0.00000,0.00000,0.00000,56,17,21,7,62,13,34,-3,ok,2,0,0.003,11,0.79,-0.09,10.61,62,0.089,8.25
10.9699,0.01920,0.01047,0.74526,0.00000,0.00000,0.00000,56,18,21,7,62,14,31,-1,ok,2,0,0.003,11,0.79,-0.09,10.61,62,0.101,8.25
10.9825,0.01920,0.01047,0.74526,0.00000,0.00000,0.00000,58,20,23,6,63,14,29,0,ok,2,0,0.003,11,0.79,-0.09,10.61,62,0.114,8.25
11.0050,0.01920,0.01047,0.74526,0.00000,0.00000,0.00000,58,20,24,5,63,15,27,2,ok,2,0,0.003,11,0.79,-0.09,10.61,62,0.126,8.25
11.0082,0.01920,0.01047,0.74526,0.00000,0.00000,0.00000,58,21,24,4,63,16,25,5,ok,2,0,0.003,11,0.79,-0.09,10.61,62,0.139,8.25
11.0209,0.01920,0.01047,0.74526,0.00000,0.00000,0.00000,58,22,25,4,63,17,24,7,ok,2,0,0.003,11,0.79,-0.09,10.61,62,0.152,8.25
11.0410,0.01920,0.01047,0.74526,0.00000,0.00000,0.00000,58,23,26,3,64,17,23,11,ok,2,0,0.003,11,0.79,-0.09,10.61,62,0.165,8.25
11.0459,0.01920,0.01047,0.74526,0.00000,0.00000,0.00000,57,26,27,3,64,19,22,13,ok,2,0,0.003,11,0.79,-0.09,10.61,62,0.177,8.25
11.0583,0.01920,0.01047,0.74526,0.00000,0.00000,0.00000,57,26,28,2,64,20,24,12,ok,2,0,0.003,11,0.79,-0.09,10.61,62,0.190,8.25
11.0810,0.04363,-0.03316,0.74351,0.00000,0.00000,0.00000,58,25,29,2,64,21,24,12,ok,2,0,0.003,11,-0.54,0.69,10.46,63,0.000,8.25
11.0842,0.04363,-0.03316,0.74351,0.00000,0.00000,0.00000,58,21,30,2,65,22,25,10,ok,2,0,0.003,11,-0.54,0.69,10.46,63,0.013,8.25
11.0969,0.04363,-0.03316,0.74351,0.00000,0.00000,0.00000,60,18,31,1,64,23,26,9,ok,2,0,0.003,11,-0.54,0.69,10.46,63,0.026,8.25
11.1170,0.04363,-0.03316,0.74351,0.00000,0.00000,0.00000,60,13,33,2,64,25,27,10,ok,2,0,0.003,11,-0.54,0.69,10.46,63,0.039,8.25
11.1219,0.04363,-0.03316,0.74351,0.00000,0.00000,0.00000,60,11,34,2,65,26,29,9,ok,2,0,0.003,11,-0.54,0.69,10.46,63,0.051,8.25
11.1344,0.04363,-0.03316,0.74351,0.00000,0.00000,0.00000,60,11,36,1,64,28,30,9,ok,2,0,0.003,11,-0.54,0.69,10.46,63,0.063,8.25
11.1570,0.04363,-0.03316,0.74351,0.00000,0.00000,0.00000,60,8,37,1,64,29,32,9,ok,2,0,0.003,11,-0.54,0.69,10.46,63,0.076,8.25
11.1602,0.04363,-0.03316,0.74351,0.00000,0.00000,0.00000,60,5,39,3,64,30,33,9,ok,2,0,0.003,11,-0.54,0.69,10.46,63,0.089,8.25
11.1729,0.04363,-0.03316,0.74351,0.00000,0.00000,0.00000,60,2,40,3,64,32,34,8,ok,2,0,0.003,11,-0.54,0.69,10.46,63,0.102,8.25
11.1930,0.04363,-0.03316,0.74351,0.00000,0.00000,0.00000,59,0,42,2,63,34,35,8,ok,2,0,0.003,11,-0.54,0.69,10.46,63,0.114,8.25
11.1981,0.04363,-0.03316,0.74351,0.00000,0.00000,0.00000,58,-2,43,2,63,35,36,8,ok,2,0,0.003,11,-0.54,0.69,10.46,63,0.127,8.25
11.2104,0.04363,-0.03316,0.74351,0.00000,0.00000,0.00000,58,-3,45,3,64,35,38,8,ok,2,0,0.003,11,-0.54,0.69,10.46,63,0.140,8.25
11.2330,0.04363,-0.03316,0.74351,0.00000,0.00000,0.00000,57,-5,45,3,65,35,39,8,ok,2,0,0.003,11,-0.54,0.69,10.46,63,0.152,8.25
11.2362,0.04363,-0.03316,0.74351,0.00000,0.00000,0.00000,56,-6,46,3,67,33,40,7,ok,2,0,0.003,11,-0.54,0.69,10.46,63,0.165,8.25
11.2489,0.04363,-0.03316,0.74351,0.00000,0.00000,0.00000,56,-8,47,3,69,29,41,7,ok,2,0,0.003,11,-0.54,0.69,10.46,63,0.178,8.25
11.2730,0.04363,-0.03316,0.74351,0.00000,0.00000,0.00000,54,-9,49,4,71,24,43,7,ok,2,0,0.003,11,-0.54,0.69,10.46,63,0.191,8.25
11.2766,-0.04189,0.03665,0.77667,0.00000,0.00000,0.00000,54,-10,50,4,72,22,43,7,ok,2,0,0.003,11,0.95,0.12,10.66,64,0.000,8.25
11.2891,-0.04189,0.03665,0.77667,0.00000,0.00000,0.00000,52,-10,50,4,73,20,44,7,ok,2,0,0.003,11,0.95,0.12,10.66,64,0.013,8.25
11.3090,-0.04189,0.03665,0.77667,0.00000,0.00000,0.00000,52,-11,50,6,73,18,46,7,ok,2,0,0.003,11,0.95,0.12,10.66,64,0.025,8.25
11.3138,-0.04189,0.03665,0.77667,0.00000,0.00000,0.00000,50,-11,52,7,73,14,47,8,ok,2,0,0.003,11,0.95,0.12,10.66,64,0.038,8.25
11.3264,-0.04189,0.03665,0.77667,0.00000,0.00000,0.00000,48,-11,52,7,73,11,48,8,ok,2,0,0.003,11,0.95,0.12,10.66,64,0.050,8.25
11.3490,-0.04189,0.03665,0.77667,0.00000,0.00000,0.00000,48,-11,53,7,72,9,49,8,ok,2,0,0.003,11,0.95,0.12,10.66,64,0.063,8.25
11.3522,-0.04189,0.03665,0.77667,0.00000,0.00000,0.00000,46,-11,53,8,72,6,49,9,ok,2,0,0.003,11,0.95,0.12,10.66,64,0.076,8.25
11.3650,-0.04189,0.03665,0.77667,0.00000,0.00000,0.00000,44,-12,56,8,72,5,50,8,ok,2,0,0.003,11,0.95,0.12,10.66,64,0.089,8.25
11.3850,-0.04189,0.03665,0.77667,0.00000,0.00000,0.00000,43,-11,56,8,71,4,51,9,ok,2,0,0.003,11,0.95,0.12,10.66,64,0.101,8.25
11.3898,-0.04189,0.03665,0.77667,0.00000,0.00000,0.00000,42,-9,57,8,69,1,52,8,ok,2,0,0.003,11,0.95,0.12,10.66,64,0.114,8.25
11.4024,-0.04189,0.03665,0.77667,0.00000,0.00000,0.00000,40,-8,57,8,66,1,52,9,ok,2,0,0.003,11,0.95,0.12,10.66,64,0.126,8.25
11.4250,-0.04189,0.03665,0.77667,0.00000,0.00000,0.00000,38,-6,58,8,65,-1,53,9,ok,2,0,0.003,11,0.95,0.12,10.66,64,0.139,8.25
11.4282,-0.04189,0.03665,0.77667,0.00000,0.00000,0.00000,37,-4,58,8,64,-3,54,9,ok,2,0,0.003,11,0.95,0.12,10.66,64,0.152,8.25
11.4408,-0.04189,0.03665,0.77667,0.00000,0.00000,0.00000,35,-2,59,9,62,-4,55,9,ok,2,0,0.003,11,0.95,0.12,10.66,64,0.165,8.25
11.4610,-0.04189,0.03665,0.77667,0.00000,0.00000,0.00000,34,-2,60,11,60,-5,55,8,ok,2,0,0.003,11,0.95,0.12,10.66,64,0.177,8.25
11.4659,-0.04189,0.03665,0.77667,0.00000,0.00000,0.00000,34,0,60,10,59,-6,57,6,ok,2,0,0.003,11,0.95,0.12,10.66,64,0.190,8.25
11.4787,0.01571,0.00524,0.79063,0.00000,0.00000,0.00000,33,2,61,11,56,-7,57,7,ok,2,0,0.003,11,0.17,0.35,9.11,65,0.000,8.25
11.5010,0.01571,0.00524,0.79063,0.00000,0.00000,0.00000,32,5,61,11,54,-7,58,8,ok,2,0,0.003,11,0.17,0.35,9.11,65,0.013,8.25
11.5043,0.01571,0.00524,0.79063,0.00000,0.00000,0.00000,32,8,61,12,51,-6,58,9,ok,2,0,0.003,11,0.17,0.35,9.11,65,0.026,8.25
11.5168,0.01571,0.00524,0.79063,0.00000,0.00000,0.00000,31,11,61,11,48,-6,59,9,ok,2,0,0.003,11,0.17,0.35,9.11,65,0.039,8.25
11.5370,0.01571,0.00524,0.79063,0.00000,0.00000,0.00000,32,11,62,12,46,-6,60,10,ok,2,0,0.003,11,0.17,0.35,9.11,65,0.051,8.25
11.5418,0.01571,0.00524,0.79063,0.00000,0.00000,0.00000,32,11,61,13,43,-5,59,10,ok,2,0,0.003,11,0.17,0.35,9.11,65,0.064,8.25
11.5544,0.01571,0.00524,0.79063,0.00000,0.00000,0.00000,33,10,62,13,41,-5,60,11,ok,2,0,0.003,11,0.17,0.35,9.11,65,0.076,8.25
11.5770,0.01571,0.00524,0.79063,0.00000,0.00000,0.00000,34,10,62,14,38,-4,61,12,ok,2,0,0.003,11,0.17,0.35,9.11,65,0.089,8.25
11.5803,0.01571,0.00524,0.79063,0.00000,0.00000,0.00000,34,9,62,14,35,-3,61,13,ok,2,0,0.003,11,0.17,0.35,9.11,65,0.102,8.25
11.5930,0.01571,0.00524,0.79063,0.00000,0.00000,0.00000,36,8,63,15,32,-2,61,13,ok,2,0,0.003,11,0.17,0.35,9.11,65,0.115,8.25
11.6130,0.01571,0.00524,0.79063,0.00000,0.00000,0.00000,36,8,63,16,30,0,62,14,ok,2,0,0.003,11,0.17,0.35,9.11,65,0.127,8.25
11.6178,0.01571,0.00524,0.79063,0.00000,0.00000,0.00000,36,6,64,18,28,1,62,15,ok,2,0,0.003,11,0.17,0.35,9.11,65,0.139,8.25
11.6304,0.01571,0.00524,0.79063,0.00000,0.00000,0.00000,37,5,64,19,25,5,63,15,ok,2,0,0.003,11,0.17,0.35,9.11,65,0.152,8.25
11.6570,0.01571,0.00524,0.79063,0.00000,0.00000,0.00000,38,5,64,20,24,8,63,16,ok,2,0,0.003,11,0.17,0.35,9.11,65,0.165,8.25
11.6604,0.01571,0.00524,0.79063,0.00000,0.00000,0.00000,38,4,64,22,23,11,63,18,ok,2,0,0.003,11,0.17,0.35,9.11,65,0.182,8.25
11.6732,-0.06981,0.04189,0.79238,0.00000,0.00000,0.00000,38,4,64,23,22,14,64,18,ok,2,0,0.003,11,0.61,0.90,8.93,66,0.000,8.25
11.6930,-0.06981,0.04189,0.79238,0.00000,0.00000,0.00000,39,3,63,26,24,13,64,19,ok,2,0,0.003,11,0.61,0.90,8.93,66,0.013,8.25
11.6978,-0.06981,0.04189,0.79238,0.00000,0.00000,0.00000,40,2,63,27,24,13,64,20,ok,2,0,0.003,11,0.61,0.90,8.93,66,0.025,8.25
11.7104,-0.06981,0.04189,0.79238,0.00000,0.00000,0.00000,40,2,64,26,25,11,64,21,ok,2,0,0.003,12,0.61,0.90,8.93,66,0.038,8.25
11.7331,-0.06981,0.04189,0.79238,0.00000,0.00000,0.00000,40,1,67,23,26,10,65,21,ok,2,0,0.003,12,0.61,0.90,8.93,66,0.050,8.25
11.7365,-0.06981,0.04189,0.79238,0.00000,0.00000,0.00000,41,0,69,19,27,10,65,23,ok,2,0,0.003,12,0.61,0.90,8.93,66,0.063,8.25
11.7490,-0.06981,0.04189,0.79238,0.00000,0.00000,0.00000,42,0,70,15,29,10,64,24,ok,2,0,0.003,12,0.61,0.90,8.93,66,0.076,8.25
11.7690,-0.06981,0.04189,0.79238,0.00000,0.00000,0.00000,42,0,71,13,30,9,64,26,ok,2,0,0.003,12,0.61,0.90,8.93,66,0.089,8.25
11.7739,-0.06981,0.04189,0.79238,0.00000,0.00000,0.00000,44,1,70,13,33,9,65,27,ok,2,0,0.003,12,0.61,0.90,8.93,66,0.101,8.25
11.7865,-0.06981,0.04189,0.79238,0.00000,0.00000,0.00000,44,1,70,9,33,9,64,29,ok,2,0,0.003,12,0.61,0.90,8.93,66,0.114,8.25
11.8090,-0.06981,0.04189,0.79238,0.00000,0.00000,0.00000,45,2,69,6,35,9,64,30,ok,2,0,0.003,12,0.61,0.90,8.93,66,0.126,8.25
11.8124,-0.06981,0.04189,0.79238,0.00000,0.00000,0.00000,46,2,69,3,36,8,64,31,ok,2,0,0.003,12,0.61,0.90,8.93,66,0.139,8.25
11.8249,-0.06981,0.04189,0.79238,0.00000,0.00000,0.00000,46,2,67,0,38,8,64,33,ok,2,0,0.003,12,0.61,0.90,8.93,66,0.152,8.25
11.8450,-0.06981,0.04189,0.79238,0.00000,0.00000,0.00000,47,2,66,-2,39,8,64,35,ok,2,0,0.003,12,0.61,0.90,8.93,66,0.165,8.25
11.8498,-0.06981,0.04189,0.79238,0.00000,0.00000,0.00000,48,2,64,-3,40,8,63,36,ok,2,0,0.003,12,0.61,0.90,8.93,66,0.177,8.25
11.8625,-0.06981,0.04189,0.79238,0.00000,0.00000,0.00000,48,3,62,-4,41,7,65,36,ok,2,0,0.003,12,0.61,0.90,8.93,66,0.190,8.25
11.8850,-0.13614,0.05411,0.78191,0.00000,0.00000,0.00000,48,3,61,-6,42,7,66,35,ok,2,0,0.003,12,1.01,-1.48,10.04,67,0.000,8.25
11.8884,-0.13614,0.05411,0.78191,0.00000,0.00000,0.00000,49,3,60,-8,43,6,68,33,ok,2,0,0.003,12,1.01,-1.48,10.04,67,0.013,8.25
11.9008,-0.13614,0.05411,0.78191,0.00000,0.00000,0.00000,50,3,58,-8,44,7,70,27,ok,2,0,0.003,12,1.01,-1.48,10.04,67,0.026,8.25
11.9210,-0.13614,0.05411,0.78191,0.00000,0.00000,0.00000,50,3,55,-9,45,7,71,24,ok,2,0,0.003,12,1.01,-1.48,10.04,67,0.039,8.25
11.9258,-0.13614,0.05411,0.78191,0.00000,0.00000,0.00000,50,3,53,-9,46,7,73,21,ok,2,0,0.003,12,1.01,-1.48,10.04,67,0.051,8.25
11.9384,-0.13614,0.05411,0.78191,0.00000,0.00000,0.00000,50,5,51,-10,47,7,73,21,ok,2,0,0.003,12,1.01,-1.48,10.04,67,0.064,8.25
11.9610,-0.13614,0.05411,0.78191,0.00000,0.00000,0.00000,51,5,48,-10,47,7,73,19,ok,2,0,0.003,12,1.01,-1.48,10.04,67,0.076,8.25
11.9644,-0.13614,0.05411,0.78191,0.00000,0.00000,0.00000,52,5,46,-10,49,7,73,15,ok,2,0,0.003,12,1.01,-1.48,10.04,67,0.089,8.25
11.9769,-0.13614,0.05411,0.78191,0.00000,0.00000,0.00000,52,5,44,-9,49,7,72,12,ok,2,0,0.003,12,1.01,-1.48,10.04,67,0.102,8.25
11.9970,-0.13614,0.05411,0.78191,0.00000,0.00000,0.00000,52,6,41,-10,50,7,72,11,ok,2,0,0.003,12,1.01,-1.48,10.04,67,0.114,8.25
12.0020,-0.13614,0.05411,0.78191,0.00000,0.00000,0.00000,53,6,38,-10,51,7,71,7,ok,2,0,0.003,12,1.01,-1.48,10.04,67,0.127,8.25
12.0144,-0.13614,0.05411,0.78191,0.00000,0.00000,0.00000,53,7,36,-9,52,6,71,6,ok,2,0,0.003,12,1.01,-1.48,10.04,67,0.140,8.25
12.0370,-0.13614,0.05411,0.78191,0.00000,0.00000,0.00000,54,7,33,-9,52,7,70,4,ok,2,0,0.003,12,1.01,-1.48,10.04,67,0.152,8.25
12.0402,-0.13614,0.05411,0.78191,0.00000,0.00000,0.00000,54,8,30,-7,53,7,68,2,ok,2,0,0.003,12,1.01,-1.48,10.04,67,0.165,8.25
12.0528,-0.13614,0.05411,0.78191,0.00000,0.00000,0.00000,54,8,27,-6,54,8,66,2,ok,2,0,0.003,12,1.01,-1.48,10.04,67,0.178,8.25
12.0771,-0.13614,0.05411,0.78191,0.00000,0.00000,0.00000,54,9,24,-5,55,8,65,0,ok,2,0,0.003,12,1.01,-1.48,10.04,67,0.191,8.25
12.0805,-0.02967,0.00524,0.76969,0.00000,0.00000,0.00000,55,10,20,-2,56,8,64,-2,ok,2,0,0.003,12,0.54,-0.11,10.17,68,0.000,8.25
12.0930,-0.02967,0.00524,0.76969,0.00000,0.00000,0.00000,55,10,18,-1,58,6,62,-3,ok,2,0,0.003,12,0.54,-0.11,10.17,68,0.013,8.25
12.1130,-0.02967,0.00524,0.76969,0.00000,0.00000,0.00000,56,10,18,0,58,7,60,-4,ok,2,0,0.003,12,0.54,-0.11,10.17,68,0.025,8.25
12.1182,-0.02967,0.00524,0.76969,0.00000,0.00000,0.00000,56,11,16,2,59,8,58,-4,ok,2,0,0.003,12,0.54,-0.11,10.17,68,0.038,8.25
12.1304,-0.02967,0.00524,0.76969,0.00000,0.00000,0.00000,56,11,15,5,60,9,55,-5,ok,2,0,0.003,12,0.54,-0.11,10.17,68,0.050,8.25
12.1530,-0.02967,0.00524,0.76969,0.00000,0.00000,0.00000,56,13,13,8,60,9,53,-6,ok,2,0,0.003,12,0.54,-0.11,10.17,68,0.063,8.25
12.1563,-0.02967,0.00524,0.76969,0.00000,0.00000,0.00000,56,13,12,11,60,9,50,-5,ok,2,0,0.003,12,0.54,-0.11,10.17,68,0.076,8.25
12.1691,-0.02967,0.00524,0.76969,0.00000,0.00000,0.00000,56,14,14,11,60,9,48,-5,ok,2,0,0.003,12,0.54,-0.11,10.17,68,0.089,8.25
12.1890,-0.02967,0.00524,0.76969,0.00000,0.00000,0.00000,56,14,15,10,61,10,46,-5,ok,2,0,0.003,12,0.54,-0.11,10.17,68,0.101,8.25
12.1939,-0.02967,0.00524,0.76969,0.00000,0.00000,0.00000,56,15,17,10,61,11,42,-4,ok,2,0,0.003,12,0.54,-0.11,10.17,68,0.114,8.25
12.2064,-0.02967,0.00524,0.76969,0.00000,0.00000,0.00000,56,16,18,9,61,12,40,-4,ok,2,0,0.003,12,0.54,-0.11,10.17,68,0.126,8.25
12.2290,-0.02967,0.00524,0.76969,0.00000,0.00000,0.00000,56,16,19,8,61,12,37,-3,ok,2,0,0.003,12,0.54,-0.11,10.17,68,0.139,8.25
12.2322,-0.02967,0.00524,0.76969,0.00000,0.00000,0.00000,56,16,21,8,62,13,35,-3,ok,2,0,0.003,12,0.54,-0.11,10.17,68,0.152,8.25
12.2451,-0.02967,0.00524,0.76969,0.00000,0.00000,0.00000,56,17,21,7,62,14,31,-1,ok,2,0,0.003,12,0.54,-0.11,10.17,68,0.165,8.25
