# run_gait log  cmd_fwd=0.100 hz=80.0 fw_balance=off policy_yaw_sign=-1
t,roll,pitch,yaw,gx,gy,gz,j0,j1,j2,j3,j4,j5,j6,j7,guard_state,hottest_j,hottest_tier,hottest_frac,duty_s,ax,ay,az,imu_n,imu_age_s,volt
0.0371,-0.02443,0.01571,0.00000,0.00000,0.00000,0.00000,36,0,57,10,60,-3,54,8,ok,3,0,0.000,0,0.19,-0.24,10.01,9,0.028,nan
0.0419,-0.02443,0.01571,0.00000,0.00000,0.00000,0.00000,34,1,59,10,59,-4,56,6,ok,2,0,0.000,0,0.19,-0.24,10.01,9,0.050,nan
0.0548,-0.02443,0.01571,0.00000,0.00000,0.00000,0.00000,34,4,59,11,56,-5,56,8,ok,4,0,0.000,0,0.19,-0.24,10.01,9,0.062,8.24
0.0770,-0.02443,0.01571,0.00000,0.00000,0.00000,0.00000,33,6,60,12,55,-6,57,8,ok,4,0,0.000,0,0.19,-0.24,10.01,9,0.075,8.24
0.0817,-0.02443,0.01571,0.00000,0.00000,0.00000,0.00000,32,10,59,13,52,-5,57,9,ok,4,0,0.000,0,0.19,-0.24,10.01,9,0.090,8.24
0.0941,-0.02443,0.01571,0.00000,0.00000,0.00000,0.00000,31,12,60,13,50,-5,58,10,ok,4,0,0.000,0,0.19,-0.24,10.01,9,0.102,8.24
0.1171,-0.02443,0.01571,0.00000,0.00000,0.00000,0.00000,32,13,60,14,47,-5,59,11,ok,4,0,0.000,0,0.19,-0.24,10.01,9,0.115,8.24
0.1213,-0.02443,0.01571,0.00000,0.00000,0.00000,0.00000,32,13,60,15,44,-4,59,11,ok,4,0,0.000,0,0.19,-0.24,10.01,9,0.130,8.24
0.1331,-0.02443,0.01571,0.00000,0.00000,0.00000,0.00000,33,12,61,15,42,-4,60,12,ok,4,0,0.000,0,0.19,-0.24,10.01,9,0.142,8.24
0.1530,-0.02443,0.01571,0.00000,0.00000,0.00000,0.00000,34,11,60,16,39,-3,60,12,ok,4,0,0.000,0,0.19,-0.24,10.01,9,0.155,8.24
0.1583,-0.03316,-0.07156,-0.01047,0.00000,0.00000,0.00000,34,11,61,17,36,-2,61,13,ok,4,0,0.000,0,-0.99,0.41,8.93,10,0.000,8.24
0.1706,-0.03316,-0.07156,-0.01047,0.00000,0.00000,0.00000,34,9,61,17,32,-1,61,14,ok,4,0,0.000,0,-0.99,0.41,8.93,10,0.013,8.24
0.1929,-0.03316,-0.07156,-0.01047,0.00000,0.00000,0.00000,34,9,61,18,30,1,62,15,ok,4,0,0.000,0,-0.99,0.41,8.93,10,0.025,8.24
0.1962,-0.03316,-0.07156,-0.01047,0.00000,0.00000,0.00000,36,8,62,19,28,2,62,16,ok,4,0,0.000,0,-0.99,0.41,8.93,10,0.038,8.24
0.2088,-0.03316,-0.07156,-0.01047,0.00000,0.00000,0.00000,36,7,63,21,25,5,63,16,ok,4,0,0.000,0,-0.99,0.41,8.93,10,0.051,8.24
0.2289,-0.03316,-0.07156,-0.01047,0.00000,0.00000,0.00000,37,7,63,21,23,8,64,17,ok,4,0,0.000,0,-0.99,0.41,8.93,10,0.063,8.24
0.2338,-0.03316,-0.07156,-0.01047,0.00000,0.00000,0.00000,38,6,63,22,22,11,64,18,ok,4,0,0.000,0,-0.99,0.41,8.93,10,0.076,8.24
0.2464,-0.03316,-0.07156,-0.01047,0.00000,0.00000,0.00000,38,6,62,23,21,14,64,18,ok,4,0,0.000,0,-0.99,0.41,8.93,10,0.088,8.24
0.2689,-0.03316,-0.07156,-0.01047,0.00000,0.00000,0.00000,39,6,62,26,22,13,65,19,ok,4,0,0.000,0,-0.99,0.41,8.93,10,0.101,8.24
0.2721,-0.03316,-0.07156,-0.01047,0.00000,0.00000,0.00000,40,5,62,28,22,14,65,20,ok,4,0,0.000,0,-0.99,0.41,8.93,10,0.114,8.24
0.2847,-0.03316,-0.07156,-0.01047,0.00000,0.00000,0.00000,40,5,63,26,24,12,65,21,ok,4,0,0.000,0,-0.99,0.41,8.93,10,0.127,8.24
0.3049,-0.03316,-0.07156,-0.01047,0.00000,0.00000,0.00000,40,4,66,23,25,11,65,23,ok,4,0,0.000,0,-0.99,0.41,8.93,10,0.139,8.24
0.3098,-0.03316,-0.07156,-0.01047,0.00000,0.00000,0.00000,42,4,69,20,26,11,65,24,ok,4,0,0.000,0,-0.99,0.41,8.93,10,0.152,8.24
0.3224,-0.03316,-0.07156,-0.01047,0.00000,0.00000,0.00000,42,4,70,16,27,11,65,25,ok,4,0,0.000,0,-0.99,0.41,8.93,10,0.164,8.24
0.3449,-0.03316,-0.07156,-0.01047,0.00000,0.00000,0.00000,42,4,71,14,28,9,65,27,ok,4,0,0.000,0,-0.99,0.41,8.93,10,0.177,8.24
0.3480,-0.03316,-0.07156,-0.01047,0.00000,0.00000,0.00000,44,3,71,13,30,10,66,28,ok,4,0,0.000,0,-0.99,0.41,8.93,10,0.190,8.24
0.3611,-0.14486,-0.00349,0.03316,0.00000,0.00000,0.00000,44,3,71,10,31,10,65,30,ok,4,0,0.000,0,-0.32,-1.79,10.15,11,0.000,8.24
0.3809,-0.14486,-0.00349,0.03316,0.00000,0.00000,0.00000,45,3,71,7,32,9,65,31,ok,4,0,0.000,0,-0.32,-1.79,10.15,11,0.013,8.24
0.3858,-0.14486,-0.00349,0.03316,0.00000,0.00000,0.00000,46,3,70,5,33,9,65,32,ok,4,0,0.000,0,-0.32,-1.79,10.15,11,0.025,8.24
0.3982,-0.14486,-0.00349,0.03316,0.00000,0.00000,0.00000,46,3,69,2,35,8,65,34,ok,4,0,0.000,0,-0.32,-1.79,10.15,11,0.038,8.24
0.4209,-0.14486,-0.00349,0.03316,0.00000,0.00000,0.00000,47,2,67,0,36,8,65,35,ok,4,0,0.000,0,-0.32,-1.79,10.15,11,0.050,8.24
0.4241,-0.14486,-0.00349,0.03316,0.00000,0.00000,0.00000,48,2,66,-1,38,7,64,36,ok,4,0,0.000,0,-0.32,-1.79,10.15,11,0.063,8.24
0.4370,-0.14486,-0.00349,0.03316,0.00000,0.00000,0.00000,48,2,64,-2,39,7,65,36,ok,4,0,0.000,0,-0.32,-1.79,10.15,11,0.076,8.24
0.4569,-0.14486,-0.00349,0.03316,0.00000,0.00000,0.00000,48,3,62,-4,41,7,66,35,ok,4,0,0.000,0,-0.32,-1.79,10.15,11,0.089,8.24
0.4617,-0.14486,-0.00349,0.03316,0.00000,0.00000,0.00000,49,3,61,-6,42,7,68,33,ok,4,0,0.000,0,-0.32,-1.79,10.15,11,0.101,8.24
0.4744,-0.14486,-0.00349,0.03316,0.00000,0.00000,0.00000,50,4,59,-7,44,6,70,27,ok,4,0,0.000,0,-0.32,-1.79,10.15,11,0.114,8.24
0.4969,-0.14486,-0.00349,0.03316,0.00000,0.00000,0.00000,50,3,56,-8,44,6,71,24,ok,4,0,0.000,0,-0.32,-1.79,10.15,11,0.126,8.24
0.5001,-0.14486,-0.00349,0.03316,0.00000,0.00000,0.00000,51,4,54,-9,46,6,73,20,ok,4,0,0.000,0,-0.32,-1.79,10.15,11,0.139,8.24
0.5128,-0.14486,-0.00349,0.03316,0.00000,0.00000,0.00000,51,6,52,-11,47,6,73,20,ok,4,0,0.000,0,-0.32,-1.79,10.15,11,0.152,8.24
0.5329,-0.14486,-0.00349,0.03316,0.00000,0.00000,0.00000,52,6,49,-10,48,7,73,17,ok,4,0,0.000,1,-0.32,-1.79,10.15,11,0.165,8.24
0.5380,-0.14486,-0.00349,0.03316,0.00000,0.00000,0.00000,52,6,47,-10,49,7,73,14,ok,4,0,0.000,1,-0.32,-1.79,10.15,11,0.177,8.24
0.5503,-0.14486,-0.00349,0.03316,0.00000,0.00000,0.00000,52,6,45,-10,50,7,72,11,ok,4,0,0.000,1,-0.32,-1.79,10.15,11,0.190,8.24
0.5729,-0.07156,-0.05061,0.01745,0.00000,0.00000,0.00000,52,7,42,-10,51,7,72,10,ok,4,0,0.000,1,-0.83,-0.71,10.60,12,0.000,8.24
0.5761,-0.07156,-0.05061,0.01745,0.00000,0.00000,0.00000,54,7,40,-11,52,7,72,6,ok,4,0,0.000,1,-0.83,-0.71,10.60,12,0.013,8.24
0.5890,-0.07156,-0.05061,0.01745,0.00000,0.00000,0.00000,54,7,37,-10,53,6,71,4,ok,4,0,0.000,1,-0.83,-0.71,10.60,12,0.026,8.24
0.6089,-0.07156,-0.05061,0.01745,0.00000,0.00000,0.00000,54,7,34,-9,53,7,70,3,ok,4,0,0.000,1,-0.83,-0.71,10.60,12,0.039,8.24
0.6140,-0.07156,-0.05061,0.01745,0.00000,0.00000,0.00000,54,8,31,-8,54,7,68,1,ok,4,0,0.000,1,-0.83,-0.71,10.60,12,0.051,8.24
0.6263,-0.07156,-0.05061,0.01745,0.00000,0.00000,0.00000,54,9,28,-7,54,8,66,0,ok,4,0,0.000,1,-0.83,-0.71,10.60,12,0.064,8.24
0.6489,-0.07156,-0.05061,0.01745,0.00000,0.00000,0.00000,55,10,25,-5,55,8,65,-2,ok,2,0,0.000,1,-0.83,-0.71,10.60,12,0.076,8.24
0.6521,-0.07156,-0.05061,0.01745,0.00000,0.00000,0.00000,56,11,21,-3,56,8,64,-3,ok,2,0,0.000,1,-0.83,-0.71,10.60,12,0.089,8.24
0.6648,-0.07156,-0.05061,0.01745,0.00000,0.00000,0.00000,56,11,19,-1,58,6,62,-5,ok,2,0,0.000,1,-0.83,-0.71,10.60,12,0.102,8.24
0.6849,-0.07156,-0.05061,0.01745,0.00000,0.00000,0.00000,56,11,18,0,58,8,60,-5,ok,2,0,0.000,1,-0.83,-0.71,10.60,12,0.114,8.24
0.6897,-0.07156,-0.05061,0.01745,0.00000,0.00000,0.00000,56,11,16,3,59,9,58,-6,ok,2,0,0.000,1,-0.83,-0.71,10.60,12,0.127,8.24
0.7022,-0.07156,-0.05061,0.01745,0.00000,0.00000,0.00000,56,11,15,6,59,9,55,-6,ok,2,0,0.000,1,-0.83,-0.71,10.60,12,0.140,8.24
0.7249,-0.07156,-0.05061,0.01745,0.00000,0.00000,0.00000,56,12,13,10,59,10,53,-7,ok,2,0,0.000,1,-0.83,-0.71,10.60,12,0.152,8.24
0.7283,-0.07156,-0.05061,0.01745,0.00000,0.00000,0.00000,56,12,12,12,60,10,50,-6,ok,2,0,0.000,1,-0.83,-0.71,10.60,12,0.165,8.24
0.7408,-0.07156,-0.05061,0.01745,0.00000,0.00000,0.00000,56,13,14,12,60,10,47,-5,ok,2,0,0.000,1,-0.83,-0.71,10.60,12,0.178,8.24
0.7609,-0.07156,-0.05061,0.01745,0.00000,0.00000,0.00000,56,14,15,12,60,11,45,-6,ok,2,0,0.000,1,-0.83,-0.71,10.60,12,0.191,8.24
0.7660,-0.02269,0.05934,-0.02443,0.00000,0.00000,0.00000,56,14,17,10,60,11,42,-5,ok,2,0,0.000,1,-0.44,-0.05,10.05,13,0.000,8.24
0.7783,-0.02269,0.05934,-0.02443,0.00000,0.00000,0.00000,56,15,19,9,61,12,40,-4,ok,2,0,0.000,1,-0.44,-0.05,10.05,13,0.013,8.24
0.8009,-0.02269,0.05934,-0.02443,0.00000,0.00000,0.00000,57,16,20,9,60,12,36,-3,ok,2,0,0.000,1,-0.44,-0.05,10.05,13,0.025,8.24
0.8043,-0.02269,0.05934,-0.02443,0.00000,0.00000,0.00000,57,17,21,8,61,13,34,-3,ok,2,0,0.000,1,-0.44,-0.05,10.05,13,0.038,8.24
0.8168,-0.02269,0.05934,-0.02443,0.00000,0.00000,0.00000,57,18,22,7,62,14,30,-1,ok,2,0,0.000,1,-0.44,-0.05,10.05,13,0.051,8.24
0.8369,-0.02269,0.05934,-0.02443,0.00000,0.00000,0.00000,58,19,23,6,63,14,29,0,ok,2,0,0.000,1,-0.44,-0.05,10.05,13,0.064,8.24
0.8418,-0.02269,0.05934,-0.02443,0.00000,0.00000,0.00000,58,20,24,5,63,15,27,1,ok,2,0,0.000,1,-0.44,-0.05,10.05,13,0.076,8.24
0.8543,-0.02269,0.05934,-0.02443,0.00000,0.00000,0.00000,58,21,24,4,63,16,25,5,ok,2,0,0.000,1,-0.44,-0.05,10.05,13,0.088,8.24
0.8769,-0.02269,0.05934,-0.02443,0.00000,0.00000,0.00000,58,22,25,4,63,17,24,7,ok,2,0,0.000,1,-0.44,-0.05,10.05,13,0.101,8.24
0.8801,-0.02269,0.05934,-0.02443,0.00000,0.00000,0.00000,58,23,26,3,64,17,23,11,ok,2,0,0.000,1,-0.44,-0.05,10.05,13,0.114,8.24
0.8930,-0.02269,0.05934,-0.02443,0.00000,0.00000,0.00000,57,26,27,2,64,19,22,13,ok,2,0,0.000,1,-0.44,-0.05,10.05,13,0.127,8.24
0.9129,-0.02269,0.05934,-0.02443,0.00000,0.00000,0.00000,57,26,27,2,64,20,25,12,ok,2,0,0.000,1,-0.44,-0.05,10.05,13,0.140,8.24
0.9178,-0.02269,0.05934,-0.02443,0.00000,0.00000,0.00000,58,25,29,2,64,21,25,11,ok,2,0,0.000,1,-0.44,-0.05,10.05,13,0.152,8.24
0.9302,-0.02269,0.05934,-0.02443,0.00000,0.00000,0.00000,58,21,30,2,65,22,26,10,ok,2,0,0.000,1,-0.44,-0.05,10.05,13,0.165,8.24
0.9569,-0.02269,0.05934,-0.02443,0.00000,0.00000,0.00000,60,18,31,1,64,23,27,9,ok,2,0,0.000,1,-0.44,-0.05,10.05,13,0.177,8.24
0.9604,-0.09948,0.06807,0.07505,0.00000,0.00000,0.00000,60,13,33,2,64,25,28,10,ok,2,0,0.000,1,0.13,-1.10,8.90,14,0.000,8.24
0.9730,-0.09948,0.06807,0.07505,0.00000,0.00000,0.00000,60,11,34,2,65,25,29,9,ok,2,0,0.000,1,0.13,-1.10,8.90,14,0.013,8.24
0.9929,-0.09948,0.06807,0.07505,0.00000,0.00000,0.00000,60,10,36,2,64,27,31,9,ok,2,0,0.000,1,0.13,-1.10,8.90,14,0.025,8.24
0.9978,-0.09948,0.06807,0.07505,0.00000,0.00000,0.00000,60,7,37,2,63,28,33,9,ok,2,0,0.000,1,0.13,-1.10,8.90,14,0.038,8.24
1.0102,-0.09948,0.06807,0.07505,0.00000,0.00000,0.00000,60,4,38,3,64,30,33,9,ok,2,0,0.000,1,0.13,-1.10,8.90,14,0.050,8.24
1.0329,-0.09948,0.06807,0.07505,0.00000,0.00000,0.00000,60,1,39,3,64,31,35,8,ok,2,0,0.000,1,0.13,-1.10,8.90,14,0.063,8.24
1.0363,-0.09948,0.06807,0.07505,0.00000,0.00000,0.00000,59,-1,41,3,64,33,36,8,ok,2,0,0.000,1,0.13,-1.10,8.90,14,0.076,8.24
1.0488,-0.09948,0.06807,0.07505,0.00000,0.00000,0.00000,58,-3,42,3,64,35,37,8,ok,2,0,0.000,1,0.13,-1.10,8.90,14,0.089,8.24
1.0689,-0.09948,0.06807,0.07505,0.00000,0.00000,0.00000,58,-4,44,3,64,35,38,8,ok,2,0,0.000,1,0.13,-1.10,8.90,14,0.101,8.24
1.0739,-0.09948,0.06807,0.07505,0.00000,0.00000,0.00000,56,-5,44,3,66,35,39,8,ok,2,0,0.000,1,0.13,-1.10,8.90,14,0.114,8.24
1.0864,-0.09948,0.06807,0.07505,0.00000,0.00000,0.00000,56,-7,45,3,68,33,41,7,ok,2,0,0.000,1,0.13,-1.10,8.90,14,0.126,8.24
1.1089,-0.09948,0.06807,0.07505,0.00000,0.00000,0.00000,56,-8,46,3,69,28,42,7,ok,2,0,0.000,1,0.13,-1.10,8.90,14,0.139,8.24
1.1123,-0.09948,0.06807,0.07505,0.00000,0.00000,0.00000,54,-9,48,4,71,24,44,7,ok,2,0,0.000,1,0.13,-1.10,8.90,14,0.152,8.24
1.1248,-0.09948,0.06807,0.07505,0.00000,0.00000,0.00000,53,-10,49,4,73,21,44,7,ok,2,0,0.000,1,0.13,-1.10,8.90,14,0.165,8.24
1.1449,-0.09948,0.06807,0.07505,0.00000,0.00000,0.00000,52,-10,49,4,74,20,45,7,ok,2,0,0.000,1,0.13,-1.10,8.90,14,0.177,8.24
1.1497,-0.09948,0.06807,0.07505,0.00000,0.00000,0.00000,51,-11,49,6,74,18,46,7,ok,2,0,0.000,1,0.13,-1.10,8.90,14,0.190,8.24
1.1625,-0.09948,0.06807,0.07505,0.00000,0.00000,0.00000,50,-11,51,6,74,14,47,8,ok,2,0,0.000,1,0.13,-1.10,8.90,14,0.202,8.24
1.1849,-0.00873,0.02094,0.07505,0.00000,0.00000,0.00000,48,-11,52,6,73,11,48,8,ok,2,0,0.000,1,0.18,-0.11,10.76,15,0.000,8.24
1.1880,-0.00873,0.02094,0.07505,0.00000,0.00000,0.00000,47,-10,53,6,73,10,49,8,ok,2,0,0.000,1,0.18,-0.11,10.76,15,0.013,8.24
1.2008,-0.00873,0.02094,0.07505,0.00000,0.00000,0.00000,46,-11,53,6,72,7,50,9,ok,2,0,0.000,1,0.18,-0.11,10.76,15,0.026,8.24
1.2209,-0.00873,0.02094,0.07505,0.00000,0.00000,0.00000,44,-11,55,6,72,5,50,8,ok,2,0,0.000,1,0.18,-0.11,10.76,15,0.038,8.24
1.2259,-0.00873,0.02094,0.07505,0.00000,0.00000,0.00000,43,-9,56,6,71,4,51,9,ok,2,0,0.000,1,0.18,-0.11,10.76,15,0.051,8.24
1.2382,-0.00873,0.02094,0.07505,0.00000,0.00000,0.00000,42,-8,57,6,69,1,52,7,ok,2,0,0.000,1,0.18,-0.11,10.76,15,0.063,8.24
1.2609,-0.00873,0.02094,0.07505,0.00000,0.00000,0.00000,40,-7,57,7,66,2,52,8,ok,2,0,0.000,1,0.18,-0.11,10.76,15,0.076,8.24
1.2641,-0.00873,0.02094,0.07505,0.00000,0.00000,0.00000,38,-5,57,7,65,-1,53,8,ok,2,0,0.000,1,0.18,-0.11,10.76,15,0.089,8.24
1.2770,-0.00873,0.02094,0.07505,0.00000,0.00000,0.00000,37,-3,58,7,64,-3,54,9,ok,2,0,0.000,1,0.18,-0.11,10.76,15,0.102,8.24
1.2969,-0.00873,0.02094,0.07505,0.00000,0.00000,0.00000,35,-1,59,9,61,-4,55,8,ok,2,0,0.000,1,0.18,-0.11,10.76,15,0.115,8.24
1.3018,-0.00873,0.02094,0.07505,0.00000,0.00000,0.00000,35,-1,60,10,60,-5,55,8,ok,2,0,0.000,1,0.18,-0.11,10.76,15,0.127,8.24
1.3143,-0.00873,0.02094,0.07505,0.00000,0.00000,0.00000,34,0,60,10,58,-6,57,6,ok,2,0,0.000,1,0.18,-0.11,10.76,15,0.140,8.24
1.3369,-0.00873,0.02094,0.07505,0.00000,0.00000,0.00000,33,2,61,11,56,-6,57,7,ok,2,0,0.000,1,0.18,-0.11,10.76,15,0.152,8.24
1.3402,-0.00873,0.02094,0.07505,0.00000,0.00000,0.00000,32,5,61,11,54,-7,58,8,ok,2,0,0.000,1,0.18,-0.11,10.76,15,0.165,8.24
1.3527,-0.00873,0.02094,0.07505,0.00000,0.00000,0.00000,32,8,61,12,51,-6,59,8,ok,2,0,0.000,1,0.18,-0.11,10.76,15,0.178,8.24
1.3729,-0.00873,0.02094,0.07505,0.00000,0.00000,0.00000,31,11,61,12,48,-6,59,9,ok,2,0,0.000,1,0.18,-0.11,10.76,15,0.190,8.24
1.3781,-0.08378,-0.03491,0.09076,0.00000,0.00000,0.00000,32,11,61,13,46,-6,60,10,ok,4,0,0.000,1,-0.18,-0.88,10.56,16,0.000,8.24
1.3902,-0.08378,-0.03491,0.09076,0.00000,0.00000,0.00000,32,10,61,14,43,-5,60,10,ok,4,0,0.000,1,-0.18,-0.88,10.56,16,0.013,8.24
1.4129,-0.08378,-0.03491,0.09076,0.00000,0.00000,0.00000,33,9,62,14,40,-5,61,11,ok,4,0,0.000,1,-0.18,-0.88,10.56,16,0.025,8.24
1.4160,-0.08378,-0.03491,0.09076,0.00000,0.00000,0.00000,34,9,62,15,37,-4,61,12,ok,4,0,0.000,1,-0.18,-0.88,10.56,16,0.038,8.24
1.4288,-0.08378,-0.03491,0.09076,0.00000,0.00000,0.00000,34,8,62,15,34,-3,62,13,ok,4,0,0.000,1,-0.18,-0.88,10.56,16,0.051,8.24
1.4489,-0.08378,-0.03491,0.09076,0.00000,0.00000,0.00000,35,7,63,16,31,-2,62,13,ok,4,0,0.000,1,-0.18,-0.88,10.56,16,0.064,8.24
1.4540,-0.08378,-0.03491,0.09076,0.00000,0.00000,0.00000,36,7,63,17,29,0,63,14,ok,4,0,0.000,1,-0.18,-0.88,10.56,16,0.076,8.24
1.4662,-0.08378,-0.03491,0.09076,0.00000,0.00000,0.00000,36,6,64,18,28,1,63,15,ok,4,0,0.000,1,-0.18,-0.88,10.56,16,0.089,8.24
1.4889,-0.08378,-0.03491,0.09076,0.00000,0.00000,0.00000,37,5,64,19,25,4,63,15,ok,4,0,0.000,1,-0.18,-0.88,10.56,16,0.101,8.24
1.4921,-0.08378,-0.03491,0.09076,0.00000,0.00000,0.00000,38,4,64,21,24,7,63,17,ok,4,0,0.000,1,-0.18,-0.88,10.56,16,0.114,8.24
1.5050,-0.08378,-0.03491,0.09076,0.00000,0.00000,0.00000,38,4,64,22,23,11,63,18,ok,4,0,0.000,1,-0.18,-0.88,10.56,16,0.127,8.24
1.5249,-0.08378,-0.03491,0.09076,0.00000,0.00000,0.00000,38,4,64,23,22,14,64,18,ok,4,0,0.000,1,-0.18,-0.88,10.56,16,0.140,8.24
1.5298,-0.08378,-0.03491,0.09076,0.00000,0.00000,0.00000,39,4,63,25,24,13,64,19,ok,4,0,0.000,1,-0.18,-0.88,10.56,16,0.152,8.24
1.5422,-0.08378,-0.03491,0.09076,0.00000,0.00000,0.00000,40,3,63,27,24,13,64,20,ok,4,0,0.000,1,-0.18,-0.88,10.56,16,0.165,8.24
1.5649,-0.08378,-0.03491,0.09076,0.00000,0.00000,0.00000,40,3,65,25,25,11,64,21,ok,4,0,0.000,2,-0.18,-0.88,10.56,16,0.177,8.24
1.5681,-0.08378,-0.03491,0.09076,0.00000,0.00000,0.00000,41,2,67,22,26,10,65,22,ok,4,0,0.000,2,-0.18,-0.88,10.56,16,0.190,8.24
1.5810,-0.12741,-0.00698,0.12566,0.00000,0.00000,0.00000,42,2,70,19,27,10,65,23,ok,4,0,0.000,2,-1.06,-1.30,9.64,17,0.000,8.24
1.6009,-0.12741,-0.00698,0.12566,0.00000,0.00000,0.00000,42,2,71,15,29,10,64,24,ok,4,0,0.000,2,-1.06,-1.30,9.64,17,0.013,8.24
1.6058,-0.12741,-0.00698,0.12566,0.00000,0.00000,0.00000,43,2,71,13,30,8,64,26,ok,4,0,0.000,2,-1.06,-1.30,9.64,17,0.025,8.24
1.6183,-0.12741,-0.00698,0.12566,0.00000,0.00000,0.00000,44,2,71,12,32,8,65,27,ok,4,0,0.000,2,-1.06,-1.30,9.64,17,0.038,8.24
1.6409,-0.12741,-0.00698,0.12566,0.00000,0.00000,0.00000,44,2,70,9,32,8,64,29,ok,4,0,0.000,2,-1.06,-1.30,9.64,17,0.050,8.24
1.6441,-0.12741,-0.00698,0.12566,0.00000,0.00000,0.00000,45,3,70,6,35,8,64,30,ok,4,0,0.000,2,-1.06,-1.30,9.64,17,0.063,8.24
1.6567,-0.12741,-0.00698,0.12566,0.00000,0.00000,0.00000,46,3,69,3,36,8,64,32,ok,4,0,0.000,2,-1.06,-1.30,9.64,17,0.076,8.24
1.6769,-0.12741,-0.00698,0.12566,0.00000,0.00000,0.00000,46,2,67,1,37,8,64,33,ok,4,0,0.000,2,-1.06,-1.30,9.64,17,0.088,8.24
1.6817,-0.12741,-0.00698,0.12566,0.00000,0.00000,0.00000,47,2,66,-1,38,8,63,35,ok,4,0,0.000,2,-1.06,-1.30,9.64,17,0.101,8.24
1.6942,-0.12741,-0.00698,0.12566,0.00000,0.00000,0.00000,48,3,64,-3,39,8,63,36,ok,4,0,0.000,2,-1.06,-1.30,9.64,17,0.113,8.24
1.7169,-0.12741,-0.00698,0.12566,0.00000,0.00000,0.00000,48,3,62,-4,41,7,64,36,ok,4,0,0.001,2,-1.06,-1.30,9.64,17,0.126,8.24
1.7200,-0.12741,-0.00698,0.12566,0.00000,0.00000,0.00000,48,3,61,-6,42,7,65,35,ok,4,0,0.001,2,-1.06,-1.30,9.64,17,0.139,8.24
1.7327,-0.12741,-0.00698,0.12566,0.00000,0.00000,0.00000,49,3,60,-8,43,7,67,33,ok,4,0,0.001,2,-1.06,-1.30,9.64,17,0.152,8.24
1.7529,-0.12741,-0.00698,0.12566,0.00000,0.00000,0.00000,50,4,58,-8,44,7,69,28,ok,4,0,0.001,2,-1.06,-1.30,9.64,17,0.164,8.24
1.7577,-0.12741,-0.00698,0.12566,0.00000,0.00000,0.00000,50,3,56,-9,44,7,70,24,ok,4,0,0.001,2,-1.06,-1.30,9.64,17,0.177,8.24
1.7703,-0.12741,-0.00698,0.12566,0.00000,0.00000,0.00000,50,3,54,-9,46,7,72,21,ok,4,0,0.001,2,-1.06,-1.30,9.64,17,0.190,8.24
1.7929,-0.05934,0.01571,0.11519,0.00000,0.00000,0.00000,50,5,51,-10,47,7,72,21,ok,4,0,0.001,2,-0.14,-0.32,9.64,18,0.000,8.24
1.7963,-0.05934,0.01571,0.11519,0.00000,0.00000,0.00000,51,6,49,-10,47,7,72,19,ok,4,0,0.001,2,-0.14,-0.32,9.64,18,0.013,8.24
1.8088,-0.05934,0.01571,0.11519,0.00000,0.00000,0.00000,52,6,46,-10,48,7,72,15,ok,4,0,0.001,2,-0.14,-0.32,9.64,18,0.026,8.24
1.8289,-0.05934,0.01571,0.11519,0.00000,0.00000,0.00000,52,7,44,-10,49,7,71,12,ok,4,0,0.001,2,-0.14,-0.32,9.64,18,0.039,8.24
1.8338,-0.05934,0.01571,0.11519,0.00000,0.00000,0.00000,52,7,42,-10,50,7,71,11,ok,4,0,0.001,2,-0.14,-0.32,9.64,18,0.051,8.24
1.8464,-0.05934,0.01571,0.11519,0.00000,0.00000,0.00000,53,8,39,-11,51,7,70,7,ok,4,0,0.001,2,-0.14,-0.32,9.64,18,0.064,8.24
1.8689,-0.05934,0.01571,0.11519,0.00000,0.00000,0.00000,54,8,37,-10,52,6,70,6,ok,4,0,0.001,2,-0.14,-0.32,9.64,18,0.076,8.24
1.8721,-0.05934,0.01571,0.11519,0.00000,0.00000,0.00000,54,8,33,-9,52,7,69,4,ok,2,0,0.001,2,-0.14,-0.32,9.64,18,0.089,8.24
1.8848,-0.05934,0.01571,0.11519,0.00000,0.00000,0.00000,54,9,30,-8,53,7,68,2,ok,2,0,0.001,2,-0.14,-0.32,9.64,18,0.102,8.24
1.9049,-0.05934,0.01571,0.11519,0.00000,0.00000,0.00000,54,9,27,-6,54,8,66,2,ok,2,0,0.001,2,-0.14,-0.32,9.64,18,0.115,8.24
1.9098,-0.05934,0.01571,0.11519,0.00000,0.00000,0.00000,54,9,24,-5,55,8,65,0,ok,2,0,0.001,2,-0.14,-0.32,9.64,18,0.127,8.24
1.9222,-0.05934,0.01571,0.11519,0.00000,0.00000,0.00000,55,10,20,-2,56,8,64,-2,ok,2,0,0.001,2,-0.14,-0.32,9.64,18,0.140,8.24
1.9449,-0.05934,0.01571,0.11519,0.00000,0.00000,0.00000,56,10,19,-1,58,6,61,-3,ok,2,0,0.001,2,-0.14,-0.32,9.64,18,0.152,8.24
1.9481,-0.05934,0.01571,0.11519,0.00000,0.00000,0.00000,56,10,18,1,58,7,59,-4,ok,2,0,0.001,2,-0.14,-0.32,9.64,18,0.165,8.24
1.9607,-0.05934,0.01571,0.11519,0.00000,0.00000,0.00000,56,10,16,3,59,8,58,-5,ok,2,0,0.001,2,-0.14,-0.32,9.64,18,0.178,8.24
1.9809,-0.05934,0.01571,0.11519,0.00000,0.00000,0.00000,56,11,15,6,59,8,55,-5,ok,2,0,0.001,2,-0.14,-0.32,9.64,18,0.190,8.24
1.9860,0.01222,0.03316,0.09076,0.00000,0.00000,0.00000,56,12,13,9,59,9,53,-6,ok,2,0,0.001,2,0.93,0.18,8.93,19,0.000,8.24
1.9982,0.01222,0.03316,0.09076,0.00000,0.00000,0.00000,56,12,13,11,60,10,50,-5,ok,2,0,0.001,2,0.93,0.18,8.93,19,0.013,8.24
2.0209,0.01222,0.03316,0.09076,0.00000,0.00000,0.00000,56,13,14,12,60,10,47,-5,ok,2,0,0.001,2,0.93,0.18,8.93,19,0.025,8.24
2.0240,0.01222,0.03316,0.09076,0.00000,0.00000,0.00000,56,14,15,11,61,11,45,-5,ok,2,0,0.001,2,0.93,0.18,8.93,19,0.038,8.24
2.0368,0.01222,0.03316,0.09076,0.00000,0.00000,0.00000,56,14,17,10,61,11,42,-4,ok,2,0,0.001,2,0.93,0.18,8.93,19,0.051,8.24
2.0569,0.01222,0.03316,0.09076,0.00000,0.00000,0.00000,56,15,18,9,61,12,40,-4,ok,2,0,0.001,2,0.93,0.18,8.93,19,0.064,8.24
2.0619,0.01222,0.03316,0.09076,0.00000,0.00000,0.00000,56,16,19,8,61,12,37,-3,ok,2,0,0.001,2,0.93,0.18,8.93,19,0.076,8.24
2.0742,0.01222,0.03316,0.09076,0.00000,0.00000,0.00000,56,17,21,7,62,13,35,-3,ok,2,0,0.001,2,0.93,0.18,8.93,19,0.089,8.24
2.0969,0.01222,0.03316,0.09076,0.00000,0.00000,0.00000,56,18,21,7,62,14,31,-1,ok,2,0,0.001,2,0.93,0.18,8.93,19,0.101,8.24
2.1001,0.01222,0.03316,0.09076,0.00000,0.00000,0.00000,58,19,23,6,63,14,30,0,ok,2,0,0.001,2,0.93,0.18,8.93,19,0.114,8.24
2.1130,0.01222,0.03316,0.09076,0.00000,0.00000,0.00000,58,20,24,5,63,15,27,2,ok,2,0,0.001,2,0.93,0.18,8.93,19,0.127,8.24
2.1329,0.01222,0.03316,0.09076,0.00000,0.00000,0.00000,58,21,24,4,63,16,25,5,ok,2,0,0.001,2,0.93,0.18,8.93,19,0.140,8.24
2.1378,0.01222,0.03316,0.09076,0.00000,0.00000,0.00000,58,22,25,4,63,17,24,7,ok,2,0,0.001,2,0.93,0.18,8.93,19,0.152,8.24
2.1502,0.01222,0.03316,0.09076,0.00000,0.00000,0.00000,58,23,26,3,64,17,23,11,ok,2,0,0.001,2,0.93,0.18,8.93,19,0.165,8.24
2.1729,0.01222,0.03316,0.09076,0.00000,0.00000,0.00000,57,26,27,3,64,19,22,13,ok,2,0,0.001,2,0.93,0.18,8.93,19,0.177,8.24
2.1760,0.01222,0.03316,0.09076,0.00000,0.00000,0.00000,57,26,28,2,64,20,24,12,ok,2,0,0.001,2,0.93,0.18,8.93,19,0.190,8.24
2.1890,-0.07854,0.08378,0.17279,0.00000,0.00000,0.00000,58,25,29,2,64,21,25,12,ok,2,0,0.001,2,0.51,-2.24,9.48,20,0.000,8.24
2.2089,-0.07854,0.08378,0.17279,0.00000,0.00000,0.00000,59,21,30,2,65,22,26,10,ok,2,0,0.001,2,0.51,-2.24,9.48,20,0.013,8.24
2.2138,-0.07854,0.08378,0.17279,0.00000,0.00000,0.00000,60,18,31,2,64,23,27,9,ok,2,0,0.001,2,0.51,-2.24,9.48,20,0.025,8.24
2.2264,-0.07854,0.08378,0.17279,0.00000,0.00000,0.00000,60,13,32,2,64,24,28,10,ok,2,0,0.001,2,0.51,-2.24,9.48,20,0.038,8.24
2.2489,-0.07854,0.08378,0.17279,0.00000,0.00000,0.00000,60,11,33,2,65,25,29,9,ok,2,0,0.001,2,0.51,-2.24,9.48,20,0.050,8.24
2.2520,-0.07854,0.08378,0.17279,0.00000,0.00000,0.00000,60,10,35,2,64,27,30,9,ok,2,0,0.001,2,0.51,-2.24,9.48,20,0.063,8.24
2.2649,-0.07854,0.08378,0.17279,0.00000,0.00000,0.00000,60,7,36,2,64,29,32,9,ok,2,0,0.001,2,0.51,-2.24,9.48,20,0.076,8.24
2.2849,-0.07854,0.08378,0.17279,0.00000,0.00000,0.00000,60,4,38,4,64,30,33,9,ok,2,0,0.001,2,0.51,-2.24,9.48,20,0.089,8.24
2.2897,-0.07854,0.08378,0.17279,0.00000,0.00000,0.00000,60,1,39,4,64,32,35,9,ok,2,0,0.001,2,0.51,-2.24,9.48,20,0.101,8.24
2.3022,-0.07854,0.08378,0.17279,0.00000,0.00000,0.00000,59,-1,41,3,64,34,36,9,ok,2,0,0.001,2,0.51,-2.24,9.48,20,0.113,8.24
2.3249,-0.07854,0.08378,0.17279,0.00000,0.00000,0.00000,58,-3,42,3,64,35,37,9,ok,2,0,0.001,2,0.51,-2.24,9.48,20,0.126,8.24
2.3282,-0.07854,0.08378,0.17279,0.00000,0.00000,0.00000,58,-4,44,3,64,35,38,8,ok,2,0,0.001,2,0.51,-2.24,9.48,20,0.139,8.24
2.3407,-0.07854,0.08378,0.17279,0.00000,0.00000,0.00000,56,-5,44,3,66,35,39,8,ok,2,0,0.001,2,0.51,-2.24,9.48,20,0.152,8.24
2.3609,-0.07854,0.08378,0.17279,0.00000,0.00000,0.00000,56,-6,45,3,68,33,41,7,ok,2,0,0.001,2,0.51,-2.24,9.48,20,0.165,8.24
2.3659,-0.07854,0.08378,0.17279,0.00000,0.00000,0.00000,56,-8,46,3,70,28,42,7,ok,2,0,0.001,2,0.51,-2.24,9.48,20,0.177,8.24
2.3782,-0.07854,0.08378,0.17279,0.00000,0.00000,0.00000,54,-9,47,4,71,24,44,7,ok,2,0,0.001,2,0.51,-2.24,9.48,20,0.190,8.24
2.4009,0.02443,0.02443,0.16406,0.00000,0.00000,0.00000,53,-10,49,3,73,21,44,7,ok,2,0,0.001,2,0.13,0.66,9.47,21,0.000,8.24
2.4040,0.02443,0.02443,0.16406,0.00000,0.00000,0.00000,52,-10,49,3,74,21,45,7,ok,2,0,0.001,2,0.13,0.66,9.47,21,0.013,8.24
2.4169,0.02443,0.02443,0.16406,0.00000,0.00000,0.00000,51,-11,49,5,74,19,46,7,ok,2,0,0.001,2,0.13,0.66,9.47,21,0.026,8.24
2.4369,0.02443,0.02443,0.16406,0.00000,0.00000,0.00000,50,-11,51,6,74,15,47,8,ok,2,0,0.001,2,0.13,0.66,9.47,21,0.039,8.24
2.4417,0.02443,0.02443,0.16406,0.00000,0.00000,0.00000,48,-10,52,5,74,12,48,8,ok,2,0,0.001,2,0.13,0.66,9.47,21,0.051,8.24
2.4542,0.02443,0.02443,0.16406,0.00000,0.00000,0.00000,47,-10,53,5,73,10,49,8,ok,2,0,0.001,2,0.13,0.66,9.47,21,0.063,8.24
2.4769,0.02443,0.02443,0.16406,0.00000,0.00000,0.00000,46,-10,53,6,72,7,49,9,ok,2,0,0.001,2,0.13,0.66,9.47,21,0.076,8.24
2.4802,0.02443,0.02443,0.16406,0.00000,0.00000,0.00000,44,-10,55,6,72,5,50,8,ok,2,0,0.001,2,0.13,0.66,9.47,21,0.089,8.24
2.4930,0.02443,0.02443,0.16406,0.00000,0.00000,0.00000,43,-9,56,6,71,4,51,8,ok,2,0,0.001,2,0.13,0.66,9.47,21,0.102,8.24
2.5129,0.02443,0.02443,0.16406,0.00000,0.00000,0.00000,42,-8,57,6,69,1,52,7,ok,2,0,0.001,2,0.13,0.66,9.47,21,0.114,8.24
2.5178,0.02443,0.02443,0.16406,0.00000,0.00000,0.00000,40,-7,57,7,66,1,52,8,ok,2,0,0.001,2,0.13,0.66,9.47,21,0.127,8.24
2.5304,0.02443,0.02443,0.16406,0.00000,0.00000,0.00000,38,-6,58,7,65,-1,53,8,ok,2,0,0.001,2,0.13,0.66,9.47,21,0.140,8.24
2.5529,0.02443,0.02443,0.16406,0.00000,0.00000,0.00000,37,-4,58,8,64,-2,54,9,ok,2,0,0.001,2,0.13,0.66,9.47,21,0.152,8.24
2.5560,0.02443,0.02443,0.16406,0.00000,0.00000,0.00000,35,-2,59,9,62,-4,55,8,ok,2,0,0.001,3,0.13,0.66,9.47,21,0.165,8.24
2.5688,0.02443,0.02443,0.16406,0.00000,0.00000,0.00000,34,-2,60,11,60,-5,55,8,ok,2,0,0.001,3,0.13,0.66,9.47,21,0.178,8.24
2.5889,0.02443,0.02443,0.16406,0.00000,0.00000,0.00000,34,-1,60,10,59,-5,56,6,ok,2,0,0.001,3,0.13,0.66,9.47,21,0.191,8.24
2.5941,0.06981,-0.00175,0.17104,0.00000,0.00000,0.00000,33,2,61,11,56,-6,57,7,ok,2,0,0.001,3,0.00,-0.24,9.70,22,0.000,8.24
2.6065,0.06981,-0.00175,0.17104,0.00000,0.00000,0.00000,32,5,61,11,54,-7,58,8,ok,2,0,0.001,3,0.00,-0.24,9.70,22,0.013,8.24
2.6289,0.06981,-0.00175,0.17104,0.00000,0.00000,0.00000,32,8,61,12,51,-6,58,8,ok,2,0,0.001,3,0.00,-0.24,9.70,22,0.025,8.24
2.6321,0.06981,-0.00175,0.17104,0.00000,0.00000,0.00000,31,11,61,11,48,-5,59,9,ok,2,0,0.001,3,0.00,-0.24,9.70,22,0.038,8.24
2.6449,0.06981,-0.00175,0.17104,0.00000,0.00000,0.00000,32,11,62,12,46,-5,60,10,ok,2,0,0.001,3,0.00,-0.24,9.70,22,0.051,8.24
2.6649,0.06981,-0.00175,0.17104,0.00000,0.00000,0.00000,32,11,61,13,43,-5,59,10,ok,2,0,0.001,3,0.00,-0.24,9.70,22,0.064,8.24
2.6698,0.06981,-0.00175,0.17104,0.00000,0.00000,0.00000,33,10,62,13,40,-4,60,11,ok,2,0,0.001,3,0.00,-0.24,9.70,22,0.076,8.24
2.6822,0.06981,-0.00175,0.17104,0.00000,0.00000,0.00000,34,9,62,14,37,-4,61,11,ok,4,0,0.001,3,0.00,-0.24,9.70,22,0.089,8.24
2.7049,0.06981,-0.00175,0.17104,0.00000,0.00000,0.00000,34,9,63,14,34,-3,61,12,ok,4,0,0.001,3,0.00,-0.24,9.70,22,0.101,8.24
2.7082,0.06981,-0.00175,0.17104,0.00000,0.00000,0.00000,35,8,63,15,31,-2,61,13,ok,4,0,0.001,3,0.00,-0.24,9.70,22,0.114,8.24
2.7207,0.06981,-0.00175,0.17104,0.00000,0.00000,0.00000,36,7,63,16,29,0,62,14,ok,4,0,0.001,3,0.00,-0.24,9.70,22,0.127,8.24
2.7409,0.06981,-0.00175,0.17104,0.00000,0.00000,0.00000,36,6,64,18,28,1,62,15,ok,4,0,0.001,3,0.00,-0.24,9.70,22,0.140,8.24
2.7458,0.06981,-0.00175,0.17104,0.00000,0.00000,0.00000,37,5,64,19,25,5,63,15,ok,4,0,0.001,3,0.00,-0.24,9.70,22,0.152,8.24
2.7584,0.06981,-0.00175,0.17104,0.00000,0.00000,0.00000,38,5,64,20,24,8,63,16,ok,4,0,0.001,3,0.00,-0.24,9.70,22,0.165,8.24
2.7809,0.06981,-0.00175,0.17104,0.00000,0.00000,0.00000,38,4,64,21,23,11,63,17,ok,4,0,0.001,3,0.00,-0.24,9.70,22,0.177,8.24
2.7840,0.06981,-0.00175,0.17104,0.00000,0.00000,0.00000,38,4,64,23,22,14,63,18,ok,4,0,0.001,3,0.00,-0.24,9.70,22,0.190,8.24
2.7970,-0.02967,0.03142,0.14835,0.00000,0.00000,0.00000,39,3,63,25,24,14,64,18,ok,4,0,0.001,3,-0.10,-0.73,9.77,23,0.000,8.24
2.8169,-0.02967,0.03142,0.14835,0.00000,0.00000,0.00000,40,2,63,27,24,13,64,19,ok,4,0,0.001,3,-0.10,-0.73,9.77,23,0.013,8.24
2.8218,-0.02967,0.03142,0.14835,0.00000,0.00000,0.00000,40,2,65,26,25,11,64,20,ok,4,0,0.001,3,-0.10,-0.73,9.77,23,0.025,8.24
2.8344,-0.02967,0.03142,0.14835,0.00000,0.00000,0.00000,40,1,67,23,26,10,65,21,ok,4,0,0.001,3,-0.10,-0.73,9.77,23,0.038,8.24
2.8569,-0.02967,0.03142,0.14835,0.00000,0.00000,0.00000,41,0,69,19,27,10,65,22,ok,4,0,0.001,3,-0.10,-0.73,9.77,23,0.050,8.24
2.8601,-0.02967,0.03142,0.14835,0.00000,0.00000,0.00000,42,0,70,15,28,10,64,24,ok,4,0,0.001,3,-0.10,-0.73,9.77,23,0.063,8.24
2.8727,-0.02967,0.03142,0.14835,0.00000,0.00000,0.00000,42,0,71,13,30,9,64,26,ok,4,0,0.001,3,-0.10,-0.73,9.77,23,0.076,8.24
2.8929,-0.02967,0.03142,0.14835,0.00000,0.00000,0.00000,44,0,70,13,32,9,65,26,ok,4,0,0.001,3,-0.10,-0.73,9.77,23,0.089,8.24
2.8980,-0.02967,0.03142,0.14835,0.00000,0.00000,0.00000,44,1,70,9,33,9,64,29,ok,4,0,0.001,3,-0.10,-0.73,9.77,23,0.101,8.24
2.9102,-0.02967,0.03142,0.14835,0.00000,0.00000,0.00000,45,1,69,6,35,9,64,30,ok,4,0,0.001,3,-0.10,-0.73,9.77,23,0.114,8.24
2.9329,-0.02967,0.03142,0.14835,0.00000,0.00000,0.00000,46,2,69,3,36,8,64,31,ok,4,0,0.001,3,-0.10,-0.73,9.77,23,0.126,8.24
2.9363,-0.02967,0.03142,0.14835,0.00000,0.00000,0.00000,46,2,67,1,37,9,64,33,ok,4,0,0.001,3,-0.10,-0.73,9.77,23,0.140,8.24
2.9488,-0.02967,0.03142,0.14835,0.00000,0.00000,0.00000,47,2,66,-2,38,8,64,34,ok,4,0,0.001,3,-0.10,-0.73,9.77,23,0.152,8.24
2.9689,-0.02967,0.03142,0.14835,0.00000,0.00000,0.00000,48,2,64,-3,39,8,63,35,ok,4,0,0.001,3,-0.10,-0.73,9.77,23,0.165,8.24
2.9740,-0.02967,0.03142,0.14835,0.00000,0.00000,0.00000,48,2,62,-4,41,7,64,36,ok,4,0,0.001,3,-0.10,-0.73,9.77,23,0.177,8.24
2.9863,-0.02967,0.03142,0.14835,0.00000,0.00000,0.00000,48,3,61,-6,42,7,65,35,ok,4,0,0.001,3,-0.10,-0.73,9.77,23,0.190,8.24
3.0089,-0.02967,0.03142,0.14835,0.00000,0.00000,0.00000,48,3,60,-8,43,7,67,32,ok,4,0,0.001,3,-0.10,-0.73,9.77,23,0.202,8.24
3.0123,-0.14661,0.04014,0.25482,0.00000,0.00000,0.00000,50,3,58,-8,44,7,69,27,ok,4,0,0.001,3,-0.57,-1.01,13.14,24,0.000,8.24
3.0250,-0.14661,0.04014,0.25482,0.00000,0.00000,0.00000,50,3,55,-9,44,7,71,24,ok,4,0,0.001,3,-0.57,-1.01,13.14,24,0.013,8.24
3.0449,-0.14661,0.04014,0.25482,0.00000,0.00000,0.00000,50,3,53,-9,46,7,73,21,ok,4,0,0.001,3,-0.57,-1.01,13.14,24,0.025,8.24
3.0497,-0.14661,0.04014,0.25482,0.00000,0.00000,0.00000,50,5,51,-10,47,7,73,20,ok,4,0,0.001,3,-0.57,-1.01,13.14,24,0.038,8.24
3.0622,-0.14661,0.04014,0.25482,0.00000,0.00000,0.00000,51,5,49,-10,47,7,73,18,ok,4,0,0.001,3,-0.57,-1.01,13.14,24,0.050,8.24
3.0849,-0.14661,0.04014,0.25482,0.00000,0.00000,0.00000,52,5,46,-10,48,7,73,15,ok,2,0,0.001,3,-0.57,-1.01,13.14,24,0.063,8.24
3.0883,-0.14661,0.04014,0.25482,0.00000,0.00000,0.00000,52,5,44,-9,49,7,72,12,ok,2,0,0.001,3,-0.57,-1.01,13.14,24,0.076,8.24
3.1007,-0.14661,0.04014,0.25482,0.00000,0.00000,0.00000,52,6,41,-9,50,7,72,11,ok,2,0,0.001,3,-0.57,-1.01,13.14,24,0.089,8.24
3.1209,-0.14661,0.04014,0.25482,0.00000,0.00000,0.00000,53,6,39,-10,51,8,71,7,ok,2,0,0.001,3,-0.57,-1.01,13.14,24,0.101,8.24
3.1257,-0.14661,0.04014,0.25482,0.00000,0.00000,0.00000,53,6,36,-9,52,7,71,6,ok,2,0,0.001,3,-0.57,-1.01,13.14,24,0.114,8.24
3.1382,-0.14661,0.04014,0.25482,0.00000,0.00000,0.00000,54,7,33,-8,52,7,70,4,ok,2,0,0.001,3,-0.57,-1.01,13.14,24,0.126,8.24
3.1609,-0.14661,0.04014,0.25482,0.00000,0.00000,0.00000,54,8,30,-7,53,7,68,2,ok,2,0,0.001,3,-0.57,-1.01,13.14,24,0.139,8.24
3.1642,-0.14661,0.04014,0.25482,0.00000,0.00000,0.00000,54,8,27,-6,54,8,66,2,ok,2,0,0.001,3,-0.57,-1.01,13.14,24,0.152,8.24
3.1768,-0.14661,0.04014,0.25482,0.00000,0.00000,0.00000,54,9,24,-5,55,8,65,0,ok,2,0,0.001,3,-0.57,-1.01,13.14,24,0.165,8.24
3.1969,-0.14661,0.04014,0.25482,0.00000,0.00000,0.00000,55,10,20,-2,56,8,64,-2,ok,2,0,0.001,3,-0.57,-1.01,13.14,24,0.177,8.24
3.2018,-0.14661,0.04014,0.25482,0.00000,0.00000,0.00000,55,10,18,-1,58,6,62,-3,ok,2,0,0.001,3,-0.57,-1.01,13.14,24,0.190,8.24
3.2145,-0.02618,0.06632,0.20071,0.00000,0.00000,0.00000,56,10,18,0,58,7,60,-4,ok,2,0,0.001,3,0.29,0.28,10.41,25,0.000,8.24
3.2369,-0.02618,0.06632,0.20071,0.00000,0.00000,0.00000,56,11,16,2,59,8,58,-5,ok,2,0,0.001,3,0.29,0.28,10.41,25,0.013,8.24
3.2400,-0.02618,0.06632,0.20071,0.00000,0.00000,0.00000,56,11,14,5,59,9,55,-5,ok,2,0,0.001,3,0.29,0.28,10.41,25,0.026,8.24
3.2528,-0.02618,0.06632,0.20071,0.00000,0.00000,0.00000,56,13,13,9,60,9,53,-6,ok,2,0,0.001,3,0.29,0.28,10.41,25,0.039,8.24
3.2729,-0.02618,0.06632,0.20071,0.00000,0.00000,0.00000,56,13,12,11,61,10,50,-5,ok,2,0,0.001,3,0.29,0.28,10.41,25,0.051,8.24
3.2778,-0.02618,0.06632,0.20071,0.00000,0.00000,0.00000,56,14,14,11,61,10,47,-5,ok,2,0,0.001,3,0.29,0.28,10.41,25,0.064,8.24
3.2904,-0.02618,0.06632,0.20071,0.00000,0.00000,0.00000,56,14,15,11,61,10,45,-5,ok,2,0,0.001,3,0.29,0.28,10.41,25,0.076,8.24
3.3129,-0.02618,0.06632,0.20071,0.00000,0.00000,0.00000,56,15,16,9,61,11,42,-4,ok,2,0,0.001,3,0.29,0.28,10.41,25,0.089,8.24
3.3161,-0.02618,0.06632,0.20071,0.00000,0.00000,0.00000,56,16,18,8,61,12,41,-5,ok,2,0,0.001,3,0.29,0.28,10.41,25,0.102,8.24
3.3288,-0.02618,0.06632,0.20071,0.00000,0.00000,0.00000,56,16,19,8,61,12,37,-3,ok,2,0,0.001,3,0.29,0.28,10.41,25,0.115,8.24
3.3489,-0.02618,0.06632,0.20071,0.00000,0.00000,0.00000,56,17,20,7,62,13,35,-3,ok,2,0,0.001,3,0.29,0.28,10.41,25,0.127,8.24
3.3540,-0.02618,0.06632,0.20071,0.00000,0.00000,0.00000,56,18,21,7,62,14,31,-1,ok,2,0,0.001,3,0.29,0.28,10.41,25,0.140,8.24
3.3662,-0.02618,0.06632,0.20071,0.00000,0.00000,0.00000,57,19,22,6,63,14,30,0,ok,2,0,0.001,3,0.29,0.28,10.41,25,0.152,8.24
3.3890,-0.02618,0.06632,0.20071,0.00000,0.00000,0.00000,57,20,24,5,63,15,28,1,ok,2,0,0.001,3,0.29,0.28,10.41,25,0.165,8.24
3.3921,-0.02618,0.06632,0.20071,0.00000,0.00000,0.00000,58,21,24,5,63,16,26,5,ok,2,0,0.001,3,0.29,0.28,10.41,25,0.178,8.24
3.4050,-0.02618,0.06632,0.20071,0.00000,0.00000,0.00000,57,22,25,4,63,17,24,7,ok,2,0,0.001,3,0.29,0.28,10.41,25,0.191,8.24
3.4249,-0.11694,0.07679,0.22864,0.00000,0.00000,0.00000,58,23,25,3,64,17,23,11,ok,2,0,0.001,3,0.67,-2.12,9.44,26,0.000,8.24
3.4299,-0.11694,0.07679,0.22864,0.00000,0.00000,0.00000,57,25,26,3,64,18,23,13,ok,2,0,0.001,3,0.67,-2.12,9.44,26,0.013,8.24
3.4424,-0.11694,0.07679,0.22864,0.00000,0.00000,0.00000,57,26,27,2,64,19,25,12,ok,2,0,0.001,3,0.67,-2.12,9.44,26,0.025,8.24
3.4649,-0.11694,0.07679,0.22864,0.00000,0.00000,0.00000,58,24,28,2,64,21,25,12,ok,2,0,0.001,3,0.67,-2.12,9.44,26,0.038,8.24
3.4680,-0.11694,0.07679,0.22864,0.00000,0.00000,0.00000,58,21,29,2,64,22,26,10,ok,2,0,0.001,3,0.67,-2.12,9.44,26,0.051,8.24
3.4808,-0.11694,0.07679,0.22864,0.00000,0.00000,0.00000,60,17,30,2,64,23,27,10,ok,2,0,0.001,3,0.67,-2.12,9.44,26,0.063,8.24
3.5049,-0.11694,0.07679,0.22864,0.00000,0.00000,0.00000,60,12,32,2,64,25,28,10,ok,2,0,0.001,3,0.67,-2.12,9.44,26,0.076,8.24
3.5084,-0.11694,0.07679,0.22864,0.00000,0.00000,0.00000,60,10,33,3,65,25,29,9,ok,2,0,0.001,3,0.67,-2.12,9.44,26,0.091,8.24
3.5208,-0.11694,0.07679,0.22864,0.00000,0.00000,0.00000,60,10,35,3,64,28,31,9,ok,2,0,0.001,3,0.67,-2.12,9.44,26,0.104,8.24
3.5409,-0.11694,0.07679,0.22864,0.00000,0.00000,0.00000,60,7,36,2,64,29,33,9,ok,2,0,0.001,3,0.67,-2.12,9.44,26,0.116,8.24
3.5458,-0.11694,0.07679,0.22864,0.00000,0.00000,0.00000,60,4,38,3,64,30,33,9,ok,2,0,0.001,3,0.67,-2.12,9.44,26,0.128,8.24
3.5583,-0.11694,0.07679,0.22864,0.00000,0.00000,0.00000,60,2,39,3,64,32,35,9,ok,2,0,0.001,3,0.67,-2.12,9.44,26,0.141,8.24
3.5809,-0.11694,0.07679,0.22864,0.00000,0.00000,0.00000,59,0,41,3,64,33,36,9,ok,2,0,0.001,4,0.67,-2.12,9.44,26,0.153,8.24
3.5841,-0.11694,0.07679,0.22864,0.00000,0.00000,0.00000,58,-2,42,2,64,35,37,9,ok,2,0,0.001,4,0.67,-2.12,9.44,26,0.167,8.24
3.5967,-0.11694,0.07679,0.22864,0.00000,0.00000,0.00000,58,-3,43,2,65,35,38,8,ok,2,0,0.001,4,0.67,-2.12,9.44,26,0.179,8.24
3.6209,-0.11694,0.07679,0.22864,0.00000,0.00000,0.00000,56,-5,44,2,66,35,39,8,ok,2,0,0.001,4,0.67,-2.12,9.44,26,0.192,8.24
3.6243,-0.01222,0.00524,0.25307,0.00000,0.00000,0.00000,56,-6,45,3,68,33,41,7,ok,2,0,0.001,4,1.75,1.02,10.36,27,0.000,8.24
3.6368,-0.01222,0.00524,0.25307,0.00000,0.00000,0.00000,56,-8,46,2,70,29,42,7,ok,2,0,0.001,4,1.75,1.02,10.36,27,0.013,8.24
3.6569,-0.01222,0.00524,0.25307,0.00000,0.00000,0.00000,54,-9,47,3,72,24,43,7,ok,2,0,0.001,4,1.75,1.02,10.36,27,0.025,8.24
3.6620,-0.01222,0.00524,0.25307,0.00000,0.00000,0.00000,53,-10,49,3,73,22,44,7,ok,2,0,0.001,4,1.75,1.02,10.36,27,0.038,8.24
3.6742,-0.01222,0.00524,0.25307,0.00000,0.00000,0.00000,52,-10,49,3,74,21,45,7,ok,2,0,0.001,4,1.75,1.02,10.36,27,0.050,8.24
3.6969,-0.01222,0.00524,0.25307,0.00000,0.00000,0.00000,51,-10,49,5,74,19,46,7,ok,2,0,0.001,4,1.75,1.02,10.36,27,0.063,8.24
3.7001,-0.01222,0.00524,0.25307,0.00000,0.00000,0.00000,50,-10,51,5,74,15,47,8,ok,2,0,0.001,4,1.75,1.02,10.36,27,0.076,8.24
3.7130,-0.01222,0.00524,0.25307,0.00000,0.00000,0.00000,48,-10,52,5,73,12,48,8,ok,2,0,0.001,4,1.75,1.02,10.36,27,0.089,8.24
3.7329,-0.01222,0.00524,0.25307,0.00000,0.00000,0.00000,48,-9,53,5,73,10,49,8,ok,2,0,0.001,4,1.75,1.02,10.36,27,0.101,8.24
3.7378,-0.01222,0.00524,0.25307,0.00000,0.00000,0.00000,46,-10,53,6,72,6,49,8,ok,2,0,0.001,4,1.75,1.02,10.36,27,0.114,8.24
3.7502,-0.01222,0.00524,0.25307,0.00000,0.00000,0.00000,44,-10,56,6,72,5,50,8,ok,2,0,0.001,4,1.75,1.02,10.36,27,0.126,8.24
3.7729,-0.01222,0.00524,0.25307,0.00000,0.00000,0.00000,44,-9,56,7,71,4,51,9,ok,2,0,0.001,4,1.75,1.02,10.36,27,0.139,8.24
3.7762,-0.01222,0.00524,0.25307,0.00000,0.00000,0.00000,42,-8,57,7,69,1,52,7,ok,2,0,0.001,4,1.75,1.02,10.36,27,0.152,8.24
3.7888,-0.01222,0.00524,0.25307,0.00000,0.00000,0.00000,40,-7,57,8,66,1,52,8,ok,2,0,0.001,4,1.75,1.02,10.36,27,0.165,8.24
3.8089,-0.01222,0.00524,0.25307,0.00000,0.00000,0.00000,38,-6,58,8,65,-1,53,8,ok,2,0,0.001,4,1.75,1.02,10.36,27,0.177,8.24
3.8139,-0.01222,0.00524,0.25307,0.00000,0.00000,0.00000,37,-4,58,8,63,-2,54,9,ok,2,0,0.001,4,1.75,1.02,10.36,27,0.190,8.24
3.8265,0.00524,-0.05934,0.26878,0.00000,0.00000,0.00000,35,-2,59,9,61,-4,55,8,ok,2,0,0.001,4,0.04,0.49,11.35,28,0.000,8.24
3.8489,0.00524,-0.05934,0.26878,0.00000,0.00000,0.00000,34,-1,60,10,61,-5,55,8,ok,2,0,0.001,4,0.04,0.49,11.35,28,0.013,8.24
3.8520,0.00524,-0.05934,0.26878,0.00000,0.00000,0.00000,34,0,61,10,59,-5,57,6,ok,2,0,0.001,4,0.04,0.49,11.35,28,0.026,8.24
3.8648,0.00524,-0.05934,0.26878,0.00000,0.00000,0.00000,33,2,61,11,56,-6,57,7,ok,2,0,0.001,4,0.04,0.49,11.35,28,0.038,8.24
3.8849,0.00524,-0.05934,0.26878,0.00000,0.00000,0.00000,32,5,61,11,54,-7,58,8,ok,2,0,0.001,4,0.04,0.49,11.35,28,0.051,8.24
3.8897,0.00524,-0.05934,0.26878,0.00000,0.00000,0.00000,32,9,61,12,51,-6,59,9,ok,2,0,0.001,4,0.04,0.49,11.35,28,0.063,8.24
3.9024,0.00524,-0.05934,0.26878,0.00000,0.00000,0.00000,32,11,62,11,48,-6,59,9,ok,2,0,0.001,4,0.04,0.49,11.35,28,0.076,8.24
3.9249,0.00524,-0.05934,0.26878,0.00000,0.00000,0.00000,32,12,62,12,46,-6,60,10,ok,2,0,0.001,4,0.04,0.49,11.35,28,0.088,8.24
3.9280,0.00524,-0.05934,0.26878,0.00000,0.00000,0.00000,32,11,62,13,42,-5,59,10,ok,2,0,0.001,4,0.04,0.49,11.35,28,0.102,8.24
3.9410,0.00524,-0.05934,0.26878,0.00000,0.00000,0.00000,33,10,63,13,40,-5,60,11,ok,2,0,0.001,4,0.04,0.49,11.35,28,0.114,8.24
3.9609,0.00524,-0.05934,0.26878,0.00000,0.00000,0.00000,34,10,62,14,37,-4,60,12,ok,2,0,0.001,4,0.04,0.49,11.35,28,0.127,8.24
3.9658,0.00524,-0.05934,0.26878,0.00000,0.00000,0.00000,34,9,63,15,34,-3,61,13,ok,2,0,0.001,4,0.04,0.49,11.35,28,0.139,8.24
3.9782,0.00524,-0.05934,0.26878,0.00000,0.00000,0.00000,36,8,63,15,31,-2,61,13,ok,2,0,0.001,4,0.04,0.49,11.35,28,0.152,8.24
4.0009,0.00524,-0.05934,0.26878,0.00000,0.00000,0.00000,36,8,63,17,29,0,62,14,ok,2,0,0.001,4,0.04,0.49,11.35,28,0.164,8.24
4.0040,0.00524,-0.05934,0.26878,0.00000,0.00000,0.00000,36,6,64,18,27,1,62,15,ok,2,0,0.001,4,0.04,0.49,11.35,28,0.178,8.24
4.0170,0.00524,-0.05934,0.26878,0.00000,0.00000,0.00000,37,5,64,19,25,5,63,15,ok,2,0,0.001,4,0.04,0.49,11.35,28,0.190,8.24
4.0369,-0.14661,0.01396,0.25831,0.00000,0.00000,0.00000,38,5,64,20,24,8,63,16,ok,2,0,0.001,4,1.74,-1.72,14.21,29,0.000,8.24
4.0418,-0.14661,0.01396,0.25831,0.00000,0.00000,0.00000,38,4,64,22,22,10,63,18,ok,2,0,0.001,4,1.74,-1.72,14.21,29,0.013,8.24
4.0542,-0.14661,0.01396,0.25831,0.00000,0.00000,0.00000,39,4,65,23,21,13,64,18,ok,2,0,0.001,4,1.74,-1.72,14.21,29,0.025,8.24
4.0769,-0.14661,0.01396,0.25831,0.00000,0.00000,0.00000,40,3,63,26,23,13,64,19,ok,2,0,0.001,4,1.74,-1.72,14.21,29,0.038,8.24
4.0802,-0.14661,0.01396,0.25831,0.00000,0.00000,0.00000,40,2,63,28,23,13,64,20,ok,2,0,0.001,4,1.74,-1.72,14.21,29,0.051,8.24
4.0928,-0.14661,0.01396,0.25831,0.00000,0.00000,0.00000,40,1,64,27,24,11,64,21,ok,2,0,0.001,4,1.74,-1.72,14.21,29,0.064,8.24
4.1129,-0.14661,0.01396,0.25831,0.00000,0.00000,0.00000,40,1,67,23,26,10,65,22,ok,2,0,0.001,4,1.74,-1.72,14.21,29,0.076,8.24
4.1177,-0.14661,0.01396,0.25831,0.00000,0.00000,0.00000,41,0,69,20,27,10,65,23,ok,2,0,0.001,4,1.74,-1.72,14.21,29,0.089,8.24
4.1303,-0.14661,0.01396,0.25831,0.00000,0.00000,0.00000,42,0,70,16,29,10,64,24,ok,2,0,0.001,4,1.74,-1.72,14.21,29,0.101,8.24
4.1529,-0.14661,0.01396,0.25831,0.00000,0.00000,0.00000,42,0,71,13,30,9,64,27,ok,2,0,0.001,4,1.74,-1.72,14.21,29,0.114,8.24
4.1561,-0.14661,0.01396,0.25831,0.00000,0.00000,0.00000,44,1,70,13,33,9,65,27,ok,2,0,0.001,4,1.74,-1.72,14.21,29,0.127,8.24
4.1688,-0.14661,0.01396,0.25831,0.00000,0.00000,0.00000,44,1,70,9,33,9,64,29,ok,2,0,0.001,4,1.74,-1.72,14.21,29,0.140,8.24
4.1889,-0.14661,0.01396,0.25831,0.00000,0.00000,0.00000,45,3,69,6,35,8,64,30,ok,4,0,0.001,4,1.74,-1.72,14.21,29,0.152,8.24
4.1937,-0.14661,0.01396,0.25831,0.00000,0.00000,0.00000,46,3,69,3,36,8,64,32,ok,4,0,0.001,4,1.74,-1.72,14.21,29,0.165,8.24
4.2062,-0.14661,0.01396,0.25831,0.00000,0.00000,0.00000,46,3,67,0,37,8,64,33,ok,2,0,0.001,4,1.74,-1.72,14.21,29,0.177,8.24
4.2289,-0.14661,0.01396,0.25831,0.00000,0.00000,0.00000,47,2,66,-2,39,7,64,35,ok,4,0,0.001,4,1.74,-1.72,14.21,29,0.190,8.24
4.2323,-0.14137,0.01745,0.28274,0.00000,0.00000,0.00000,48,3,64,-3,39,7,63,36,ok,2,0,0.001,4,0.38,-1.68,9.28,30,0.000,8.24
4.2448,-0.14137,0.01745,0.28274,0.00000,0.00000,0.00000,48,3,62,-4,41,6,65,36,ok,2,0,0.001,4,0.38,-1.68,9.28,30,0.013,8.24
4.2649,-0.14137,0.01745,0.28274,0.00000,0.00000,0.00000,48,3,61,-6,42,7,66,35,ok,2,0,0.001,4,0.38,-1.68,9.28,30,0.025,8.24
4.2698,-0.14137,0.01745,0.28274,0.00000,0.00000,0.00000,49,3,60,-8,43,7,67,33,ok,2,0,0.001,4,0.38,-1.68,9.28,30,0.038,8.24
4.2822,-0.14137,0.01745,0.28274,0.00000,0.00000,0.00000,50,4,58,-8,44,7,69,28,ok,2,0,0.001,4,0.38,-1.68,9.28,30,0.050,8.24
4.3049,-0.14137,0.01745,0.28274,0.00000,0.00000,0.00000,50,4,55,-9,45,7,70,24,ok,2,0,0.001,4,0.38,-1.68,9.28,30,0.063,8.24
4.3082,-0.14137,0.01745,0.28274,0.00000,0.00000,0.00000,50,3,53,-9,46,7,72,21,ok,2,0,0.001,4,0.38,-1.68,9.28,30,0.076,8.24
4.3208,-0.14137,0.01745,0.28274,0.00000,0.00000,0.00000,50,5,51,-11,47,7,72,21,ok,2,0,0.001,4,0.38,-1.68,9.28,30,0.089,8.24
4.3409,-0.14137,0.01745,0.28274,0.00000,0.00000,0.00000,51,6,49,-10,48,7,72,19,ok,2,0,0.001,4,0.38,-1.68,9.28,30,0.101,8.24
4.3458,-0.14137,0.01745,0.28274,0.00000,0.00000,0.00000,52,6,46,-10,49,7,72,15,ok,2,0,0.001,4,0.38,-1.68,9.28,30,0.114,8.24
4.3582,-0.14137,0.01745,0.28274,0.00000,0.00000,0.00000,52,6,44,-10,49,7,72,12,ok,2,0,0.001,4,0.38,-1.68,9.28,30,0.126,8.24
4.3809,-0.14137,0.01745,0.28274,0.00000,0.00000,0.00000,52,7,41,-10,50,7,71,11,ok,2,0,0.001,4,0.38,-1.68,9.28,30,0.139,8.24
4.3841,-0.14137,0.01745,0.28274,0.00000,0.00000,0.00000,54,7,39,-10,51,7,71,7,ok,2,0,0.001,4,0.38,-1.68,9.28,30,0.152,8.24
4.3968,-0.14137,0.01745,0.28274,0.00000,0.00000,0.00000,54,7,36,-9,52,6,70,6,ok,2,0,0.001,4,0.38,-1.68,9.28,30,0.165,8.24
4.4209,-0.14137,0.01745,0.28274,0.00000,0.00000,0.00000,54,7,33,-9,52,7,70,4,ok,2,0,0.001,4,0.38,-1.68,9.28,30,0.177,8.24
4.4245,-0.01396,-0.03142,0.27751,0.00000,0.00000,0.00000,54,8,30,-7,53,7,68,2,ok,2,0,0.001,4,1.09,-0.52,10.27,31,0.000,8.24
4.4370,-0.01396,-0.03142,0.27751,0.00000,0.00000,0.00000,54,8,27,-7,54,8,66,2,ok,2,0,0.001,4,1.09,-0.52,10.27,31,0.013,8.24
4.4569,-0.01396,-0.03142,0.27751,0.00000,0.00000,0.00000,54,9,24,-5,55,8,64,0,ok,2,0,0.001,4,1.09,-0.52,10.27,31,0.025,8.24
4.4618,-0.01396,-0.03142,0.27751,0.00000,0.00000,0.00000,55,10,21,-3,56,8,63,-2,ok,2,0,0.001,4,1.09,-0.52,10.27,31,0.038,8.24
4.4744,-0.01396,-0.03142,0.27751,0.00000,0.00000,0.00000,55,11,19,-1,58,6,61,-3,ok,2,0,0.001,4,1.09,-0.52,10.27,31,0.050,8.24
4.4969,-0.01396,-0.03142,0.27751,0.00000,0.00000,0.00000,56,10,18,0,58,7,59,-4,ok,2,0,0.001,4,1.09,-0.52,10.27,31,0.063,8.24
4.5003,-0.01396,-0.03142,0.27751,0.00000,0.00000,0.00000,56,11,16,2,59,8,57,-4,ok,2,0,0.001,4,1.09,-0.52,10.27,31,0.076,8.24
4.5127,-0.01396,-0.03142,0.27751,0.00000,0.00000,0.00000,56,12,15,5,59,8,55,-5,ok,2,0,0.001,4,1.09,-0.52,10.27,31,0.089,8.24
4.5329,-0.01396,-0.03142,0.27751,0.00000,0.00000,0.00000,56,13,14,8,60,9,53,-6,ok,2,0,0.001,4,1.09,-0.52,10.27,31,0.101,8.24
4.5377,-0.01396,-0.03142,0.27751,0.00000,0.00000,0.00000,56,13,13,11,60,9,50,-5,ok,2,0,0.001,4,1.09,-0.52,10.27,31,0.114,8.24
4.5503,-0.01396,-0.03142,0.27751,0.00000,0.00000,0.00000,56,14,15,11,60,9,47,-5,ok,2,0,0.001,4,1.09,-0.52,10.27,31,0.126,8.24
4.5729,-0.01396,-0.03142,0.27751,0.00000,0.00000,0.00000,56,14,15,11,61,10,45,-5,ok,2,0,0.001,4,1.09,-0.52,10.27,31,0.139,8.24
4.5761,-0.01396,-0.03142,0.27751,0.00000,0.00000,0.00000,56,14,17,10,61,11,42,-4,ok,2,0,0.001,4,1.09,-0.52,10.27,31,0.152,8.24
4.5889,-0.01396,-0.03142,0.27751,0.00000,0.00000,0.00000,56,15,19,9,61,12,40,-4,ok,2,0,0.001,5,1.09,-0.52,10.27,31,0.165,8.24
4.6089,-0.01396,-0.03142,0.27751,0.00000,0.00000,0.00000,56,15,20,9,61,12,37,-3,ok,2,0,0.001,5,1.09,-0.52,10.27,31,0.177,8.24
4.6137,-0.01396,-0.03142,0.27751,0.00000,0.00000,0.00000,57,16,21,8,62,13,34,-3,ok,2,0,0.001,5,1.09,-0.52,10.27,31,0.190,8.24
4.6283,0.01396,0.02094,0.26180,0.00000,0.00000,0.00000,57,17,22,7,62,14,31,-1,ok,2,0,0.001,5,-0.34,0.29,10.65,32,0.000,8.24
4.6491,0.01396,0.02094,0.26180,0.00000,0.00000,0.00000,58,19,23,6,63,14,29,0,ok,2,0,0.001,5,-0.34,0.29,10.65,32,0.012,8.24
4.6525,0.01396,0.02094,0.26180,0.00000,0.00000,0.00000,58,20,24,5,63,15,27,2,ok,2,0,0.001,5,-0.34,0.29,10.65,32,0.026,8.24
4.6653,0.01396,0.02094,0.26180,0.00000,0.00000,0.00000,58,21,25,5,63,16,25,5,ok,2,0,0.001,5,-0.34,0.29,10.65,32,0.039,8.24
4.6850,0.01396,0.02094,0.26180,0.00000,0.00000,0.00000,58,22,26,4,63,17,24,7,ok,2,0,0.001,5,-0.34,0.29,10.65,32,0.051,8.24
4.6900,0.01396,0.02094,0.26180,0.00000,0.00000,0.00000,58,23,26,3,64,17,22,11,ok,2,0,0.001,5,-0.34,0.29,10.65,32,0.064,8.24
4.7025,0.01396,0.02094,0.26180,0.00000,0.00000,0.00000,57,26,27,3,64,19,22,13,ok,2,0,0.001,5,-0.34,0.29,10.65,32,0.076,8.24
4.7250,0.01396,0.02094,0.26180,0.00000,0.00000,0.00000,57,27,28,2,64,20,24,12,ok,2,0,0.001,5,-0.34,0.29,10.65,32,0.089,8.24
4.7378,0.01396,0.02094,0.26180,0.00000,0.00000,0.00000,58,25,29,2,64,21,24,12,ok,2,0,0.001,5,-0.34,0.29,10.65,32,0.111,8.24
4.7515,0.01396,0.02094,0.26180,0.00000,0.00000,0.00000,59,22,30,2,65,22,25,10,ok,2,0,0.001,5,-0.34,0.29,10.65,32,0.124,8.24
4.7729,0.01396,0.02094,0.26180,0.00000,0.00000,0.00000,60,18,31,1,64,23,26,10,ok,2,0,0.001,5,-0.34,0.29,10.65,32,0.136,8.24
4.7761,0.01396,0.02094,0.26180,0.00000,0.00000,0.00000,60,13,33,2,64,25,28,10,ok,2,0,0.001,5,-0.34,0.29,10.65,32,0.150,8.24
4.7888,0.01396,0.02094,0.26180,0.00000,0.00000,0.00000,60,11,34,2,65,25,29,9,ok,2,0,0.001,5,-0.34,0.29,10.65,32,0.163,8.24
4.8089,0.01396,0.02094,0.26180,0.00000,0.00000,0.00000,60,11,36,2,64,28,30,9,ok,2,0,0.001,5,-0.34,0.29,10.65,32,0.175,8.24
4.8139,0.01396,0.02094,0.26180,0.00000,0.00000,0.00000,60,7,37,2,64,29,32,9,ok,2,0,0.001,5,-0.34,0.29,10.65,32,0.188,8.24
4.8265,-0.09948,0.03142,0.30369,0.00000,0.00000,0.00000,60,5,39,3,64,30,33,9,ok,2,0,0.001,5,-1.50,-0.44,8.69,33,0.000,8.24
4.8489,-0.09948,0.03142,0.30369,0.00000,0.00000,0.00000,60,2,40,3,64,31,35,9,ok,2,0,0.001,5,-1.50,-0.44,8.69,33,0.013,8.24
4.8522,-0.09948,0.03142,0.30369,0.00000,0.00000,0.00000,59,-1,42,3,64,33,36,9,ok,2,0,0.001,5,-1.50,-0.44,8.69,33,0.026,8.24
4.8648,-0.09948,0.03142,0.30369,0.00000,0.00000,0.00000,58,-3,43,3,63,34,37,9,ok,2,0,0.001,5,-1.50,-0.44,8.69,33,0.038,8.24
4.8849,-0.09948,0.03142,0.30369,0.00000,0.00000,0.00000,58,-4,44,3,64,35,38,8,ok,2,0,0.001,5,-1.50,-0.44,8.69,33,0.051,8.24
4.8898,-0.09948,0.03142,0.30369,0.00000,0.00000,0.00000,57,-5,44,3,65,35,40,8,ok,2,0,0.001,5,-1.50,-0.44,8.69,33,0.063,8.24
4.9022,-0.09948,0.03142,0.30369,0.00000,0.00000,0.00000,56,-7,45,3,67,33,41,7,ok,2,0,0.001,5,-1.50,-0.44,8.69,33,0.076,8.24
4.9250,-0.09948,0.03142,0.30369,0.00000,0.00000,0.00000,56,-9,47,4,69,28,42,7,ok,2,0,0.001,5,-1.50,-0.44,8.69,33,0.088,8.24
4.9283,-0.09948,0.03142,0.30369,0.00000,0.00000,0.00000,54,-10,48,5,71,24,43,8,ok,2,0,0.001,5,-1.50,-0.44,8.69,33,0.102,8.24
4.9411,-0.09948,0.03142,0.30369,0.00000,0.00000,0.00000,54,-11,49,4,73,21,44,8,ok,2,0,0.001,5,-1.50,-0.44,8.69,33,0.115,8.24
4.9609,-0.09948,0.03142,0.30369,0.00000,0.00000,0.00000,52,-11,49,4,74,20,45,8,ok,2,0,0.001,5,-1.50,-0.44,8.69,33,0.127,8.24
4.9658,-0.09948,0.03142,0.30369,0.00000,0.00000,0.00000,51,-11,49,6,74,18,46,8,ok,2,0,0.001,5,-1.50,-0.44,8.69,33,0.140,8.24
4.9785,-0.09948,0.03142,0.30369,0.00000,0.00000,0.00000,50,-11,51,6,74,14,47,8,ok,2,0,0.001,5,-1.50,-0.44,8.69,33,0.152,8.24
5.0009,-0.09948,0.03142,0.30369,0.00000,0.00000,0.00000,48,-11,52,6,73,11,48,8,ok,2,0,0.001,5,-1.50,-0.44,8.69,33,0.165,8.24
5.0040,-0.09948,0.03142,0.30369,0.00000,0.00000,0.00000,48,-10,53,6,73,9,49,8,ok,2,0,0.001,5,-1.50,-0.44,8.69,33,0.178,8.24
5.0167,-0.09948,0.03142,0.30369,0.00000,0.00000,0.00000,46,-11,53,7,72,6,49,9,ok,2,0,0.001,5,-1.50,-0.44,8.69,33,0.190,8.24
5.0449,0.06632,0.01222,0.32114,0.00000,0.00000,0.00000,44,-11,55,7,72,4,50,8,ok,2,0,0.001,5,0.19,0.86,9.76,34,0.000,8.24
5.0481,0.06632,0.01222,0.32114,0.00000,0.00000,0.00000,43,-9,56,6,71,4,51,9,ok,2,0,0.001,5,0.19,0.86,9.76,34,0.019,8.24
5.0609,0.06632,0.01222,0.32114,0.00000,0.00000,0.00000,42,-8,56,7,69,1,51,8,ok,2,0,0.001,5,0.19,0.86,9.76,34,0.032,8.24
5.0809,0.06632,0.01222,0.32114,0.00000,0.00000,0.00000,40,-7,57,7,67,2,51,9,ok,2,0,0.001,5,0.19,0.86,9.76,34,0.044,8.24
5.0857,0.06632,0.01222,0.32114,0.00000,0.00000,0.00000,38,-5,58,7,66,0,52,9,ok,2,0,0.001,5,0.19,0.86,9.76,34,0.056,8.24
5.0983,0.06632,0.01222,0.32114,0.00000,0.00000,0.00000,37,-3,58,7,64,-2,53,9,ok,2,0,0.001,5,0.19,0.86,9.76,34,0.069,8.24
5.1209,0.06632,0.01222,0.32114,0.00000,0.00000,0.00000,35,0,59,8,62,-4,54,8,ok,2,0,0.001,5,0.19,0.86,9.76,34,0.081,8.24
5.1242,0.06632,0.01222,0.32114,0.00000,0.00000,0.00000,35,0,60,9,61,-5,54,8,ok,2,0,0.001,5,0.19,0.86,9.76,34,0.095,8.24
5.1367,0.06632,0.01222,0.32114,0.00000,0.00000,0.00000,34,1,61,9,59,-6,56,6,ok,2,0,0.001,5,0.19,0.86,9.76,34,0.108,8.24
5.1569,0.06632,0.01222,0.32114,0.00000,0.00000,0.00000,34,3,61,10,56,-7,57,7,ok,2,0,0.001,5,0.19,0.86,9.76,34,0.120,8.24
5.1619,0.06632,0.01222,0.32114,0.00000,0.00000,0.00000,32,6,61,10,54,-7,57,8,ok,2,0,0.001,5,0.19,0.86,9.76,34,0.132,8.24
5.1743,0.06632,0.01222,0.32114,0.00000,0.00000,0.00000,32,9,61,12,51,-6,58,8,ok,2,0,0.001,5,0.19,0.86,9.76,34,0.145,8.24
5.1969,0.06632,0.01222,0.32114,0.00000,0.00000,0.00000,31,10,61,12,48,-6,59,9,ok,2,0,0.001,5,0.19,0.86,9.76,34,0.158,8.24
5.2001,0.06632,0.01222,0.32114,0.00000,0.00000,0.00000,32,11,62,13,46,-6,60,10,ok,2,0,0.001,5,0.19,0.86,9.76,34,0.171,8.24
5.2129,0.06632,0.01222,0.32114,0.00000,0.00000,0.00000,32,11,61,13,43,-5,59,10,ok,2,0,0.001,5,0.19,0.86,9.76,34,0.183,8.24
5.2329,0.06632,0.01222,0.32114,0.00000,0.00000,0.00000,33,9,62,14,40,-5,60,11,ok,2,0,0.001,5,0.19,0.86,9.76,34,0.196,8.24
5.2379,0.00349,0.08901,0.31590,0.00000,0.00000,0.00000,34,9,62,14,37,-4,60,12,ok,2,0,0.001,5,1.47,1.12,8.42,35,0.000,8.24
5.2504,0.00349,0.08901,0.31590,0.00000,0.00000,0.00000,34,8,62,15,34,-4,61,13,ok,2,0,0.001,5,1.47,1.12,8.42,35,0.013,8.24
5.2730,0.00349,0.08901,0.31590,0.00000,0.00000,0.00000,35,7,63,16,31,-2,61,13,ok,2,0,0.001,5,1.47,1.12,8.42,35,0.025,8.24
5.2761,0.00349,0.08901,0.31590,0.00000,0.00000,0.00000,36,7,63,17,29,-1,62,14,ok,2,0,0.001,5,1.47,1.12,8.42,35,0.038,8.24
5.2890,0.00349,0.08901,0.31590,0.00000,0.00000,0.00000,36,5,64,19,28,1,62,15,ok,2,0,0.001,5,1.47,1.12,8.42,35,0.051,8.24
5.3089,0.00349,0.08901,0.31590,0.00000,0.00000,0.00000,36,4,63,20,25,4,63,15,ok,2,0,0.001,5,1.47,1.12,8.42,35,0.064,8.24
5.3138,0.00349,0.08901,0.31590,0.00000,0.00000,0.00000,37,4,64,21,24,7,63,16,ok,2,0,0.001,5,1.47,1.12,8.42,35,0.076,8.24
5.3263,0.00349,0.08901,0.31590,0.00000,0.00000,0.00000,38,3,63,22,23,11,63,18,ok,2,0,0.001,5,1.47,1.12,8.42,35,0.089,8.24
5.3489,0.00349,0.08901,0.31590,0.00000,0.00000,0.00000,38,3,63,23,22,14,64,18,ok,2,0,0.001,5,1.47,1.12,8.42,35,0.101,8.24
5.3521,0.00349,0.08901,0.31590,0.00000,0.00000,0.00000,38,2,63,26,24,13,64,19,ok,2,0,0.001,5,1.47,1.12,8.42,35,0.114,8.24
5.3647,0.00349,0.08901,0.31590,0.00000,0.00000,0.00000,39,1,63,27,24,13,64,20,ok,2,0,0.001,5,1.47,1.12,8.42,35,0.127,8.24
5.3849,0.00349,0.08901,0.31590,0.00000,0.00000,0.00000,40,1,64,26,26,11,65,21,ok,2,0,0.001,5,1.47,1.12,8.42,35,0.140,8.24
5.3897,0.00349,0.08901,0.31590,0.00000,0.00000,0.00000,40,1,66,22,27,10,65,21,ok,2,0,0.001,5,1.47,1.12,8.42,35,0.152,8.24
5.4023,0.00349,0.08901,0.31590,0.00000,0.00000,0.00000,40,1,69,19,28,10,65,23,ok,2,0,0.001,5,1.47,1.12,8.42,35,0.165,8.24
5.4249,0.00349,0.08901,0.31590,0.00000,0.00000,0.00000,42,1,70,15,29,10,64,24,ok,2,0,0.001,5,1.47,1.12,8.42,35,0.177,8.24
5.4281,0.00349,0.08901,0.31590,0.00000,0.00000,0.00000,42,1,70,12,31,9,65,26,ok,2,0,0.001,5,1.47,1.12,8.42,35,0.190,8.24
5.4410,-0.10123,-0.02269,0.32289,0.00000,0.00000,0.00000,44,1,70,12,33,9,65,26,ok,2,0,0.001,5,0.38,-1.68,9.13,36,0.000,8.24
5.4609,-0.10123,-0.02269,0.32289,0.00000,0.00000,0.00000,44,1,70,9,33,9,65,29,ok,2,0,0.001,5,0.38,-1.68,9.13,36,0.013,8.24
5.4659,-0.10123,-0.02269,0.32289,0.00000,0.00000,0.00000,45,2,69,6,36,9,64,30,ok,2,0,0.001,5,0.38,-1.68,9.13,36,0.025,8.24
5.4783,-0.10123,-0.02269,0.32289,0.00000,0.00000,0.00000,46,2,68,3,37,8,65,31,ok,2,0,0.001,5,0.38,-1.68,9.13,36,0.038,8.24
5.5009,-0.10123,-0.02269,0.32289,0.00000,0.00000,0.00000,46,1,67,0,37,8,65,33,ok,2,0,0.001,5,0.38,-1.68,9.13,36,0.050,8.24
5.5041,-0.10123,-0.02269,0.32289,0.00000,0.00000,0.00000,47,1,66,-1,39,8,64,35,ok,2,0,0.001,5,0.38,-1.68,9.13,36,0.063,8.24
5.5169,-0.10123,-0.02269,0.32289,0.00000,0.00000,0.00000,48,2,64,-3,40,8,64,36,ok,2,0,0.001,5,0.38,-1.68,9.13,36,0.076,8.24
5.5369,-0.10123,-0.02269,0.32289,0.00000,0.00000,0.00000,48,2,62,-4,41,7,65,36,ok,2,0,0.001,5,0.38,-1.68,9.13,36,0.089,8.24
5.5417,-0.10123,-0.02269,0.32289,0.00000,0.00000,0.00000,48,2,61,-5,42,7,66,35,ok,2,0,0.001,5,0.38,-1.68,9.13,36,0.101,8.24
5.5543,-0.10123,-0.02269,0.32289,0.00000,0.00000,0.00000,49,2,60,-8,43,7,67,33,ok,2,0,0.001,5,0.38,-1.68,9.13,36,0.114,8.24
5.5769,-0.10123,-0.02269,0.32289,0.00000,0.00000,0.00000,50,3,58,-8,44,7,69,27,ok,2,0,0.001,5,0.38,-1.68,9.13,36,0.126,8.24
5.5801,-0.10123,-0.02269,0.32289,0.00000,0.00000,0.00000,50,3,56,-9,45,7,70,24,ok,2,0,0.001,5,0.38,-1.68,9.13,36,0.139,8.24
5.5930,-0.10123,-0.02269,0.32289,0.00000,0.00000,0.00000,50,3,54,-9,46,7,72,21,ok,2,0,0.001,5,0.38,-1.68,9.13,36,0.152,8.24
5.6129,-0.10123,-0.02269,0.32289,0.00000,0.00000,0.00000,50,5,51,-10,47,7,72,21,ok,2,0,0.001,5,0.38,-1.68,9.13,36,0.165,8.24
5.6177,-0.10123,-0.02269,0.32289,0.00000,0.00000,0.00000,51,6,49,-10,47,7,72,19,ok,2,0,0.001,6,0.38,-1.68,9.13,36,0.177,8.24
5.6303,-0.10123,-0.02269,0.32289,0.00000,0.00000,0.00000,52,6,46,-10,48,7,72,15,ok,2,0,0.001,6,0.38,-1.68,9.13,36,0.190,8.24
5.6529,-0.06109,-0.02094,0.37699,0.00000,0.00000,0.00000,52,6,44,-10,49,7,72,13,ok,2,0,0.001,6,-0.01,-0.59,8.88,37,0.000,8.24
5.6561,-0.06109,-0.02094,0.37699,0.00000,0.00000,0.00000,52,7,42,-10,50,7,71,11,ok,2,0,0.001,6,-0.01,-0.59,8.88,37,0.013,8.24
5.6687,-0.06109,-0.02094,0.37699,0.00000,0.00000,0.00000,54,7,39,-10,51,7,70,7,ok,2,0,0.001,6,-0.01,-0.59,8.88,37,0.026,8.24
5.6889,-0.06109,-0.02094,0.37699,0.00000,0.00000,0.00000,54,8,37,-9,52,6,70,6,ok,2,0,0.001,6,-0.01,-0.59,8.88,37,0.038,8.24
5.6937,-0.06109,-0.02094,0.37699,0.00000,0.00000,0.00000,54,8,34,-9,52,7,69,4,ok,2,0,0.002,6,-0.01,-0.59,8.88,37,0.051,8.24
5.7063,-0.06109,-0.02094,0.37699,0.00000,0.00000,0.00000,54,8,31,-8,53,7,67,2,ok,2,0,0.002,6,-0.01,-0.59,8.88,37,0.063,8.24
5.7289,-0.06109,-0.02094,0.37699,0.00000,0.00000,0.00000,54,8,27,-6,54,8,66,2,ok,2,0,0.002,6,-0.01,-0.59,8.88,37,0.076,8.24
5.7321,-0.06109,-0.02094,0.37699,0.00000,0.00000,0.00000,54,9,25,-5,55,8,65,0,ok,2,0,0.002,6,-0.01,-0.59,8.88,37,0.089,8.24
5.7447,-0.06109,-0.02094,0.37699,0.00000,0.00000,0.00000,56,10,21,-2,56,8,64,-2,ok,2,0,0.002,6,-0.01,-0.59,8.88,37,0.102,8.24
5.7649,-0.06109,-0.02094,0.37699,0.00000,0.00000,0.00000,56,10,19,-1,58,6,61,-3,ok,2,0,0.002,6,-0.01,-0.59,8.88,37,0.114,8.24
5.7699,-0.06109,-0.02094,0.37699,0.00000,0.00000,0.00000,56,10,18,1,58,7,59,-4,ok,2,0,0.002,6,-0.01,-0.59,8.88,37,0.127,8.24
5.7823,-0.06109,-0.02094,0.37699,0.00000,0.00000,0.00000,56,11,16,3,59,8,58,-4,ok,2,0,0.002,6,-0.01,-0.59,8.88,37,0.139,8.24
5.8049,-0.06109,-0.02094,0.37699,0.00000,0.00000,0.00000,56,11,15,6,59,8,55,-5,ok,2,0,0.002,6,-0.01,-0.59,8.88,37,0.152,8.24
5.8081,-0.06109,-0.02094,0.37699,0.00000,0.00000,0.00000,56,12,13,9,60,9,53,-6,ok,2,0,0.002,6,-0.01,-0.59,8.88,37,0.165,8.24
5.8206,-0.06109,-0.02094,0.37699,0.00000,0.00000,0.00000,56,12,13,12,60,9,50,-5,ok,2,0,0.002,6,-0.01,-0.59,8.88,37,0.178,8.24
5.8409,-0.06109,-0.02094,0.37699,0.00000,0.00000,0.00000,56,13,14,12,60,9,47,-5,ok,2,0,0.002,6,-0.01,-0.59,8.88,37,0.190,8.24
5.8460,0.04712,0.06807,0.33510,0.00000,0.00000,0.00000,56,13,15,12,61,10,45,-5,ok,2,0,0.002,6,0.50,0.86,10.36,38,0.000,8.24
5.8584,0.04712,0.06807,0.33510,0.00000,0.00000,0.00000,56,14,17,10,61,11,42,-4,ok,2,0,0.002,6,0.50,0.86,10.36,38,0.013,8.24
5.8809,0.04712,0.06807,0.33510,0.00000,0.00000,0.00000,56,15,19,9,61,12,40,-4,ok,2,0,0.002,6,0.50,0.86,10.36,38,0.025,8.24
5.8841,0.04712,0.06807,0.33510,0.00000,0.00000,0.00000,56,16,19,9,61,12,36,-3,ok,2,0,0.002,6,0.50,0.86,10.36,38,0.038,8.24
5.8969,0.04712,0.06807,0.33510,0.00000,0.00000,0.00000,56,17,21,8,62,13,34,-3,ok,2,0,0.002,6,0.50,0.86,10.36,38,0.051,8.24
5.9169,0.04712,0.06807,0.33510,0.00000,0.00000,0.00000,56,18,21,7,62,14,30,-1,ok,2,0,0.002,6,0.50,0.86,10.36,38,0.064,8.24
5.9216,0.04712,0.06807,0.33510,0.00000,0.00000,0.00000,58,19,23,6,63,14,29,0,ok,2,0,0.002,6,0.50,0.86,10.36,38,0.076,8.24
5.9342,0.04712,0.06807,0.33510,0.00000,0.00000,0.00000,57,20,24,5,63,15,27,2,ok,2,0,0.002,6,0.50,0.86,10.36,38,0.089,8.24
5.9569,0.04712,0.06807,0.33510,0.00000,0.00000,0.00000,58,21,24,4,63,16,25,5,ok,2,0,0.002,6,0.50,0.86,10.36,38,0.101,8.24
5.9601,0.04712,0.06807,0.33510,0.00000,0.00000,0.00000,58,22,25,4,63,17,24,7,ok,2,0,0.002,6,0.50,0.86,10.36,38,0.114,8.24
5.9727,0.04712,0.06807,0.33510,0.00000,0.00000,0.00000,58,23,25,3,64,17,23,11,ok,2,0,0.002,6,0.50,0.86,10.36,38,0.127,8.24
5.9929,0.04712,0.06807,0.33510,0.00000,0.00000,0.00000,57,26,27,3,64,19,22,13,ok,2,0,0.002,6,0.50,0.86,10.36,38,0.140,8.24
5.9978,0.04712,0.06807,0.33510,0.00000,0.00000,0.00000,56,26,27,2,64,20,24,12,ok,2,0,0.002,6,0.50,0.86,10.36,38,0.152,8.24
6.0104,0.04712,0.06807,0.33510,0.00000,0.00000,0.00000,58,25,28,2,64,21,25,11,ok,2,0,0.002,6,0.50,0.86,10.36,38,0.165,8.24
6.0329,0.04712,0.06807,0.33510,0.00000,0.00000,0.00000,58,21,30,2,65,22,25,10,ok,2,0,0.002,6,0.50,0.86,10.36,38,0.177,8.24
6.0361,0.04712,0.06807,0.33510,0.00000,0.00000,0.00000,60,17,31,1,64,23,27,9,ok,2,0,0.002,6,0.50,0.86,10.36,38,0.190,8.24
6.0490,-0.04538,0.04189,0.38572,0.00000,0.00000,0.00000,60,13,32,2,64,25,28,10,ok,2,0,0.002,6,0.69,-1.64,9.49,39,0.000,8.24
6.0689,-0.04538,0.04189,0.38572,0.00000,0.00000,0.00000,60,11,34,2,65,25,29,9,ok,2,0,0.002,6,0.69,-1.64,9.49,39,0.013,8.24
6.0737,-0.04538,0.04189,0.38572,0.00000,0.00000,0.00000,60,10,36,2,64,27,31,9,ok,2,0,0.002,6,0.69,-1.64,9.49,39,0.025,8.24
6.0863,-0.04538,0.04189,0.38572,0.00000,0.00000,0.00000,60,7,37,2,64,29,33,9,ok,2,0,0.002,6,0.69,-1.64,9.49,39,0.038,8.24
6.1089,-0.04538,0.04189,0.38572,0.00000,0.00000,0.00000,60,4,39,3,64,30,33,9,ok,2,0,0.002,6,0.69,-1.64,9.49,39,0.050,8.24
6.1122,-0.04538,0.04189,0.38572,0.00000,0.00000,0.00000,60,1,40,3,64,32,35,9,ok,2,0,0.002,6,0.69,-1.64,9.49,39,0.063,8.24
6.1249,-0.04538,0.04189,0.38572,0.00000,0.00000,0.00000,59,-1,41,3,64,34,36,8,ok,2,0,0.002,6,0.69,-1.64,9.49,39,0.076,8.24
6.1449,-0.04538,0.04189,0.38572,0.00000,0.00000,0.00000,58,-3,43,3,64,35,37,9,ok,2,0,0.002,6,0.69,-1.64,9.49,39,0.088,8.24
6.1497,-0.04538,0.04189,0.38572,0.00000,0.00000,0.00000,58,-4,44,3,64,35,38,8,ok,2,0,0.002,6,0.69,-1.64,9.49,39,0.101,8.24
6.1623,-0.04538,0.04189,0.38572,0.00000,0.00000,0.00000,56,-5,44,3,66,35,39,8,ok,2,0,0.002,6,0.69,-1.64,9.49,39,0.113,8.24
6.1849,-0.04538,0.04189,0.38572,0.00000,0.00000,0.00000,56,-7,45,3,68,33,41,7,ok,2,0,0.002,6,0.69,-1.64,9.49,39,0.126,8.24
6.1881,-0.04538,0.04189,0.38572,0.00000,0.00000,0.00000,56,-8,47,3,69,28,42,7,ok,2,0,0.002,6,0.69,-1.64,9.49,39,0.139,8.24
6.2007,-0.04538,0.04189,0.38572,0.00000,0.00000,0.00000,54,-9,48,4,71,24,43,7,ok,2,0,0.002,6,0.69,-1.64,9.49,39,0.152,8.24
6.2209,-0.04538,0.04189,0.38572,0.00000,0.00000,0.00000,54,-10,49,4,73,21,44,7,ok,2,0,0.002,6,0.69,-1.64,9.49,39,0.164,8.24
6.2257,-0.04538,0.04189,0.38572,0.00000,0.00000,0.00000,52,-10,49,4,74,20,45,7,ok,2,0,0.002,6,0.69,-1.64,9.49,39,0.177,8.24
6.2383,-0.04538,0.04189,0.38572,0.00000,0.00000,0.00000,51,-11,49,6,74,18,46,7,ok,2,0,0.002,6,0.69,-1.64,9.49,39,0.189,8.24
6.2609,-0.00698,0.03316,0.37874,0.00000,0.00000,0.00000,50,-11,51,6,74,14,47,8,ok,2,0,0.002,6,-0.95,0.16,10.52,40,0.000,8.24
6.2641,-0.00698,0.03316,0.37874,0.00000,0.00000,0.00000,48,-11,52,6,73,12,48,8,ok,2,0,0.002,6,-0.95,0.16,10.52,40,0.013,8.24
6.2767,-0.00698,0.03316,0.37874,0.00000,0.00000,0.00000,47,-10,53,6,73,10,49,8,ok,2,0,0.002,6,-0.95,0.16,10.52,40,0.026,8.24
6.2969,-0.00698,0.03316,0.37874,0.00000,0.00000,0.00000,46,-11,53,7,72,7,49,9,ok,2,0,0.002,6,-0.95,0.16,10.52,40,0.039,8.24
6.3017,-0.00698,0.03316,0.37874,0.00000,0.00000,0.00000,44,-11,56,7,72,5,50,8,ok,2,0,0.002,6,-0.95,0.16,10.52,40,0.051,8.24
6.3143,-0.00698,0.03316,0.37874,0.00000,0.00000,0.00000,43,-10,56,7,71,4,51,9,ok,2,0,0.002,6,-0.95,0.16,10.52,40,0.064,8.24
6.3369,-0.00698,0.03316,0.37874,0.00000,0.00000,0.00000,42,-8,57,7,69,1,52,8,ok,2,0,0.002,6,-0.95,0.16,10.52,40,0.076,8.24
6.3401,-0.00698,0.03316,0.37874,0.00000,0.00000,0.00000,40,-7,57,8,66,1,52,8,ok,2,0,0.002,6,-0.95,0.16,10.52,40,0.089,8.24
6.3527,-0.00698,0.03316,0.37874,0.00000,0.00000,0.00000,38,-6,58,7,65,-1,53,8,ok,2,0,0.002,6,-0.95,0.16,10.52,40,0.102,8.24
6.3729,-0.00698,0.03316,0.37874,0.00000,0.00000,0.00000,37,-4,58,8,64,-3,54,9,ok,2,0,0.002,6,-0.95,0.16,10.52,40,0.115,8.24
6.3779,-0.00698,0.03316,0.37874,0.00000,0.00000,0.00000,35,-2,59,9,62,-4,55,8,ok,2,0,0.002,6,-0.95,0.16,10.52,40,0.127,8.24
6.3903,-0.00698,0.03316,0.37874,0.00000,0.00000,0.00000,34,-1,60,10,61,-5,55,8,ok,2,0,0.002,6,-0.95,0.16,10.52,40,0.140,8.24
6.4129,-0.00698,0.03316,0.37874,0.00000,0.00000,0.00000,34,0,60,10,59,-6,57,6,ok,2,0,0.002,6,-0.95,0.16,10.52,40,0.152,8.24
6.4161,-0.00698,0.03316,0.37874,0.00000,0.00000,0.00000,33,2,61,11,56,-6,57,7,ok,2,0,0.002,6,-0.95,0.16,10.52,40,0.165,8.24
6.4289,-0.00698,0.03316,0.37874,0.00000,0.00000,0.00000,32,5,61,11,54,-7,58,8,ok,2,0,0.002,6,-0.95,0.16,10.52,40,0.178,8.24
6.4489,-0.00698,0.03316,0.37874,0.00000,0.00000,0.00000,32,8,61,12,51,-6,59,9,ok,2,0,0.002,6,-0.95,0.16,10.52,40,0.191,8.24
6.4539,-0.00698,0.03316,0.37874,0.00000,0.00000,0.00000,31,10,61,12,48,-6,59,9,ok,2,0,0.002,6,-0.95,0.16,10.52,40,0.203,8.24
6.4666,-0.03316,0.02967,0.41713,0.00000,0.00000,0.00000,32,11,61,13,46,-6,60,10,ok,2,0,0.002,6,0.57,-0.98,9.56,41,0.000,8.24
6.4929,-0.03316,0.02967,0.41713,0.00000,0.00000,0.00000,32,11,61,14,43,-5,60,10,ok,2,0,0.002,6,0.57,-0.98,9.56,41,0.012,8.24
6.4963,-0.03316,0.02967,0.41713,0.00000,0.00000,0.00000,33,9,62,14,40,-5,61,11,ok,2,0,0.002,6,0.57,-0.98,9.56,41,0.030,8.24
6.5087,-0.03316,0.02967,0.41713,0.00000,0.00000,0.00000,34,9,62,15,37,-4,61,12,ok,2,0,0.002,6,0.57,-0.98,9.56,41,0.042,8.24
6.5289,-0.03316,0.02967,0.41713,0.00000,0.00000,0.00000,34,8,62,15,35,-4,62,13,ok,2,0,0.002,6,0.57,-0.98,9.56,41,0.055,8.24
6.5337,-0.03316,0.02967,0.41713,0.00000,0.00000,0.00000,35,7,63,16,31,-2,61,13,ok,2,0,0.002,6,0.57,-0.98,9.56,41,0.067,8.24
6.5464,-0.03316,0.02967,0.41713,0.00000,0.00000,0.00000,36,7,63,17,30,0,62,14,ok,2,0,0.002,6,0.57,-0.98,9.56,41,0.080,8.24
6.5689,-0.03316,0.02967,0.41713,0.00000,0.00000,0.00000,36,6,64,18,28,1,62,15,ok,2,0,0.002,6,0.57,-0.98,9.56,41,0.092,8.24
6.5722,-0.03316,0.02967,0.41713,0.00000,0.00000,0.00000,37,5,64,19,26,4,63,15,ok,2,0,0.002,6,0.57,-0.98,9.56,41,0.106,8.24
6.5847,-0.03316,0.02967,0.41713,0.00000,0.00000,0.00000,37,4,64,20,24,7,63,16,ok,2,0,0.002,6,0.57,-0.98,9.56,41,0.119,8.24
6.6049,-0.03316,0.02967,0.41713,0.00000,0.00000,0.00000,38,4,64,22,23,11,63,18,ok,2,0,0.002,6,0.57,-0.98,9.56,41,0.131,8.24
6.6097,-0.03316,0.02967,0.41713,0.00000,0.00000,0.00000,38,3,64,23,22,14,64,18,ok,2,0,0.002,6,0.57,-0.98,9.56,41,0.143,8.24
6.6225,-0.03316,0.02967,0.41713,0.00000,0.00000,0.00000,39,3,63,25,24,13,64,19,ok,2,0,0.002,6,0.57,-0.98,9.56,41,0.156,8.24
6.6451,-0.03316,0.02967,0.41713,0.00000,0.00000,0.00000,40,2,63,27,24,13,64,20,ok,2,0,0.002,7,0.57,-0.98,9.56,41,0.169,8.24
6.6488,-0.03316,0.02967,0.41713,0.00000,0.00000,0.00000,40,2,64,25,25,11,64,21,ok,2,0,0.002,7,0.57,-0.98,9.56,41,0.182,8.24
6.6612,-0.03316,0.02967,0.41713,0.00000,0.00000,0.00000,40,2,67,22,27,10,65,21,ok,2,0,0.002,7,0.57,-0.98,9.56,41,0.195,8.24
6.6849,-0.03840,0.00524,0.41713,0.00000,0.00000,0.00000,41,1,69,19,28,10,65,23,ok,2,0,0.002,7,0.48,-0.58,11.17,42,0.000,8.24
6.6880,-0.03840,0.00524,0.41713,0.00000,0.00000,0.00000,42,1,70,15,29,10,64,24,ok,2,0,0.002,7,0.48,-0.58,11.17,42,0.015,8.24
6.7008,-0.03840,0.00524,0.41713,0.00000,0.00000,0.00000,42,1,71,12,30,9,64,26,ok,2,0,0.002,7,0.48,-0.58,11.17,42,0.027,8.24
6.7209,-0.03840,0.00524,0.41713,0.00000,0.00000,0.00000,44,1,70,12,33,9,65,26,ok,2,0,0.002,7,0.48,-0.58,11.17,42,0.040,8.24
6.7258,-0.03840,0.00524,0.41713,0.00000,0.00000,0.00000,44,1,70,8,33,9,64,29,ok,2,0,0.002,7,0.48,-0.58,11.17,42,0.052,8.24
6.7384,-0.03840,0.00524,0.41713,0.00000,0.00000,0.00000,45,2,69,6,35,9,64,30,ok,2,0,0.002,7,0.48,-0.58,11.17,42,0.065,8.24
6.7649,-0.03840,0.00524,0.41713,0.00000,0.00000,0.00000,46,2,69,3,36,8,64,31,ok,2,0,0.002,7,0.48,-0.58,11.17,42,0.077,8.24
6.7681,-0.03840,0.00524,0.41713,0.00000,0.00000,0.00000,46,2,67,0,37,9,64,33,ok,2,0,0.002,7,0.48,-0.58,11.17,42,0.095,8.24
6.7810,-0.03840,0.00524,0.41713,0.00000,0.00000,0.00000,47,2,66,-2,39,8,63,34,ok,2,0,0.002,7,0.48,-0.58,11.17,42,0.107,8.24
6.8009,-0.03840,0.00524,0.41713,0.00000,0.00000,0.00000,48,2,64,-3,40,8,63,36,ok,2,0,0.002,7,0.48,-0.58,11.17,42,0.120,8.24
6.8058,-0.03840,0.00524,0.41713,0.00000,0.00000,0.00000,48,3,62,-4,41,7,64,36,ok,2,0,0.002,7,0.48,-0.58,11.17,42,0.132,8.24
6.8182,-0.03840,0.00524,0.41713,0.00000,0.00000,0.00000,48,3,61,-6,42,7,65,35,ok,2,0,0.002,7,0.48,-0.58,11.17,42,0.145,8.24
6.8409,-0.03840,0.00524,0.41713,0.00000,0.00000,0.00000,49,3,60,-8,43,7,67,33,ok,2,0,0.002,7,0.48,-0.58,11.17,42,0.157,8.24
6.8440,-0.03840,0.00524,0.41713,0.00000,0.00000,0.00000,50,3,58,-8,44,7,69,27,ok,2,0,0.002,7,0.48,-0.58,11.17,42,0.171,8.24
6.8569,-0.03840,0.00524,0.41713,0.00000,0.00000,0.00000,50,3,56,-9,45,7,70,24,ok,2,0,0.002,7,0.48,-0.58,11.17,42,0.183,8.24
6.8769,-0.10297,0.06632,0.44855,0.00000,0.00000,0.00000,50,3,54,-9,46,7,72,21,ok,2,0,0.002,7,-0.04,-1.31,9.75,43,0.000,8.24
6.8817,-0.10297,0.06632,0.44855,0.00000,0.00000,0.00000,50,5,51,-10,47,7,72,21,ok,2,0,0.002,7,-0.04,-1.31,9.75,43,0.012,8.24
6.8943,-0.10297,0.06632,0.44855,0.00000,0.00000,0.00000,51,6,49,-10,47,7,72,19,ok,2,0,0.002,7,-0.04,-1.31,9.75,43,0.025,8.24
6.9169,-0.10297,0.06632,0.44855,0.00000,0.00000,0.00000,52,5,46,-10,48,7,73,15,ok,2,0,0.002,7,-0.04,-1.31,9.75,43,0.038,8.24
6.9201,-0.10297,0.06632,0.44855,0.00000,0.00000,0.00000,52,6,44,-9,49,7,72,12,ok,2,0,0.002,7,-0.04,-1.31,9.75,43,0.051,8.24
6.9328,-0.10297,0.06632,0.44855,0.00000,0.00000,0.00000,52,6,41,-9,49,7,71,11,ok,2,0,0.002,7,-0.04,-1.31,9.75,43,0.064,8.24
6.9529,-0.10297,0.06632,0.44855,0.00000,0.00000,0.00000,53,6,39,-10,51,7,71,7,ok,2,0,0.002,7,-0.04,-1.31,9.75,43,0.076,8.24
6.9577,-0.10297,0.06632,0.44855,0.00000,0.00000,0.00000,53,6,36,-9,52,6,71,6,ok,2,0,0.002,7,-0.04,-1.31,9.75,43,0.089,8.24
6.9702,-0.10297,0.06632,0.44855,0.00000,0.00000,0.00000,54,6,33,-8,52,7,70,4,ok,2,0,0.002,7,-0.04,-1.31,9.75,43,0.101,8.24
6.9929,-0.10297,0.06632,0.44855,0.00000,0.00000,0.00000,54,7,30,-7,53,7,68,2,ok,2,0,0.002,7,-0.04,-1.31,9.75,43,0.114,8.24
6.9961,-0.10297,0.06632,0.44855,0.00000,0.00000,0.00000,54,7,27,-6,54,8,66,2,ok,2,0,0.002,7,-0.04,-1.31,9.75,43,0.127,8.24
7.0088,-0.10297,0.06632,0.44855,0.00000,0.00000,0.00000,54,8,24,-4,55,8,65,0,ok,2,0,0.002,7,-0.04,-1.31,9.75,43,0.140,8.24
7.0289,-0.10297,0.06632,0.44855,0.00000,0.00000,0.00000,55,9,20,-2,56,8,64,-2,ok,2,0,0.002,7,-0.04,-1.31,9.75,43,0.152,8.24
7.0340,-0.10297,0.06632,0.44855,0.00000,0.00000,0.00000,55,10,18,-1,58,6,62,-3,ok,2,0,0.002,7,-0.04,-1.31,9.75,43,0.165,8.24
7.0463,-0.10297,0.06632,0.44855,0.00000,0.00000,0.00000,56,9,18,0,58,7,60,-4,ok,2,0,0.002,7,-0.04,-1.31,9.75,43,0.177,8.24
7.0689,-0.10297,0.06632,0.44855,0.00000,0.00000,0.00000,56,10,16,3,59,8,58,-4,ok,2,0,0.002,7,-0.04,-1.31,9.75,43,0.190,8.24
7.0724,-0.10297,0.06632,0.44855,0.00000,0.00000,0.00000,56,11,14,6,59,8,56,-5,ok,2,0,0.002,7,-0.04,-1.31,9.75,43,0.203,8.24
7.0851,0.01396,0.04538,0.42237,0.00000,0.00000,0.00000,56,12,13,9,60,9,54,-6,ok,2,0,0.002,7,0.83,0.04,9.12,44,0.000,8.24
7.1049,0.01396,0.04538,0.42237,0.00000,0.00000,0.00000,56,12,12,11,61,10,50,-5,ok,2,0,0.002,7,0.83,0.04,9.12,44,0.013,8.24
7.1099,0.01396,0.04538,0.42237,0.00000,0.00000,0.00000,56,13,14,12,61,10,47,-5,ok,2,0,0.002,7,0.83,0.04,9.12,44,0.025,8.24
7.1222,0.01396,0.04538,0.42237,0.00000,0.00000,0.00000,56,14,15,11,61,11,45,-5,ok,2,0,0.002,7,0.83,0.04,9.12,44,0.038,8.24
7.1449,0.01396,0.04538,0.42237,0.00000,0.00000,0.00000,56,14,16,10,62,11,42,-4,ok,2,0,0.002,7,0.83,0.04,9.12,44,0.050,8.24
7.1480,0.01396,0.04538,0.42237,0.00000,0.00000,0.00000,56,15,18,9,62,12,40,-4,ok,2,0,0.002,7,0.83,0.04,9.12,44,0.063,8.24
7.1610,0.01396,0.04538,0.42237,0.00000,0.00000,0.00000,56,16,19,8,62,12,37,-3,ok,2,0,0.002,7,0.83,0.04,9.12,44,0.076,8.24
7.1809,0.01396,0.04538,0.42237,0.00000,0.00000,0.00000,56,17,21,7,62,13,35,-3,ok,2,0,0.002,7,0.83,0.04,9.12,44,0.088,8.24
7.1857,0.01396,0.04538,0.42237,0.00000,0.00000,0.00000,56,18,21,7,62,14,31,-1,ok,2,0,0.002,7,0.83,0.04,9.12,44,0.101,8.24
7.1982,0.01396,0.04538,0.42237,0.00000,0.00000,0.00000,57,19,23,6,63,14,30,0,ok,2,0,0.002,7,0.83,0.04,9.12,44,0.113,8.24
7.2209,0.01396,0.04538,0.42237,0.00000,0.00000,0.00000,57,20,24,5,63,15,27,1,ok,2,0,0.002,7,0.83,0.04,9.12,44,0.126,8.24
7.2240,0.01396,0.04538,0.42237,0.00000,0.00000,0.00000,58,21,24,4,63,16,25,5,ok,2,0,0.002,7,0.83,0.04,9.12,44,0.139,8.24
7.2368,0.01396,0.04538,0.42237,0.00000,0.00000,0.00000,58,22,25,4,63,17,24,7,ok,2,0,0.002,7,0.83,0.04,9.12,44,0.152,8.24
7.2569,0.01396,0.04538,0.42237,0.00000,0.00000,0.00000,58,23,26,3,64,17,23,11,ok,2,0,0.002,7,0.83,0.04,9.12,44,0.164,8.24
7.2618,0.01396,0.04538,0.42237,0.00000,0.00000,0.00000,57,25,27,3,64,19,22,13,ok,2,0,0.002,7,0.83,0.04,9.12,44,0.177,8.24
7.2744,0.01396,0.04538,0.42237,0.00000,0.00000,0.00000,57,26,28,2,64,20,24,12,ok,2,0,0.002,7,0.83,0.04,9.12,44,0.189,8.24
7.2969,-0.07505,0.08378,0.44506,0.00000,0.00000,0.00000,58,25,29,2,64,21,25,12,ok,2,0,0.002,7,-0.35,-2.42,7.60,45,0.000,8.24
7.3002,-0.07505,0.08378,0.44506,0.00000,0.00000,0.00000,58,21,30,2,65,22,26,10,ok,2,0,0.002,7,-0.35,-2.42,7.60,45,0.013,8.24
7.3129,-0.07505,0.08378,0.44506,0.00000,0.00000,0.00000,60,17,31,2,64,23,27,9,ok,2,0,0.002,7,-0.35,-2.42,7.60,45,0.026,8.24
7.3329,-0.07505,0.08378,0.44506,0.00000,0.00000,0.00000,60,13,32,2,64,24,28,10,ok,2,0,0.002,7,-0.35,-2.42,7.60,45,0.038,8.24
7.3378,-0.07505,0.08378,0.44506,0.00000,0.00000,0.00000,60,10,33,2,65,25,29,9,ok,2,0,0.002,7,-0.35,-2.42,7.60,45,0.051,8.24
7.3502,-0.07505,0.08378,0.44506,0.00000,0.00000,0.00000,60,10,35,2,64,27,31,9,ok,2,0,0.002,7,-0.35,-2.42,7.60,45,0.064,8.24
7.3769,-0.07505,0.08378,0.44506,0.00000,0.00000,0.00000,60,6,36,2,64,29,33,9,ok,2,0,0.002,7,-0.35,-2.42,7.60,45,0.076,8.24
7.3801,-0.07505,0.08378,0.44506,0.00000,0.00000,0.00000,60,4,38,4,64,30,33,9,ok,2,0,0.002,7,-0.35,-2.42,7.60,45,0.093,8.24
7.3929,-0.07505,0.08378,0.44506,0.00000,0.00000,0.00000,60,1,39,4,64,32,35,9,ok,2,0,0.002,7,-0.35,-2.42,7.60,45,0.106,8.24
7.4129,-0.07505,0.08378,0.44506,0.00000,0.00000,0.00000,59,-1,41,3,64,34,36,9,ok,2,0,0.002,7,-0.35,-2.42,7.60,45,0.119,8.24
7.4177,-0.07505,0.08378,0.44506,0.00000,0.00000,0.00000,58,-3,42,3,64,35,37,9,ok,2,0,0.002,7,-0.35,-2.42,7.60,45,0.131,8.24
7.4302,-0.07505,0.08378,0.44506,0.00000,0.00000,0.00000,58,-4,43,3,65,35,38,8,ok,2,0,0.002,7,-0.35,-2.42,7.60,45,0.144,8.24
7.4529,-0.07505,0.08378,0.44506,0.00000,0.00000,0.00000,56,-5,44,3,66,35,39,8,ok,2,0,0.002,7,-0.35,-2.42,7.60,45,0.156,8.24
7.4563,-0.07505,0.08378,0.44506,0.00000,0.00000,0.00000,56,-6,45,3,68,33,41,7,ok,2,0,0.002,7,-0.35,-2.42,7.60,45,0.169,8.24
7.4688,-0.07505,0.08378,0.44506,0.00000,0.00000,0.00000,56,-8,46,3,70,28,42,7,ok,2,0,0.002,7,-0.35,-2.42,7.60,45,0.182,8.24
7.4889,-0.07505,0.08378,0.44506,0.00000,0.00000,0.00000,54,-9,47,4,71,24,44,7,ok,2,0,0.002,7,-0.35,-2.42,7.60,45,0.195,8.24
7.4940,-0.00349,0.05236,0.50615,0.00000,0.00000,0.00000,53,-10,49,4,73,21,44,7,ok,2,0,0.002,7,1.37,0.38,9.46,46,0.000,8.24
7.5063,-0.00349,0.05236,0.50615,0.00000,0.00000,0.00000,52,-10,49,3,74,21,45,7,ok,2,0,0.002,7,1.37,0.38,9.46,46,0.013,8.24
7.5289,-0.00349,0.05236,0.50615,0.00000,0.00000,0.00000,51,-11,49,5,74,18,46,7,ok,2,0,0.002,7,1.37,0.38,9.46,46,0.025,8.24
7.5322,-0.00349,0.05236,0.50615,0.00000,0.00000,0.00000,50,-11,51,6,74,15,47,8,ok,2,0,0.002,7,1.37,0.38,9.46,46,0.038,8.24
7.5448,-0.00349,0.05236,0.50615,0.00000,0.00000,0.00000,48,-11,51,6,74,12,48,8,ok,2,0,0.002,7,1.37,0.38,9.46,46,0.051,8.24
7.5649,-0.00349,0.05236,0.50615,0.00000,0.00000,0.00000,47,-10,53,6,73,10,49,8,ok,2,0,0.002,7,1.37,0.38,9.46,46,0.063,8.24
7.5698,-0.00349,0.05236,0.50615,0.00000,0.00000,0.00000,46,-10,53,6,72,6,49,9,ok,2,0,0.002,7,1.37,0.38,9.46,46,0.076,8.24
7.5823,-0.00349,0.05236,0.50615,0.00000,0.00000,0.00000,44,-11,55,6,72,5,50,8,ok,2,0,0.002,7,1.37,0.38,9.46,46,0.088,8.24
7.6049,-0.00349,0.05236,0.50615,0.00000,0.00000,0.00000,43,-10,56,6,71,3,51,9,ok,2,0,0.002,7,1.37,0.38,9.46,46,0.101,8.24
7.6082,-0.00349,0.05236,0.50615,0.00000,0.00000,0.00000,42,-8,57,7,69,1,52,7,ok,2,0,0.002,7,1.37,0.38,9.46,46,0.114,8.24
7.6208,-0.00349,0.05236,0.50615,0.00000,0.00000,0.00000,40,-7,57,8,66,1,52,8,ok,2,0,0.002,7,1.37,0.38,9.46,46,0.127,8.24
7.6409,-0.00349,0.05236,0.50615,0.00000,0.00000,0.00000,38,-6,57,8,65,-1,53,8,ok,2,0,0.002,7,1.37,0.38,9.46,46,0.139,8.24
7.6458,-0.00349,0.05236,0.50615,0.00000,0.00000,0.00000,37,-4,58,8,64,-3,54,9,ok,2,0,0.002,7,1.37,0.38,9.46,46,0.152,8.24
7.6584,-0.00349,0.05236,0.50615,0.00000,0.00000,0.00000,35,-2,59,9,62,-4,55,8,ok,2,0,0.002,8,1.37,0.38,9.46,46,0.164,8.24
7.6809,-0.00349,0.05236,0.50615,0.00000,0.00000,0.00000,34,-2,60,11,61,-5,55,8,ok,2,0,0.002,8,1.37,0.38,9.46,46,0.177,8.24
7.6842,-0.00349,0.05236,0.50615,0.00000,0.00000,0.00000,34,-1,60,10,59,-6,57,6,ok,2,0,0.002,8,1.37,0.38,9.46,46,0.190,8.24
7.6973,0.02967,-0.04538,0.52185,0.00000,0.00000,0.00000,33,2,61,11,56,-7,57,7,ok,2,0,0.002,8,-0.60,0.00,9.97,47,0.000,8.24
7.7169,0.02967,-0.04538,0.52185,0.00000,0.00000,0.00000,32,5,61,10,54,-7,58,8,ok,2,0,0.002,8,-0.60,0.00,9.97,47,0.013,8.24
7.7218,0.02967,-0.04538,0.52185,0.00000,0.00000,0.00000,32,8,61,12,51,-6,59,9,ok,2,0,0.002,8,-0.60,0.00,9.97,47,0.025,8.24
7.7342,0.02967,-0.04538,0.52185,0.00000,0.00000,0.00000,31,10,61,11,49,-6,59,9,ok,2,0,0.002,8,-0.60,0.00,9.97,47,0.038,8.24
7.7609,0.02967,-0.04538,0.52185,0.00000,0.00000,0.00000,32,11,62,12,46,-6,60,10,ok,2,0,0.002,8,-0.60,0.00,9.97,47,0.050,8.24
7.7642,0.02967,-0.04538,0.52185,0.00000,0.00000,0.00000,32,11,61,13,43,-5,60,10,ok,2,0,0.002,8,-0.60,0.00,9.97,47,0.067,8.24
7.7767,0.02967,-0.04538,0.52185,0.00000,0.00000,0.00000,33,10,62,13,40,-5,61,11,ok,2,0,0.002,8,-0.60,0.00,9.97,47,0.080,8.24
7.7969,0.02967,-0.04538,0.52185,0.00000,0.00000,0.00000,34,9,62,14,37,-4,61,12,ok,2,0,0.002,8,-0.60,0.00,9.97,47,0.092,8.24
7.8017,0.02967,-0.04538,0.52185,0.00000,0.00000,0.00000,34,9,63,14,35,-3,61,13,ok,2,0,0.002,8,-0.60,0.00,9.97,47,0.105,8.24
7.8144,0.02967,-0.04538,0.52185,0.00000,0.00000,0.00000,36,8,63,15,32,-2,61,13,ok,2,0,0.002,8,-0.60,0.00,9.97,47,0.117,8.24
7.8369,0.02967,-0.04538,0.52185,0.00000,0.00000,0.00000,36,8,63,16,30,0,62,14,ok,2,0,0.002,8,-0.60,0.00,9.97,47,0.130,8.24
7.8400,0.02967,-0.04538,0.52185,0.00000,0.00000,0.00000,36,6,64,18,28,1,62,15,ok,2,0,0.002,8,-0.60,0.00,9.97,47,0.143,8.24
7.8527,0.02967,-0.04538,0.52185,0.00000,0.00000,0.00000,37,5,64,19,25,5,63,15,ok,2,0,0.002,8,-0.60,0.00,9.97,47,0.156,8.24
7.8729,0.02967,-0.04538,0.52185,0.00000,0.00000,0.00000,38,5,64,20,24,8,63,16,ok,2,0,0.002,8,-0.60,0.00,9.97,47,0.168,8.24
7.8777,0.02967,-0.04538,0.52185,0.00000,0.00000,0.00000,38,4,64,21,23,11,63,18,ok,2,0,0.002,8,-0.60,0.00,9.97,47,0.181,8.24
7.8903,0.02967,-0.04538,0.52185,0.00000,0.00000,0.00000,38,4,64,23,22,14,63,18,ok,2,0,0.002,8,-0.60,0.00,9.97,47,0.193,8.24
7.9129,-0.14661,0.06632,0.52360,0.00000,0.00000,0.00000,39,4,63,25,24,13,64,19,ok,2,0,0.002,8,0.81,-1.51,10.02,48,0.000,8.24
7.9161,-0.14661,0.06632,0.52360,0.00000,0.00000,0.00000,40,2,64,28,23,13,64,20,ok,2,0,0.002,8,0.81,-1.51,10.02,48,0.013,8.24
7.9288,-0.14661,0.06632,0.52360,0.00000,0.00000,0.00000,40,2,65,26,24,10,64,21,ok,2,0,0.002,8,0.81,-1.51,10.02,48,0.026,8.24
7.9489,-0.14661,0.06632,0.52360,0.00000,0.00000,0.00000,41,1,67,23,25,10,65,22,ok,2,0,0.002,8,0.81,-1.51,10.02,48,0.039,8.24
7.9538,-0.14661,0.06632,0.52360,0.00000,0.00000,0.00000,42,0,69,20,27,10,65,23,ok,2,0,0.002,8,0.81,-1.51,10.02,48,0.051,8.24
7.9662,-0.14661,0.06632,0.52360,0.00000,0.00000,0.00000,42,0,70,16,28,9,65,24,ok,2,0,0.002,8,0.81,-1.51,10.02,48,0.064,8.24
7.9889,-0.14661,0.06632,0.52360,0.00000,0.00000,0.00000,42,0,70,14,30,8,65,26,ok,2,0,0.002,8,0.81,-1.51,10.02,48,0.076,8.24
7.9921,-0.14661,0.06632,0.52360,0.00000,0.00000,0.00000,44,0,70,14,32,8,65,27,ok,2,0,0.002,8,0.81,-1.51,10.02,48,0.089,8.24
8.0048,-0.14661,0.06632,0.52360,0.00000,0.00000,0.00000,44,0,70,10,33,9,64,29,ok,2,0,0.002,8,0.81,-1.51,10.02,48,0.102,8.24
8.0249,-0.14661,0.06632,0.52360,0.00000,0.00000,0.00000,44,1,69,7,35,9,64,31,ok,2,0,0.002,8,0.81,-1.51,10.02,48,0.115,8.24
8.0298,-0.14661,0.06632,0.52360,0.00000,0.00000,0.00000,46,1,68,4,36,8,65,32,ok,2,0,0.002,8,0.81,-1.51,10.02,48,0.127,8.24
8.0422,-0.14661,0.06632,0.52360,0.00000,0.00000,0.00000,46,2,67,1,37,8,64,33,ok,2,0,0.002,8,0.81,-1.51,10.02,48,0.140,8.24
8.0649,-0.14661,0.06632,0.52360,0.00000,0.00000,0.00000,46,2,66,-2,39,7,64,35,ok,2,0,0.002,8,0.81,-1.51,10.02,48,0.152,8.24
8.0681,-0.14661,0.06632,0.52360,0.00000,0.00000,0.00000,48,3,64,-3,40,7,64,36,ok,2,0,0.002,8,0.81,-1.51,10.02,48,0.165,8.24
8.0809,-0.14661,0.06632,0.52360,0.00000,0.00000,0.00000,48,3,62,-4,41,6,65,36,ok,2,0,0.002,8,0.81,-1.51,10.02,48,0.178,8.24
8.1009,-0.14661,0.06632,0.52360,0.00000,0.00000,0.00000,48,3,60,-6,42,6,66,35,ok,2,0,0.002,8,0.81,-1.51,10.02,48,0.191,8.24
8.1060,-0.10647,0.07854,0.54803,0.00000,0.00000,0.00000,48,3,60,-8,43,6,68,33,ok,2,0,0.002,8,1.06,-0.41,12.03,49,0.000,8.24
8.1182,-0.10647,0.07854,0.54803,0.00000,0.00000,0.00000,50,4,57,-8,44,7,70,28,ok,2,0,0.002,8,1.06,-0.41,12.03,49,0.013,8.24
8.1409,-0.10647,0.07854,0.54803,0.00000,0.00000,0.00000,50,3,55,-9,45,7,71,24,ok,2,0,0.002,8,1.06,-0.41,12.03,49,0.025,8.24
8.1440,-0.10647,0.07854,0.54803,0.00000,0.00000,0.00000,50,3,53,-10,46,7,72,21,ok,2,0,0.002,8,1.06,-0.41,12.03,49,0.038,8.24
8.1567,-0.10647,0.07854,0.54803,0.00000,0.00000,0.00000,50,5,51,-11,47,7,73,21,ok,2,0,0.002,8,1.06,-0.41,12.03,49,0.051,8.24
8.1809,-0.10647,0.07854,0.54803,0.00000,0.00000,0.00000,51,6,48,-11,48,7,72,19,ok,2,0,0.002,8,1.06,-0.41,12.03,49,0.064,8.24
8.1842,-0.10647,0.07854,0.54803,0.00000,0.00000,0.00000,52,6,46,-11,49,7,73,15,ok,2,0,0.002,8,1.06,-0.41,12.03,49,0.078,8.24
8.1967,-0.10647,0.07854,0.54803,0.00000,0.00000,0.00000,52,6,43,-10,49,7,72,12,ok,2,0,0.002,8,1.06,-0.41,12.03,49,0.091,8.24
8.2169,-0.10647,0.07854,0.54803,0.00000,0.00000,0.00000,52,7,41,-10,50,7,72,11,ok,2,0,0.002,8,1.06,-0.41,12.03,49,0.104,8.24
8.2218,-0.10647,0.07854,0.54803,0.00000,0.00000,0.00000,53,7,38,-11,51,7,71,7,ok,2,0,0.002,8,1.06,-0.41,12.03,49,0.116,8.24
8.2342,-0.10647,0.07854,0.54803,0.00000,0.00000,0.00000,53,7,36,-10,52,6,71,6,ok,2,0,0.002,8,1.06,-0.41,12.03,49,0.129,8.24
8.2569,-0.10647,0.07854,0.54803,0.00000,0.00000,0.00000,54,7,32,-9,52,7,70,4,ok,2,0,0.002,8,1.06,-0.41,12.03,49,0.141,8.24
8.2601,-0.10647,0.07854,0.54803,0.00000,0.00000,0.00000,54,8,30,-8,53,7,68,2,ok,2,0,0.002,8,1.06,-0.41,12.03,49,0.154,8.24
8.2727,-0.10647,0.07854,0.54803,0.00000,0.00000,0.00000,54,8,26,-6,54,8,66,2,ok,2,0,0.002,8,1.06,-0.41,12.03,49,0.167,8.24
8.2929,-0.10647,0.07854,0.54803,0.00000,0.00000,0.00000,54,8,24,-5,55,8,65,0,ok,2,0,0.002,8,1.06,-0.41,12.03,49,0.180,8.24
8.2977,-0.10647,0.07854,0.54803,0.00000,0.00000,0.00000,55,9,20,-2,56,8,64,-2,ok,2,0,0.002,8,1.06,-0.41,12.03,49,0.192,8.24
8.3106,0.02967,0.01571,0.53582,0.00000,0.00000,0.00000,55,10,18,-1,58,6,62,-3,ok,2,0,0.002,8,0.56,0.15,10.58,50,0.000,8.24
8.3329,0.02967,0.01571,0.53582,0.00000,0.00000,0.00000,55,9,17,0,59,8,59,-4,ok,2,0,0.002,8,0.56,0.15,10.58,50,0.013,8.24
8.3361,0.02967,0.01571,0.53582,0.00000,0.00000,0.00000,56,10,15,2,60,9,57,-5,ok,2,0,0.002,8,0.56,0.15,10.58,50,0.026,8.24
8.3487,0.02967,0.01571,0.53582,0.00000,0.00000,0.00000,56,11,14,5,60,9,55,-6,ok,2,0,0.002,8,0.56,0.15,10.58,50,0.039,8.24
8.3689,0.02967,0.01571,0.53582,0.00000,0.00000,0.00000,56,12,13,8,60,9,53,-6,ok,2,0,0.002,8,0.56,0.15,10.58,50,0.051,8.24
8.3739,0.02967,0.01571,0.53582,0.00000,0.00000,0.00000,56,13,12,11,61,10,50,-5,ok,2,0,0.002,8,0.56,0.15,10.58,50,0.063,8.24
8.3863,0.02967,0.01571,0.53582,0.00000,0.00000,0.00000,56,14,14,11,61,10,47,-5,ok,2,0,0.002,8,0.56,0.15,10.58,50,0.076,8.24
8.4089,0.02967,0.01571,0.53582,0.00000,0.00000,0.00000,56,15,15,10,61,11,45,-5,ok,2,0,0.002,8,0.56,0.15,10.58,50,0.089,8.24
8.4121,0.02967,0.01571,0.53582,0.00000,0.00000,0.00000,56,15,17,9,61,11,42,-4,ok,2,0,0.002,8,0.56,0.15,10.58,50,0.102,8.24
8.4247,0.02967,0.01571,0.53582,0.00000,0.00000,0.00000,56,16,18,8,61,12,40,-5,ok,2,0,0.002,8,0.56,0.15,10.58,50,0.114,8.24
8.4449,0.02967,0.01571,0.53582,0.00000,0.00000,0.00000,56,16,19,8,61,12,37,-4,ok,2,0,0.002,8,0.56,0.15,10.58,50,0.127,8.24
8.4499,0.02967,0.01571,0.53582,0.00000,0.00000,0.00000,56,17,21,7,62,13,35,-3,ok,2,0,0.002,8,0.56,0.15,10.58,50,0.139,8.24
8.4622,0.02967,0.01571,0.53582,0.00000,0.00000,0.00000,56,17,21,7,62,14,31,-1,ok,2,0,0.002,8,0.56,0.15,10.58,50,0.152,8.24
8.4849,0.02967,0.01571,0.53582,0.00000,0.00000,0.00000,58,19,23,6,63,14,30,0,ok,2,0,0.002,8,0.56,0.15,10.58,50,0.164,8.24
8.4881,0.02967,0.01571,0.53582,0.00000,0.00000,0.00000,58,20,24,5,63,15,27,2,ok,2,0,0.002,8,0.56,0.15,10.58,50,0.178,8.24
8.5007,0.02967,0.01571,0.53582,0.00000,0.00000,0.00000,58,21,24,5,63,16,25,5,ok,2,0,0.002,8,0.56,0.15,10.58,50,0.191,8.24
8.5249,0.04363,0.01571,0.54105,0.00000,0.00000,0.00000,58,22,25,4,63,17,24,7,ok,2,0,0.002,8,0.20,0.47,10.10,51,0.000,8.24
8.5282,0.04363,0.01571,0.54105,0.00000,0.00000,0.00000,58,23,26,3,64,18,23,11,ok,2,0,0.002,8,0.20,0.47,10.10,51,0.015,8.24
8.5407,0.04363,0.01571,0.54105,0.00000,0.00000,0.00000,57,26,27,3,64,19,22,13,ok,2,0,0.002,8,0.20,0.47,10.10,51,0.027,8.24
8.5609,0.04363,0.01571,0.54105,0.00000,0.00000,0.00000,57,26,28,2,64,20,24,12,ok,2,0,0.002,8,0.20,0.47,10.10,51,0.040,8.24
8.5657,0.04363,0.01571,0.54105,0.00000,0.00000,0.00000,58,25,29,2,64,21,24,12,ok,2,0,0.002,8,0.20,0.47,10.10,51,0.052,8.24
8.5782,0.04363,0.01571,0.54105,0.00000,0.00000,0.00000,58,22,30,2,65,22,25,10,ok,2,0,0.002,8,0.20,0.47,10.10,51,0.065,8.24
8.6009,0.04363,0.01571,0.54105,0.00000,0.00000,0.00000,60,18,31,1,64,23,26,9,ok,2,0,0.002,8,0.20,0.47,10.10,51,0.078,8.24
8.6042,0.04363,0.01571,0.54105,0.00000,0.00000,0.00000,60,13,33,2,64,25,28,10,ok,2,0,0.002,8,0.20,0.47,10.10,51,0.091,8.24
8.6168,0.04363,0.01571,0.54105,0.00000,0.00000,0.00000,60,11,34,2,65,26,29,9,ok,2,0,0.002,8,0.20,0.47,10.10,51,0.104,8.24
8.6369,0.04363,0.01571,0.54105,0.00000,0.00000,0.00000,60,11,36,2,64,28,30,9,ok,2,0,0.002,8,0.20,0.47,10.10,51,0.116,8.24
8.6417,0.04363,0.01571,0.54105,0.00000,0.00000,0.00000,60,8,37,2,64,29,32,9,ok,2,0,0.002,8,0.20,0.47,10.10,51,0.129,8.24
8.6542,0.04363,0.01571,0.54105,0.00000,0.00000,0.00000,60,5,39,3,64,30,33,9,ok,2,0,0.002,8,0.20,0.47,10.10,51,0.141,8.24
8.6771,0.04363,0.01571,0.54105,0.00000,0.00000,0.00000,60,2,40,3,64,32,34,8,ok,2,0,0.002,8,0.20,0.47,10.10,51,0.154,8.24
8.6804,0.04363,0.01571,0.54105,0.00000,0.00000,0.00000,59,0,42,3,64,34,36,8,ok,2,0,0.002,9,0.20,0.47,10.10,51,0.167,8.24
8.6931,0.04363,0.01571,0.54105,0.00000,0.00000,0.00000,58,-2,43,2,64,35,36,8,ok,2,0,0.002,9,0.20,0.47,10.10,51,0.180,8.24
8.7129,0.04363,0.01571,0.54105,0.00000,0.00000,0.00000,58,-4,44,3,64,35,38,8,ok,2,0,0.002,9,0.20,0.47,10.10,51,0.192,8.24
8.7183,-0.06458,0.02094,0.57596,0.00000,0.00000,0.00000,56,-5,44,3,66,35,39,8,ok,2,0,0.002,9,1.36,0.91,9.17,52,0.000,8.24
8.7305,-0.06458,0.02094,0.57596,0.00000,0.00000,0.00000,56,-6,46,3,67,33,41,7,ok,2,0,0.002,9,1.36,0.91,9.17,52,0.013,8.24
8.7529,-0.06458,0.02094,0.57596,0.00000,0.00000,0.00000,56,-8,47,3,69,28,42,7,ok,2,0,0.002,9,1.36,0.91,9.17,52,0.025,8.24
8.7562,-0.06458,0.02094,0.57596,0.00000,0.00000,0.00000,54,-9,48,4,71,24,44,7,ok,2,0,0.002,9,1.36,0.91,9.17,52,0.038,8.24
8.7687,-0.06458,0.02094,0.57596,0.00000,0.00000,0.00000,54,-11,49,4,72,21,44,7,ok,2,0,0.002,9,1.36,0.91,9.17,52,0.051,8.24
8.7889,-0.06458,0.02094,0.57596,0.00000,0.00000,0.00000,52,-11,49,4,73,20,45,7,ok,2,0,0.002,9,1.36,0.91,9.17,52,0.063,8.24
8.7937,-0.06458,0.02094,0.57596,0.00000,0.00000,0.00000,51,-12,50,6,73,18,46,7,ok,2,0,0.002,9,1.36,0.91,9.17,52,0.076,8.24
8.8064,-0.06458,0.02094,0.57596,0.00000,0.00000,0.00000,50,-12,51,7,74,15,47,8,ok,2,0,0.002,9,1.36,0.91,9.17,52,0.088,8.24
8.8289,-0.06458,0.02094,0.57596,0.00000,0.00000,0.00000,48,-12,52,7,73,12,48,8,ok,2,0,0.002,9,1.36,0.91,9.17,52,0.101,8.24
8.8321,-0.06458,0.02094,0.57596,0.00000,0.00000,0.00000,47,-11,53,7,73,10,49,8,ok,2,0,0.002,9,1.36,0.91,9.17,52,0.114,8.24
8.8448,-0.06458,0.02094,0.57596,0.00000,0.00000,0.00000,46,-11,53,7,72,6,49,9,ok,2,0,0.002,9,1.36,0.91,9.17,52,0.127,8.24
8.8649,-0.06458,0.02094,0.57596,0.00000,0.00000,0.00000,44,-11,56,7,71,5,50,8,ok,2,0,0.002,9,1.36,0.91,9.17,52,0.139,8.24
8.8699,-0.06458,0.02094,0.57596,0.00000,0.00000,0.00000,43,-10,56,7,70,3,51,9,ok,2,0,0.002,9,1.36,0.91,9.17,52,0.152,8.24
8.8824,-0.06458,0.02094,0.57596,0.00000,0.00000,0.00000,42,-8,57,7,69,1,52,8,ok,2,0,0.002,9,1.36,0.91,9.17,52,0.164,8.24
8.9049,-0.06458,0.02094,0.57596,0.00000,0.00000,0.00000,40,-7,57,8,66,1,52,9,ok,2,0,0.002,9,1.36,0.91,9.17,52,0.177,8.24
8.9080,-0.06458,0.02094,0.57596,0.00000,0.00000,0.00000,38,-6,58,8,65,-1,53,9,ok,2,0,0.002,9,1.36,0.91,9.17,52,0.190,8.24
8.9211,0.01571,-0.01222,0.59341,0.00000,0.00000,0.00000,37,-4,58,8,63,-3,54,9,ok,2,0,0.002,9,-0.44,0.67,9.87,53,0.000,8.24
8.9409,0.01571,-0.01222,0.59341,0.00000,0.00000,0.00000,35,-1,59,9,62,-4,55,9,ok,2,0,0.002,9,-0.44,0.67,9.87,53,0.013,8.24
8.9459,0.01571,-0.01222,0.59341,0.00000,0.00000,0.00000,34,-1,60,10,61,-5,54,8,ok,2,0,0.002,9,-0.44,0.67,9.87,53,0.025,8.24
8.9583,0.01571,-0.01222,0.59341,0.00000,0.00000,0.00000,34,0,61,10,59,-5,56,6,ok,2,0,0.002,9,-0.44,0.67,9.87,53,0.038,8.24
8.9809,0.01571,-0.01222,0.59341,0.00000,0.00000,0.00000,33,3,61,11,56,-6,57,7,ok,2,0,0.002,9,-0.44,0.67,9.87,53,0.050,8.24
8.9842,0.01571,-0.01222,0.59341,0.00000,0.00000,0.00000,32,6,61,10,54,-7,58,8,ok,2,0,0.002,9,-0.44,0.67,9.87,53,0.063,8.24
8.9968,0.01571,-0.01222,0.59341,0.00000,0.00000,0.00000,32,9,61,11,51,-6,58,9,ok,2,0,0.002,9,-0.44,0.67,9.87,53,0.076,8.24
9.0169,0.01571,-0.01222,0.59341,0.00000,0.00000,0.00000,31,12,61,11,48,-6,59,9,ok,2,0,0.002,9,-0.44,0.67,9.87,53,0.088,8.24
9.0217,0.01571,-0.01222,0.59341,0.00000,0.00000,0.00000,32,12,62,12,46,-6,60,10,ok,2,0,0.002,9,-0.44,0.67,9.87,53,0.101,8.24
9.0342,0.01571,-0.01222,0.59341,0.00000,0.00000,0.00000,32,12,61,13,43,-5,59,10,ok,2,0,0.002,9,-0.44,0.67,9.87,53,0.113,8.24
9.0569,0.01571,-0.01222,0.59341,0.00000,0.00000,0.00000,33,10,62,13,40,-5,60,11,ok,2,0,0.002,9,-0.44,0.67,9.87,53,0.126,8.24
9.0601,0.01571,-0.01222,0.59341,0.00000,0.00000,0.00000,34,9,62,14,37,-4,60,12,ok,2,0,0.002,9,-0.44,0.67,9.87,53,0.139,8.24
9.0729,0.01571,-0.01222,0.59341,0.00000,0.00000,0.00000,34,8,62,15,34,-3,61,13,ok,2,0,0.002,9,-0.44,0.67,9.87,53,0.152,8.24
9.0929,0.01571,-0.01222,0.59341,0.00000,0.00000,0.00000,36,7,63,16,31,-2,61,13,ok,2,0,0.002,9,-0.44,0.67,9.87,53,0.164,8.24
9.0978,0.01571,-0.01222,0.59341,0.00000,0.00000,0.00000,36,7,63,17,29,0,62,14,ok,2,0,0.002,9,-0.44,0.67,9.87,53,0.177,8.24
9.1102,0.01571,-0.01222,0.59341,0.00000,0.00000,0.00000,36,6,64,18,28,1,62,15,ok,2,0,0.002,9,-0.44,0.67,9.87,53,0.189,8.24
9.1329,-0.10821,0.03840,0.61959,0.00000,0.00000,0.00000,37,5,64,19,25,5,63,15,ok,2,0,0.002,9,1.25,-2.89,15.32,54,0.000,8.24
9.1360,-0.10821,0.03840,0.61959,0.00000,0.00000,0.00000,38,5,64,21,24,7,63,17,ok,2,0,0.002,9,1.25,-2.89,15.32,54,0.013,8.24
9.1487,-0.10821,0.03840,0.61959,0.00000,0.00000,0.00000,38,4,64,22,23,10,63,18,ok,2,0,0.002,9,1.25,-2.89,15.32,54,0.026,8.24
9.1689,-0.10821,0.03840,0.61959,0.00000,0.00000,0.00000,38,3,64,23,22,13,64,18,ok,2,0,0.002,9,1.25,-2.89,15.32,54,0.038,8.24
9.1738,-0.10821,0.03840,0.61959,0.00000,0.00000,0.00000,39,3,63,26,23,13,64,19,ok,2,0,0.002,9,1.25,-2.89,15.32,54,0.051,8.24
9.1862,-0.10821,0.03840,0.61959,0.00000,0.00000,0.00000,40,2,63,28,24,13,65,20,ok,2,0,0.002,9,1.25,-2.89,15.32,54,0.063,8.24
9.2089,-0.10821,0.03840,0.61959,0.00000,0.00000,0.00000,40,1,64,26,25,11,64,21,ok,2,0,0.002,9,1.25,-2.89,15.32,54,0.076,8.24
9.2121,-0.10821,0.03840,0.61959,0.00000,0.00000,0.00000,40,0,67,23,26,10,65,22,ok,2,0,0.002,9,1.25,-2.89,15.32,54,0.089,8.24
9.2248,-0.10821,0.03840,0.61959,0.00000,0.00000,0.00000,41,0,69,20,28,10,65,23,ok,2,0,0.002,9,1.25,-2.89,15.32,54,0.102,8.24
9.2449,-0.10821,0.03840,0.61959,0.00000,0.00000,0.00000,42,0,70,15,29,10,65,24,ok,2,0,0.002,9,1.25,-2.89,15.32,54,0.115,8.24
9.2499,-0.10821,0.03840,0.61959,0.00000,0.00000,0.00000,42,1,71,13,30,9,65,26,ok,2,0,0.002,9,1.25,-2.89,15.32,54,0.127,8.24
9.2623,-0.10821,0.03840,0.61959,0.00000,0.00000,0.00000,44,1,70,12,33,9,65,27,ok,2,0,0.002,9,1.25,-2.89,15.32,54,0.140,8.24
9.2849,-0.10821,0.03840,0.61959,0.00000,0.00000,0.00000,44,2,70,9,33,9,64,29,ok,2,0,0.002,9,1.25,-2.89,15.32,54,0.152,8.24
9.2882,-0.10821,0.03840,0.61959,0.00000,0.00000,0.00000,45,3,69,6,35,8,64,30,ok,2,0,0.002,9,1.25,-2.89,15.32,54,0.165,8.24
9.3008,-0.10821,0.03840,0.61959,0.00000,0.00000,0.00000,46,3,68,3,37,8,64,31,ok,2,0,0.002,9,1.25,-2.89,15.32,54,0.178,8.24
9.3209,-0.10821,0.03840,0.61959,0.00000,0.00000,0.00000,46,3,67,0,38,8,64,33,ok,2,0,0.002,9,1.25,-2.89,15.32,54,0.191,8.24
9.3260,-0.14835,0.04538,0.63705,0.00000,0.00000,0.00000,47,2,66,-2,39,8,64,35,ok,2,0,0.002,9,0.66,-1.34,9.91,55,0.000,8.24
9.3384,-0.14835,0.04538,0.63705,0.00000,0.00000,0.00000,48,3,64,-3,40,7,64,36,ok,2,0,0.002,9,0.66,-1.34,9.91,55,0.013,8.24
9.3609,-0.14835,0.04538,0.63705,0.00000,0.00000,0.00000,48,3,62,-4,41,6,65,36,ok,2,0,0.002,9,0.66,-1.34,9.91,55,0.025,8.24
9.3640,-0.14835,0.04538,0.63705,0.00000,0.00000,0.00000,48,3,61,-6,42,6,66,35,ok,2,0,0.002,9,0.66,-1.34,9.91,55,0.038,8.24
9.3767,-0.14835,0.04538,0.63705,0.00000,0.00000,0.00000,49,3,60,-8,43,6,68,33,ok,2,0,0.002,9,0.66,-1.34,9.91,55,0.051,8.24
9.3969,-0.14835,0.04538,0.63705,0.00000,0.00000,0.00000,50,3,57,-8,44,7,70,28,ok,2,0,0.002,9,0.66,-1.34,9.91,55,0.063,8.24
9.4018,-0.14835,0.04538,0.63705,0.00000,0.00000,0.00000,50,3,55,-9,45,7,71,24,ok,2,0,0.002,9,0.66,-1.34,9.91,55,0.076,8.24
9.4143,-0.14835,0.04538,0.63705,0.00000,0.00000,0.00000,50,3,53,-9,46,7,72,21,ok,2,0,0.002,9,0.66,-1.34,9.91,55,0.088,8.24
9.4369,-0.14835,0.04538,0.63705,0.00000,0.00000,0.00000,50,5,51,-10,47,7,73,21,ok,2,0,0.002,9,0.66,-1.34,9.91,55,0.101,8.24
9.4400,-0.14835,0.04538,0.63705,0.00000,0.00000,0.00000,51,5,48,-10,48,7,73,19,ok,2,0,0.002,9,0.66,-1.34,9.91,55,0.114,8.24
9.4527,-0.14835,0.04538,0.63705,0.00000,0.00000,0.00000,52,5,46,-10,49,7,73,15,ok,2,0,0.002,9,0.66,-1.34,9.91,55,0.127,8.24
9.4729,-0.14835,0.04538,0.63705,0.00000,0.00000,0.00000,52,6,44,-10,49,7,72,12,ok,2,0,0.002,9,0.66,-1.34,9.91,55,0.139,8.24
9.4777,-0.14835,0.04538,0.63705,0.00000,0.00000,0.00000,52,7,41,-10,50,7,72,11,ok,2,0,0.002,9,0.66,-1.34,9.91,55,0.152,8.24
9.4902,-0.14835,0.04538,0.63705,0.00000,0.00000,0.00000,53,7,39,-10,51,7,71,7,ok,2,0,0.002,9,0.66,-1.34,9.91,55,0.164,8.24
9.5129,-0.14835,0.04538,0.63705,0.00000,0.00000,0.00000,53,7,36,-9,52,6,71,6,ok,2,0,0.002,9,0.66,-1.34,9.91,55,0.177,8.24
9.5161,-0.14835,0.04538,0.63705,0.00000,0.00000,0.00000,54,7,33,-9,52,7,70,4,ok,2,0,0.002,9,0.66,-1.34,9.91,55,0.190,8.24
9.5291,-0.14835,0.04538,0.63705,0.00000,0.00000,0.00000,54,8,30,-7,53,7,68,2,ok,2,0,0.003,9,0.66,-1.34,9.91,55,0.203,8.24
9.5489,0.01571,0.03665,0.61959,0.00000,0.00000,0.00000,54,8,27,-6,54,8,66,2,ok,2,0,0.003,9,0.20,0.65,8.90,56,0.000,8.24
9.5538,0.01571,0.03665,0.61959,0.00000,0.00000,0.00000,54,9,24,-5,55,8,65,0,ok,2,0,0.003,9,0.20,0.65,8.90,56,0.012,8.24
9.5662,0.01571,0.03665,0.61959,0.00000,0.00000,0.00000,55,10,20,-3,56,8,63,-2,ok,2,0,0.003,9,0.20,0.65,8.90,56,0.025,8.24
9.5889,0.01571,0.03665,0.61959,0.00000,0.00000,0.00000,55,10,19,-1,58,6,61,-3,ok,2,0,0.003,9,0.20,0.65,8.90,56,0.038,8.24
9.5922,0.01571,0.03665,0.61959,0.00000,0.00000,0.00000,56,10,18,0,59,7,59,-4,ok,2,0,0.003,9,0.20,0.65,8.90,56,0.051,8.24
9.6047,0.01571,0.03665,0.61959,0.00000,0.00000,0.00000,56,11,16,2,59,8,57,-5,ok,2,0,0.003,9,0.20,0.65,8.90,56,0.063,8.24
9.6249,0.01571,0.03665,0.61959,0.00000,0.00000,0.00000,56,12,15,5,60,8,55,-5,ok,2,0,0.003,9,0.20,0.65,8.90,56,0.076,8.24
9.6298,0.01571,0.03665,0.61959,0.00000,0.00000,0.00000,56,13,13,8,60,9,53,-6,ok,2,0,0.003,9,0.20,0.65,8.90,56,0.088,8.24
9.6422,0.01571,0.03665,0.61959,0.00000,0.00000,0.00000,56,13,12,10,60,9,50,-6,ok,2,0,0.003,9,0.20,0.65,8.90,56,0.101,8.24
9.6649,0.01571,0.03665,0.61959,0.00000,0.00000,0.00000,56,14,14,11,60,9,48,-5,ok,2,0,0.003,9,0.20,0.65,8.90,56,0.113,8.24
9.6680,0.01571,0.03665,0.61959,0.00000,0.00000,0.00000,56,14,15,11,61,10,45,-5,ok,2,0,0.003,9,0.20,0.65,8.90,56,0.127,8.24
9.6810,0.01571,0.03665,0.61959,0.00000,0.00000,0.00000,56,14,16,10,61,11,42,-4,ok,2,0,0.003,9,0.20,0.65,8.90,56,0.139,8.24
9.7009,0.01571,0.03665,0.61959,0.00000,0.00000,0.00000,56,15,18,9,61,12,40,-5,ok,2,0,0.003,9,0.20,0.65,8.90,56,0.152,8.24
9.7058,0.01571,0.03665,0.61959,0.00000,0.00000,0.00000,56,15,19,9,61,13,37,-3,ok,2,0,0.003,10,0.20,0.65,8.90,56,0.164,8.24
9.7182,0.01571,0.03665,0.61959,0.00000,0.00000,0.00000,56,16,21,8,62,13,35,-3,ok,2,0,0.003,10,0.20,0.65,8.90,56,0.177,8.24
9.7449,0.00175,0.00698,0.60388,0.00000,0.00000,0.00000,56,17,21,7,62,14,31,-1,ok,2,0,0.003,10,-0.44,-0.03,10.38,57,0.000,8.24
9.7482,0.00175,0.00698,0.60388,0.00000,0.00000,0.00000,57,18,23,6,63,14,30,0,ok,2,0,0.003,10,-0.44,-0.03,10.38,57,0.017,8.24
9.7607,0.00175,0.00698,0.60388,0.00000,0.00000,0.00000,57,20,24,5,63,15,27,2,ok,2,0,0.003,10,-0.44,-0.03,10.38,57,0.030,8.24
9.7809,0.00175,0.00698,0.60388,0.00000,0.00000,0.00000,58,20,24,5,63,16,25,5,ok,2,0,0.003,10,-0.44,-0.03,10.38,57,0.043,8.24
9.7858,0.00175,0.00698,0.60388,0.00000,0.00000,0.00000,58,22,25,4,63,17,24,7,ok,2,0,0.003,10,-0.44,-0.03,10.38,57,0.055,8.24
9.7982,0.00175,0.00698,0.60388,0.00000,0.00000,0.00000,58,23,26,3,64,17,23,11,ok,2,0,0.003,10,-0.44,-0.03,10.38,57,0.068,8.24
9.8209,0.00175,0.00698,0.60388,0.00000,0.00000,0.00000,57,26,27,3,64,19,22,13,ok,2,0,0.003,10,-0.44,-0.03,10.38,57,0.080,8.24
9.8243,0.00175,0.00698,0.60388,0.00000,0.00000,0.00000,57,26,28,2,64,20,24,12,ok,2,0,0.003,10,-0.44,-0.03,10.38,57,0.093,8.24
9.8368,0.00175,0.00698,0.60388,0.00000,0.00000,0.00000,58,25,29,2,64,21,25,12,ok,2,0,0.003,10,-0.44,-0.03,10.38,57,0.106,8.24
9.8569,0.00175,0.00698,0.60388,0.00000,0.00000,0.00000,58,21,30,2,65,22,25,10,ok,2,0,0.003,10,-0.44,-0.03,10.38,57,0.119,8.24
9.8618,0.00175,0.00698,0.60388,0.00000,0.00000,0.00000,60,18,31,1,64,23,27,9,ok,2,0,0.003,10,-0.44,-0.03,10.38,57,0.131,8.24
9.8743,0.00175,0.00698,0.60388,0.00000,0.00000,0.00000,60,13,33,2,64,25,28,10,ok,2,0,0.003,10,-0.44,-0.03,10.38,57,0.144,8.24
9.8969,0.00175,0.00698,0.60388,0.00000,0.00000,0.00000,60,11,34,2,65,26,29,9,ok,2,0,0.003,10,-0.44,-0.03,10.38,57,0.156,8.24
9.9000,0.00175,0.00698,0.60388,0.00000,0.00000,0.00000,60,11,36,2,64,28,30,9,ok,2,0,0.003,10,-0.44,-0.03,10.38,57,0.169,8.24
9.9129,0.00175,0.00698,0.60388,0.00000,0.00000,0.00000,60,8,37,2,64,29,32,9,ok,2,0,0.003,10,-0.44,-0.03,10.38,57,0.182,8.24
9.9329,0.00175,0.00698,0.60388,0.00000,0.00000,0.00000,60,5,39,3,64,30,33,9,ok,2,0,0.003,10,-0.44,-0.03,10.38,57,0.195,8.24
9.9380,-0.08727,0.03142,0.64577,0.00000,0.00000,0.00000,60,2,40,3,64,32,34,9,ok,2,0,0.003,10,-1.17,-0.06,8.37,58,0.000,8.24
9.9504,-0.08727,0.03142,0.64577,0.00000,0.00000,0.00000,59,0,42,3,63,33,36,9,ok,2,0,0.003,10,-1.17,-0.06,8.37,58,0.012,8.24
9.9729,-0.08727,0.03142,0.64577,0.00000,0.00000,0.00000,58,-2,43,3,63,34,37,9,ok,2,0,0.003,10,-1.17,-0.06,8.37,58,0.025,8.24
9.9761,-0.08727,0.03142,0.64577,0.00000,0.00000,0.00000,58,-4,44,3,64,35,38,8,ok,2,0,0.003,10,-1.17,-0.06,8.37,58,0.038,8.24
9.9887,-0.08727,0.03142,0.64577,0.00000,0.00000,0.00000,57,-5,44,3,65,35,39,8,ok,2,0,0.003,10,-1.17,-0.06,8.37,58,0.051,8.24
10.0089,-0.08727,0.03142,0.64577,0.00000,0.00000,0.00000,56,-7,45,3,67,33,41,7,ok,2,0,0.003,10,-1.17,-0.06,8.37,58,0.064,8.24
10.0137,-0.08727,0.03142,0.64577,0.00000,0.00000,0.00000,56,-9,47,3,69,28,42,7,ok,2,0,0.003,10,-1.17,-0.06,8.37,58,0.076,8.24
10.0264,-0.08727,0.03142,0.64577,0.00000,0.00000,0.00000,54,-10,48,5,71,24,43,7,ok,2,0,0.003,10,-1.17,-0.06,8.37,58,0.089,8.24
10.0529,-0.08727,0.03142,0.64577,0.00000,0.00000,0.00000,54,-11,49,4,73,21,44,7,ok,2,0,0.003,10,-1.17,-0.06,8.37,58,0.101,8.24
10.0561,-0.08727,0.03142,0.64577,0.00000,0.00000,0.00000,52,-11,49,4,74,20,45,8,ok,2,0,0.003,10,-1.17,-0.06,8.37,58,0.118,8.24
10.0688,-0.08727,0.03142,0.64577,0.00000,0.00000,0.00000,51,-12,49,6,74,18,46,8,ok,2,0,0.003,10,-1.17,-0.06,8.37,58,0.131,8.24
10.0889,-0.08727,0.03142,0.64577,0.00000,0.00000,0.00000,50,-11,51,7,74,14,47,8,ok,2,0,0.003,10,-1.17,-0.06,8.37,58,0.144,8.24
10.0940,-0.08727,0.03142,0.64577,0.00000,0.00000,0.00000,48,-11,52,6,73,11,48,8,ok,2,0,0.003,10,-1.17,-0.06,8.37,58,0.156,8.24
10.1066,-0.08727,0.03142,0.64577,0.00000,0.00000,0.00000,47,-10,53,6,73,10,49,8,ok,2,0,0.003,10,-1.17,-0.06,8.37,58,0.169,8.18
10.1289,-0.08727,0.03142,0.64577,0.00000,0.00000,0.00000,46,-11,53,7,72,6,50,9,ok,2,0,0.003,10,-1.17,-0.06,8.37,58,0.181,8.18
10.1324,0.05760,0.01047,0.65450,0.00000,0.00000,0.00000,44,-11,55,7,72,4,50,8,ok,2,0,0.003,10,1.08,0.66,9.92,59,0.000,8.18
10.1448,0.05760,0.01047,0.65450,0.00000,0.00000,0.00000,43,-10,56,7,71,4,51,9,ok,2,0,0.003,10,1.08,0.66,9.92,59,0.013,8.18
10.1649,0.05760,0.01047,0.65450,0.00000,0.00000,0.00000,42,-8,57,7,69,1,51,8,ok,2,0,0.003,10,1.08,0.66,9.92,59,0.025,8.18
10.1698,0.05760,0.01047,0.65450,0.00000,0.00000,0.00000,40,-7,57,7,67,2,52,9,ok,2,0,0.003,10,1.08,0.66,9.92,59,0.038,8.18
10.1823,0.05760,0.01047,0.65450,0.00000,0.00000,0.00000,38,-5,58,7,66,-1,52,8,ok,2,0,0.003,10,1.08,0.66,9.92,59,0.050,8.18
10.2049,0.05760,0.01047,0.65450,0.00000,0.00000,0.00000,37,-3,58,8,64,-2,53,9,ok,2,0,0.003,10,1.08,0.66,9.92,59,0.063,8.18
10.2081,0.05760,0.01047,0.65450,0.00000,0.00000,0.00000,35,0,59,8,62,-4,54,8,ok,2,0,0.003,10,1.08,0.66,9.92,59,0.076,8.18
10.2208,0.05760,0.01047,0.65450,0.00000,0.00000,0.00000,35,0,60,10,61,-5,54,8,ok,2,0,0.003,10,1.08,0.66,9.92,59,0.089,8.18
10.2409,0.05760,0.01047,0.65450,0.00000,0.00000,0.00000,34,1,61,9,59,-6,56,6,ok,2,0,0.003,10,1.08,0.66,9.92,59,0.101,8.18
10.2458,0.05760,0.01047,0.65450,0.00000,0.00000,0.00000,34,3,61,10,56,-6,57,7,ok,2,0,0.003,10,1.08,0.66,9.92,59,0.114,8.18
10.2582,0.05760,0.01047,0.65450,0.00000,0.00000,0.00000,32,6,61,10,54,-7,57,8,ok,2,0,0.003,10,1.08,0.66,9.92,59,0.126,8.18
10.2809,0.05760,0.01047,0.65450,0.00000,0.00000,0.00000,32,9,61,12,51,-6,58,8,ok,2,0,0.003,10,1.08,0.66,9.92,59,0.139,8.18
10.2840,0.05760,0.01047,0.65450,0.00000,0.00000,0.00000,31,11,61,12,48,-6,59,9,ok,2,0,0.003,10,1.08,0.66,9.92,59,0.152,8.18
10.2970,0.05760,0.01047,0.65450,0.00000,0.00000,0.00000,32,11,62,13,46,-6,60,10,ok,2,0,0.003,10,1.08,0.66,9.92,59,0.165,8.18
10.3169,0.05760,0.01047,0.65450,0.00000,0.00000,0.00000,32,11,61,13,43,-5,59,10,ok,2,0,0.003,10,1.08,0.66,9.92,59,0.177,8.18
10.3218,0.05760,0.01047,0.65450,0.00000,0.00000,0.00000,33,9,62,14,40,-4,60,11,ok,2,0,0.003,10,1.08,0.66,9.92,59,0.190,8.18
10.3345,-0.01745,0.05236,0.66672,0.00000,0.00000,0.00000,34,9,62,14,37,-4,60,11,ok,2,0,0.003,10,1.78,0.42,9.60,60,0.000,8.18
10.3569,-0.01745,0.05236,0.66672,0.00000,0.00000,0.00000,34,8,62,15,34,-3,61,13,ok,2,0,0.003,10,1.78,0.42,9.60,60,0.013,8.18
10.3600,-0.01745,0.05236,0.66672,0.00000,0.00000,0.00000,35,7,63,16,31,-2,61,13,ok,2,0,0.003,10,1.78,0.42,9.60,60,0.026,8.18
10.3728,-0.01745,0.05236,0.66672,0.00000,0.00000,0.00000,36,7,63,17,29,-1,62,14,ok,2,0,0.003,10,1.78,0.42,9.60,60,0.039,8.18
10.3929,-0.01745,0.05236,0.66672,0.00000,0.00000,0.00000,36,5,64,18,27,1,62,15,ok,2,0,0.003,10,1.78,0.42,9.60,60,0.051,8.18
10.3978,-0.01745,0.05236,0.66672,0.00000,0.00000,0.00000,37,4,64,20,25,4,63,15,ok,2,0,0.003,10,1.78,0.42,9.60,60,0.063,8.18
10.4104,-0.01745,0.05236,0.66672,0.00000,0.00000,0.00000,37,4,64,21,24,7,63,16,ok,2,0,0.003,10,1.78,0.42,9.60,60,0.076,8.18
10.4369,-0.01745,0.05236,0.66672,0.00000,0.00000,0.00000,38,3,64,22,23,11,63,18,ok,2,0,0.003,10,1.78,0.42,9.60,60,0.089,8.18
10.4400,-0.01745,0.05236,0.66672,0.00000,0.00000,0.00000,38,3,64,23,22,14,64,18,ok,2,0,0.003,10,1.78,0.42,9.60,60,0.106,8.18
10.4528,-0.01745,0.05236,0.66672,0.00000,0.00000,0.00000,38,2,63,26,24,13,64,19,ok,2,0,0.003,10,1.78,0.42,9.60,60,0.118,8.18
10.4729,-0.01745,0.05236,0.66672,0.00000,0.00000,0.00000,39,2,63,27,24,13,64,20,ok,2,0,0.003,10,1.78,0.42,9.60,60,0.131,8.18
10.4778,-0.01745,0.05236,0.66672,0.00000,0.00000,0.00000,40,2,64,26,25,11,65,21,ok,2,0,0.003,10,1.78,0.42,9.60,60,0.143,8.18
10.4902,-0.01745,0.05236,0.66672,0.00000,0.00000,0.00000,40,1,67,22,27,10,65,21,ok,2,0,0.003,10,1.78,0.42,9.60,60,0.156,8.18
10.5129,-0.01745,0.05236,0.66672,0.00000,0.00000,0.00000,41,1,69,19,28,10,65,23,ok,2,0,0.003,10,1.78,0.42,9.60,60,0.168,8.18
10.5162,-0.01745,0.05236,0.66672,0.00000,0.00000,0.00000,42,1,70,15,29,10,64,24,ok,2,0,0.003,10,1.78,0.42,9.60,60,0.182,8.18
10.5288,-0.01745,0.05236,0.66672,0.00000,0.00000,0.00000,42,1,70,12,30,9,64,26,ok,2,0,0.003,10,1.78,0.42,9.60,60,0.195,8.18
10.5489,-0.10647,-0.02094,0.71908,0.00000,0.00000,0.00000,44,1,70,12,33,9,65,26,ok,2,0,0.003,10,-0.73,-1.71,10.96,61,0.000,8.18
10.5538,-0.10647,-0.02094,0.71908,0.00000,0.00000,0.00000,44,1,70,9,33,9,65,29,ok,2,0,0.003,10,-0.73,-1.71,10.96,61,0.012,8.18
10.5663,-0.10647,-0.02094,0.71908,0.00000,0.00000,0.00000,45,2,69,6,35,8,64,30,ok,2,0,0.003,10,-0.73,-1.71,10.96,61,0.025,8.18
10.5889,-0.10647,-0.02094,0.71908,0.00000,0.00000,0.00000,46,2,69,3,36,8,65,31,ok,2,0,0.003,10,-0.73,-1.71,10.96,61,0.038,8.18
10.5921,-0.10647,-0.02094,0.71908,0.00000,0.00000,0.00000,46,2,67,0,37,8,65,33,ok,2,0,0.003,10,-0.73,-1.71,10.96,61,0.051,8.18
10.6048,-0.10647,-0.02094,0.71908,0.00000,0.00000,0.00000,47,1,66,-1,38,8,64,35,ok,2,0,0.003,10,-0.73,-1.71,10.96,61,0.063,8.18
10.6249,-0.10647,-0.02094,0.71908,0.00000,0.00000,0.00000,48,2,65,-3,39,8,64,36,ok,2,0,0.003,10,-0.73,-1.71,10.96,61,0.076,8.18
10.6298,-0.10647,-0.02094,0.71908,0.00000,0.00000,0.00000,48,2,62,-4,41,7,65,36,ok,2,0,0.003,10,-0.73,-1.71,10.96,61,0.088,8.18
10.6422,-0.10647,-0.02094,0.71908,0.00000,0.00000,0.00000,48,2,61,-5,42,7,65,35,ok,2,0,0.003,10,-0.73,-1.71,10.96,61,0.101,8.18
10.6649,-0.10647,-0.02094,0.71908,0.00000,0.00000,0.00000,49,2,60,-7,43,7,67,33,ok,2,0,0.003,10,-0.73,-1.71,10.96,61,0.113,8.18
10.6683,-0.10647,-0.02094,0.71908,0.00000,0.00000,0.00000,50,3,58,-8,44,7,69,27,ok,2,0,0.003,10,-0.73,-1.71,10.96,61,0.127,8.18
10.6808,-0.10647,-0.02094,0.71908,0.00000,0.00000,0.00000,50,3,56,-9,45,7,70,24,ok,2,0,0.003,10,-0.73,-1.71,10.96,61,0.139,8.18
10.7009,-0.10647,-0.02094,0.71908,0.00000,0.00000,0.00000,50,3,54,-9,46,7,72,21,ok,2,0,0.003,10,-0.73,-1.71,10.96,61,0.152,8.18
10.7058,-0.10647,-0.02094,0.71908,0.00000,0.00000,0.00000,50,5,51,-10,47,7,72,21,ok,2,0,0.003,10,-0.73,-1.71,10.96,61,0.164,8.18
10.7184,-0.10647,-0.02094,0.71908,0.00000,0.00000,0.00000,51,6,49,-10,47,7,72,19,ok,2,0,0.003,10,-0.73,-1.71,10.96,61,0.177,8.18
10.7409,-0.10647,-0.02094,0.71908,0.00000,0.00000,0.00000,52,6,46,-10,48,7,72,15,ok,2,0,0.003,11,-0.73,-1.71,10.96,61,0.189,8.18
10.7445,-0.07330,-0.01571,0.77144,0.00000,0.00000,0.00000,52,6,44,-10,49,7,72,13,ok,2,0,0.003,11,-0.32,-0.71,9.53,62,0.000,8.18
10.7568,-0.07330,-0.01571,0.77144,0.00000,0.00000,0.00000,52,7,42,-10,50,7,71,11,ok,2,0,0.003,11,-0.32,-0.71,9.53,62,0.013,8.18
10.7769,-0.07330,-0.01571,0.77144,0.00000,0.00000,0.00000,54,7,39,-10,51,7,70,7,ok,2,0,0.003,11,-0.32,-0.71,9.53,62,0.025,8.18
10.7819,-0.07330,-0.01571,0.77144,0.00000,0.00000,0.00000,54,7,37,-9,52,6,70,6,ok,2,0,0.003,11,-0.32,-0.71,9.53,62,0.038,8.18
10.7943,-0.07330,-0.01571,0.77144,0.00000,0.00000,0.00000,54,8,34,-9,52,7,69,4,ok,2,0,0.003,11,-0.32,-0.71,9.53,62,0.050,8.18
10.8169,-0.07330,-0.01571,0.77144,0.00000,0.00000,0.00000,54,8,31,-7,53,7,67,2,ok,2,0,0.003,11,-0.32,-0.71,9.53,62,0.063,8.18
10.8201,-0.07330,-0.01571,0.77144,0.00000,0.00000,0.00000,54,8,27,-6,54,8,66,2,ok,2,0,0.003,11,-0.32,-0.71,9.53,62,0.076,8.18
10.8328,-0.07330,-0.01571,0.77144,0.00000,0.00000,0.00000,54,9,25,-5,55,8,65,0,ok,2,0,0.003,11,-0.32,-0.71,9.53,62,0.089,8.18
10.8529,-0.07330,-0.01571,0.77144,0.00000,0.00000,0.00000,55,10,21,-2,56,8,64,-2,ok,2,0,0.003,11,-0.32,-0.71,9.53,62,0.101,8.18
10.8580,-0.07330,-0.01571,0.77144,0.00000,0.00000,0.00000,56,10,19,-1,58,6,61,-3,ok,2,0,0.003,11,-0.32,-0.71,9.53,62,0.114,8.18
10.8702,-0.07330,-0.01571,0.77144,0.00000,0.00000,0.00000,56,10,18,1,58,7,59,-4,ok,2,0,0.003,11,-0.32,-0.71,9.53,62,0.126,8.18
10.8929,-0.07330,-0.01571,0.77144,0.00000,0.00000,0.00000,56,11,16,3,59,8,58,-4,ok,2,0,0.003,11,-0.32,-0.71,9.53,62,0.139,8.18
10.8960,-0.07330,-0.01571,0.77144,0.00000,0.00000,0.00000,56,11,15,6,59,8,55,-5,ok,2,0,0.003,11,-0.32,-0.71,9.53,62,0.152,8.18
10.9090,-0.07330,-0.01571,0.77144,0.00000,0.00000,0.00000,56,12,13,9,60,9,53,-6,ok,2,0,0.003,11,-0.32,-0.71,9.53,62,0.165,8.18
10.9289,-0.07330,-0.01571,0.77144,0.00000,0.00000,0.00000,56,12,13,12,60,9,50,-5,ok,2,0,0.003,11,-0.32,-0.71,9.53,62,0.177,8.18
10.9338,-0.07330,-0.01571,0.77144,0.00000,0.00000,0.00000,56,13,14,12,60,9,48,-5,ok,2,0,0.003,11,-0.32,-0.71,9.53,62,0.190,8.18
10.9465,0.02443,0.05585,0.73653,0.00000,0.00000,0.00000,56,13,15,12,61,10,45,-5,ok,2,0,0.003,11,0.59,0.26,11.12,63,0.000,8.18
10.9689,0.02443,0.05585,0.73653,0.00000,0.00000,0.00000,56,14,17,10,61,11,42,-4,ok,2,0,0.003,11,0.59,0.26,11.12,63,0.013,8.18
10.9721,0.02443,0.05585,0.73653,0.00000,0.00000,0.00000,56,15,19,9,61,12,40,-4,ok,2,0,0.003,11,0.59,0.26,11.12,63,0.026,8.18
10.9848,0.02443,0.05585,0.73653,0.00000,0.00000,0.00000,56,16,19,9,61,12,36,-3,ok,2,0,0.003,11,0.59,0.26,11.12,63,0.039,8.18
11.0049,0.02443,0.05585,0.73653,0.00000,0.00000,0.00000,56,17,21,7,62,13,34,-3,ok,2,0,0.003,11,0.59,0.26,11.12,63,0.051,8.18
11.0097,0.02443,0.05585,0.73653,0.00000,0.00000,0.00000,56,18,21,7,62,14,30,-1,ok,2,0,0.003,11,0.59,0.26,11.12,63,0.063,8.18
11.0224,0.02443,0.05585,0.73653,0.00000,0.00000,0.00000,58,19,23,6,63,14,29,0,ok,2,0,0.003,11,0.59,0.26,11.12,63,0.076,8.18
11.0449,0.02443,0.05585,0.73653,0.00000,0.00000,0.00000,57,20,24,5,63,15,27,2,ok,2,0,0.003,11,0.59,0.26,11.12,63,0.089,8.18
11.0481,0.02443,0.05585,0.73653,0.00000,0.00000,0.00000,58,21,24,4,63,16,25,5,ok,2,0,0.003,11,0.59,0.26,11.12,63,0.102,8.18
11.0609,0.02443,0.05585,0.73653,0.00000,0.00000,0.00000,58,22,25,4,63,17,24,7,ok,2,0,0.003,11,0.59,0.26,11.12,63,0.115,8.18
11.0809,0.02443,0.05585,0.73653,0.00000,0.00000,0.00000,58,23,25,3,64,17,23,11,ok,2,0,0.003,11,0.59,0.26,11.12,63,0.127,8.18
11.0858,0.02443,0.05585,0.73653,0.00000,0.00000,0.00000,57,26,27,3,64,19,22,13,ok,2,0,0.003,11,0.59,0.26,11.12,63,0.140,8.18
11.0983,0.02443,0.05585,0.73653,0.00000,0.00000,0.00000,57,26,27,2,64,20,24,12,ok,2,0,0.003,11,0.59,0.26,11.12,63,0.152,8.18
11.1209,0.02443,0.05585,0.73653,0.00000,0.00000,0.00000,58,25,29,2,64,21,25,12,ok,2,0,0.003,11,0.59,0.26,11.12,63,0.165,8.18
11.1241,0.02443,0.05585,0.73653,0.00000,0.00000,0.00000,58,21,30,2,65,22,25,10,ok,2,0,0.003,11,0.59,0.26,11.12,63,0.178,8.18
11.1368,0.02443,0.05585,0.73653,0.00000,0.00000,0.00000,60,17,31,1,64,23,27,9,ok,2,0,0.003,11,0.59,0.26,11.12,63,0.191,8.18
11.1569,-0.09425,0.09425,0.77318,0.00000,0.00000,0.00000,60,13,32,2,64,25,28,10,ok,2,0,0.003,11,0.37,-1.48,8.99,64,0.000,8.18
11.1618,-0.09425,0.09425,0.77318,0.00000,0.00000,0.00000,60,11,34,2,65,25,29,9,ok,2,0,0.003,11,0.37,-1.48,8.99,64,0.012,8.18
11.1743,-0.09425,0.09425,0.77318,0.00000,0.00000,0.00000,60,10,36,2,64,27,31,9,ok,2,0,0.003,11,0.37,-1.48,8.99,64,0.025,8.18
11.1969,-0.09425,0.09425,0.77318,0.00000,0.00000,0.00000,60,7,37,2,63,28,33,9,ok,2,0,0.003,11,0.37,-1.48,8.99,64,0.037,8.18
11.2001,-0.09425,0.09425,0.77318,0.00000,0.00000,0.00000,60,4,38,3,64,30,33,9,ok,2,0,0.003,11,0.37,-1.48,8.99,64,0.051,8.18
11.2128,-0.09425,0.09425,0.77318,0.00000,0.00000,0.00000,60,1,39,4,64,31,35,9,ok,2,0,0.003,11,0.37,-1.48,8.99,64,0.064,8.18
11.2329,-0.09425,0.09425,0.77318,0.00000,0.00000,0.00000,59,-2,41,3,64,33,36,9,ok,2,0,0.003,11,0.37,-1.48,8.99,64,0.076,8.18
11.2380,-0.09425,0.09425,0.77318,0.00000,0.00000,0.00000,58,-4,42,3,64,35,37,9,ok,2,0,0.003,11,0.37,-1.48,8.99,64,0.088,8.18
11.2504,-0.09425,0.09425,0.77318,0.00000,0.00000,0.00000,58,-5,43,3,65,35,38,8,ok,2,0,0.003,11,0.37,-1.48,8.99,64,0.101,8.18
11.2730,-0.09425,0.09425,0.77318,0.00000,0.00000,0.00000,56,-6,43,3,66,35,39,8,ok,2,0,0.003,11,0.37,-1.48,8.99,64,0.113,8.18
11.2761,-0.09425,0.09425,0.77318,0.00000,0.00000,0.00000,56,-7,45,3,68,33,41,7,ok,2,0,0.003,11,0.37,-1.48,8.99,64,0.127,8.18
11.2889,-0.09425,0.09425,0.77318,0.00000,0.00000,0.00000,56,-9,46,3,70,28,42,7,ok,2,0,0.003,11,0.37,-1.48,8.99,64,0.140,8.18
11.3089,-0.09425,0.09425,0.77318,0.00000,0.00000,0.00000,54,-9,47,4,71,24,44,7,ok,2,0,0.003,11,0.37,-1.48,8.99,64,0.152,8.18
11.3138,-0.09425,0.09425,0.77318,0.00000,0.00000,0.00000,53,-10,48,4,73,21,44,7,ok,2,0,0.003,11,0.37,-1.48,8.99,64,0.165,8.18
11.3265,-0.09425,0.09425,0.77318,0.00000,0.00000,0.00000,52,-10,49,3,74,20,45,7,ok,2,0,0.003,11,0.37,-1.48,8.99,64,0.177,8.18
11.3489,-0.09425,0.09425,0.77318,0.00000,0.00000,0.00000,51,-11,49,6,74,18,46,7,ok,2,0,0.003,11,0.37,-1.48,8.99,64,0.190,8.18
11.3524,0.03840,0.02967,0.80460,0.00000,0.00000,0.00000,50,-11,50,6,74,14,47,8,ok,2,0,0.003,11,-0.55,-0.43,9.47,65,0.000,8.18
11.3648,0.03840,0.02967,0.80460,0.00000,0.00000,0.00000,48,-11,51,5,74,12,48,8,ok,2,0,0.003,11,-0.55,-0.43,9.47,65,0.013,8.18
11.3849,0.03840,0.02967,0.80460,0.00000,0.00000,0.00000,47,-10,52,6,74,10,49,8,ok,2,0,0.003,11,-0.55,-0.43,9.47,65,0.025,8.18
11.3900,0.03840,0.02967,0.80460,0.00000,0.00000,0.00000,46,-10,53,6,73,7,49,9,ok,2,0,0.003,11,-0.55,-0.43,9.47,65,0.038,8.18
11.4022,0.03840,0.02967,0.80460,0.00000,0.00000,0.00000,44,-10,55,6,73,5,50,8,ok,2,0,0.003,11,-0.55,-0.43,9.47,65,0.050,8.18
11.4249,0.03840,0.02967,0.80460,0.00000,0.00000,0.00000,43,-9,56,6,71,4,51,9,ok,2,0,0.003,11,-0.55,-0.43,9.47,65,0.063,8.18
11.4281,0.03840,0.02967,0.80460,0.00000,0.00000,0.00000,42,-8,57,6,69,1,52,8,ok,2,0,0.003,11,-0.55,-0.43,9.47,65,0.076,8.18
11.4408,0.03840,0.02967,0.80460,0.00000,0.00000,0.00000,40,-6,57,7,66,2,52,8,ok,2,0,0.003,11,-0.55,-0.43,9.47,65,0.089,8.18
11.4609,0.03840,0.02967,0.80460,0.00000,0.00000,0.00000,38,-5,58,7,65,-1,53,8,ok,2,0,0.003,11,-0.55,-0.43,9.47,65,0.101,8.18
11.4658,0.03840,0.02967,0.80460,0.00000,0.00000,0.00000,37,-3,58,8,64,-3,54,8,ok,2,0,0.003,11,-0.55,-0.43,9.47,65,0.114,8.18
11.4784,0.03840,0.02967,0.80460,0.00000,0.00000,0.00000,35,-1,59,9,62,-4,55,8,ok,2,0,0.003,11,-0.55,-0.43,9.47,65,0.126,8.18
11.5009,0.03840,0.02967,0.80460,0.00000,0.00000,0.00000,34,-1,60,10,61,-5,54,8,ok,2,0,0.003,11,-0.55,-0.43,9.47,65,0.139,8.18
11.5041,0.03840,0.02967,0.80460,0.00000,0.00000,0.00000,34,-1,60,10,59,-6,56,6,ok,2,0,0.003,11,-0.55,-0.43,9.47,65,0.152,8.18
11.5167,0.03840,0.02967,0.80460,0.00000,0.00000,0.00000,33,2,61,11,56,-6,57,7,ok,2,0,0.003,11,-0.55,-0.43,9.47,65,0.165,8.18
11.5369,0.03840,0.02967,0.80460,0.00000,0.00000,0.00000,32,5,61,11,54,-7,58,8,ok,2,0,0.003,11,-0.55,-0.43,9.47,65,0.177,8.18
11.5419,0.03840,0.02967,0.80460,0.00000,0.00000,0.00000,32,8,61,12,51,-6,58,8,ok,2,0,0.003,11,-0.55,-0.43,9.47,65,0.190,8.18
11.5545,0.02618,0.03142,0.83078,0.00000,0.00000,0.00000,31,10,61,12,48,-6,59,9,ok,2,0,0.003,11,0.46,-0.90,9.72,66,0.000,8.18
11.5769,0.02618,0.03142,0.83078,0.00000,0.00000,0.00000,32,11,62,13,46,-6,60,10,ok,2,0,0.003,11,0.46,-0.90,9.72,66,0.012,8.18
11.5801,0.02618,0.03142,0.83078,0.00000,0.00000,0.00000,32,10,61,14,43,-5,60,10,ok,2,0,0.003,11,0.46,-0.90,9.72,66,0.026,8.18
11.5928,0.02618,0.03142,0.83078,0.00000,0.00000,0.00000,33,9,62,14,40,-5,60,11,ok,2,0,0.003,11,0.46,-0.90,9.72,66,0.039,8.18
11.6129,0.02618,0.03142,0.83078,0.00000,0.00000,0.00000,34,8,62,15,37,-4,61,12,ok,2,0,0.003,11,0.46,-0.90,9.72,66,0.051,8.18
11.6178,0.02618,0.03142,0.83078,0.00000,0.00000,0.00000,34,8,62,15,35,-3,61,13,ok,2,0,0.003,11,0.46,-0.90,9.72,66,0.063,8.18
11.6302,0.02618,0.03142,0.83078,0.00000,0.00000,0.00000,35,7,63,16,31,-2,61,13,ok,2,0,0.003,11,0.46,-0.90,9.72,66,0.076,8.18
11.6529,0.02618,0.03142,0.83078,0.00000,0.00000,0.00000,35,7,63,17,30,0,62,14,ok,2,0,0.003,11,0.46,-0.90,9.72,66,0.089,8.18
11.6561,0.02618,0.03142,0.83078,0.00000,0.00000,0.00000,36,6,64,18,28,1,62,15,ok,2,0,0.003,11,0.46,-0.90,9.72,66,0.102,8.18
11.6688,0.02618,0.03142,0.83078,0.00000,0.00000,0.00000,36,5,64,19,25,5,63,15,ok,2,0,0.003,11,0.46,-0.90,9.72,66,0.115,8.18
11.6889,0.02618,0.03142,0.83078,0.00000,0.00000,0.00000,37,4,64,20,24,7,63,16,ok,2,0,0.003,11,0.46,-0.90,9.72,66,0.127,8.18
11.6940,0.02618,0.03142,0.83078,0.00000,0.00000,0.00000,38,4,64,21,23,11,63,17,ok,2,0,0.003,11,0.46,-0.90,9.72,66,0.140,8.18
11.7063,0.02618,0.03142,0.83078,0.00000,0.00000,0.00000,38,3,64,23,22,14,64,18,ok,2,0,0.003,11,0.46,-0.90,9.72,66,0.152,8.18
11.7290,0.02618,0.03142,0.83078,0.00000,0.00000,0.00000,39,3,63,25,24,13,64,19,ok,2,0,0.003,11,0.46,-0.90,9.72,66,0.165,8.18
11.7321,0.02618,0.03142,0.83078,0.00000,0.00000,0.00000,39,2,63,27,24,13,64,19,ok,2,0,0.003,11,0.46,-0.90,9.72,66,0.178,8.18
11.7452,-0.06109,0.02967,0.81681,0.00000,0.00000,0.00000,40,2,64,25,26,11,64,20,ok,2,0,0.003,12,0.20,-0.20,10.26,67,0.000,8.18
11.7649,-0.06109,0.02967,0.81681,0.00000,0.00000,0.00000,40,1,67,23,26,10,65,21,ok,2,0,0.003,12,0.20,-0.20,10.26,67,0.013,8.18
11.7699,-0.06109,0.02967,0.81681,0.00000,0.00000,0.00000,41,1,69,19,28,10,65,22,ok,2,0,0.003,12,0.20,-0.20,10.26,67,0.025,8.18
11.7823,-0.06109,0.02967,0.81681,0.00000,0.00000,0.00000,42,1,70,15,29,10,65,24,ok,2,0,0.003,12,0.20,-0.20,10.26,67,0.038,8.18
11.8049,-0.06109,0.02967,0.81681,0.00000,0.00000,0.00000,42,1,71,13,30,9,65,26,ok,2,0,0.003,12,0.20,-0.20,10.26,67,0.050,8.18
11.8080,-0.06109,0.02967,0.81681,0.00000,0.00000,0.00000,44,1,70,12,32,9,66,26,ok,2,0,0.003,12,0.20,-0.20,10.26,67,0.063,8.18
11.8210,-0.06109,0.02967,0.81681,0.00000,0.00000,0.00000,44,1,70,9,33,9,64,29,ok,2,0,0.003,12,0.20,-0.20,10.26,67,0.076,8.18
11.8409,-0.06109,0.02967,0.81681,0.00000,0.00000,0.00000,45,1,69,6,35,9,64,30,ok,2,0,0.003,12,0.20,-0.20,10.26,67,0.088,8.18
11.8458,-0.06109,0.02967,0.81681,0.00000,0.00000,0.00000,46,2,69,4,36,8,64,31,ok,2,0,0.003,12,0.20,-0.20,10.26,67,0.101,8.18
11.8584,-0.06109,0.02967,0.81681,0.00000,0.00000,0.00000,46,1,67,1,37,9,64,33,ok,2,0,0.003,12,0.20,-0.20,10.26,67,0.113,8.18
11.8809,-0.06109,0.02967,0.81681,0.00000,0.00000,0.00000,46,1,66,-1,39,8,64,34,ok,2,0,0.003,12,0.20,-0.20,10.26,67,0.126,8.18
11.8841,-0.06109,0.02967,0.81681,0.00000,0.00000,0.00000,48,2,64,-3,39,8,63,36,ok,2,0,0.003,12,0.20,-0.20,10.26,67,0.139,8.18
11.8968,-0.06109,0.02967,0.81681,0.00000,0.00000,0.00000,48,2,62,-4,41,7,64,36,ok,2,0,0.003,12,0.20,-0.20,10.26,67,0.152,8.18
11.9169,-0.06109,0.02967,0.81681,0.00000,0.00000,0.00000,48,3,61,-6,42,7,65,35,ok,2,0,0.003,12,0.20,-0.20,10.26,67,0.164,8.18
11.9218,-0.06109,0.02967,0.81681,0.00000,0.00000,0.00000,48,3,60,-8,43,7,67,33,ok,2,0,0.003,12,0.20,-0.20,10.26,67,0.177,8.18
11.9343,-0.06109,0.02967,0.81681,0.00000,0.00000,0.00000,50,3,58,-8,44,7,69,27,ok,2,0,0.003,12,0.20,-0.20,10.26,67,0.189,8.18
11.9569,-0.06109,0.02967,0.81681,0.00000,0.00000,0.00000,50,3,55,-9,45,7,70,24,ok,2,0,0.003,12,0.20,-0.20,10.26,67,0.202,8.18
11.9603,-0.10647,0.01745,0.91455,0.00000,0.00000,0.00000,50,3,53,-9,46,7,72,21,ok,2,0,0.003,12,-1.28,-0.96,10.33,68,0.000,8.18
11.9728,-0.10647,0.01745,0.91455,0.00000,0.00000,0.00000,50,5,51,-10,47,7,73,21,ok,2,0,0.003,12,-1.28,-0.96,10.33,68,0.013,8.18
11.9929,-0.10647,0.01745,0.91455,0.00000,0.00000,0.00000,51,6,49,-10,47,7,73,18,ok,2,0,0.003,12,-1.28,-0.96,10.33,68,0.025,8.18
11.9979,-0.10647,0.01745,0.91455,0.00000,0.00000,0.00000,52,5,46,-10,48,7,73,15,ok,2,0,0.003,12,-1.28,-0.96,10.33,68,0.038,8.18
12.0103,-0.10647,0.01745,0.91455,0.00000,0.00000,0.00000,52,6,44,-10,49,7,72,12,ok,2,0,0.003,12,-1.28,-0.96,10.33,68,0.050,8.18
12.0329,-0.10647,0.01745,0.91455,0.00000,0.00000,0.00000,52,7,41,-10,50,7,72,11,ok,2,0,0.003,12,-1.28,-0.96,10.33,68,0.063,8.18
12.0360,-0.10647,0.01745,0.91455,0.00000,0.00000,0.00000,53,7,39,-10,51,7,71,7,ok,2,0,0.003,12,-1.28,-0.96,10.33,68,0.076,8.18
12.0489,-0.10647,0.01745,0.91455,0.00000,0.00000,0.00000,54,7,37,-9,52,7,71,6,ok,2,0,0.003,12,-1.28,-0.96,10.33,68,0.089,8.18
12.0689,-0.10647,0.01745,0.91455,0.00000,0.00000,0.00000,54,7,33,-8,52,7,70,4,ok,2,0,0.003,12,-1.28,-0.96,10.33,68,0.101,8.18
12.0738,-0.10647,0.01745,0.91455,0.00000,0.00000,0.00000,54,8,30,-7,53,7,68,2,ok,2,0,0.003,12,-1.28,-0.96,10.33,68,0.114,8.18
12.0863,-0.10647,0.01745,0.91455,0.00000,0.00000,0.00000,54,8,27,-6,54,8,66,2,ok,2,0,0.003,12,-1.28,-0.96,10.33,68,0.126,8.18
12.1089,-0.10647,0.01745,0.91455,0.00000,0.00000,0.00000,54,9,24,-5,55,8,65,0,ok,2,0,0.003,12,-1.28,-0.96,10.33,68,0.139,8.18
12.1120,-0.10647,0.01745,0.91455,0.00000,0.00000,0.00000,55,10,20,-2,56,8,64,-2,ok,2,0,0.003,12,-1.28,-0.96,10.33,68,0.152,8.18
12.1248,-0.10647,0.01745,0.91455,0.00000,0.00000,0.00000,55,10,19,-1,58,6,62,-3,ok,2,0,0.003,12,-1.28,-0.96,10.33,68,0.165,8.18
12.1449,-0.10647,0.01745,0.91455,0.00000,0.00000,0.00000,56,10,18,1,58,7,60,-4,ok,2,0,0.003,12,-1.28,-0.96,10.33,68,0.177,8.18
12.1498,-0.10647,0.01745,0.91455,0.00000,0.00000,0.00000,56,11,16,3,59,8,58,-5,ok,2,0,0.003,12,-1.28,-0.96,10.33,68,0.190,8.18
12.1625,-0.00873,0.05061,0.84998,0.00000,0.00000,0.00000,56,11,15,6,59,8,55,-5,ok,2,0,0.003,12,1.04,-0.05,9.04,69,0.000,8.18
12.1849,-0.00873,0.05061,0.84998,0.00000,0.00000,0.00000,56,12,13,9,60,9,53,-6,ok,2,0,0.003,12,1.04,-0.05,9.04,69,0.012,8.18
12.1881,-0.00873,0.05061,0.84998,0.00000,0.00000,0.00000,56,12,12,11,60,9,50,-5,ok,2,0,0.003,12,1.04,-0.05,9.04,69,0.026,8.18
12.2008,-0.00873,0.05061,0.84998,0.00000,0.00000,0.00000,56,13,14,12,61,10,47,-5,ok,2,0,0.003,12,1.04,-0.05,9.04,69,0.039,8.18
12.2209,-0.00873,0.05061,0.84998,0.00000,0.00000,0.00000,56,14,15,11,61,10,45,-5,ok,2,0,0.003,12,1.04,-0.05,9.04,69,0.051,8.18
12.2259,-0.00873,0.05061,0.84998,0.00000,0.00000,0.00000,56,14,16,10,61,11,42,-4,ok,2,0,0.003,12,1.04,-0.05,9.04,69,0.063,8.18
12.2382,-0.00873,0.05061,0.84998,0.00000,0.00000,0.00000,56,15,18,9,61,12,40,-4,ok,2,0,0.003,12,1.04,-0.05,9.04,69,0.076,8.18
12.2609,-0.00873,0.05061,0.84998,0.00000,0.00000,0.00000,56,16,19,8,61,12,37,-3,ok,2,0,0.003,12,1.04,-0.05,9.04,69,0.089,8.18
12.2640,-0.00873,0.05061,0.84998,0.00000,0.00000,0.00000,56,17,21,7,62,13,35,-3,ok,2,0,0.003,12,1.04,-0.05,9.04,69,0.102,8.18
12.2768,-0.00873,0.05061,0.84998,0.00000,0.00000,0.00000,56,18,21,7,62,14,31,-1,ok,2,0,0.003,12,1.04,-0.05,9.04,69,0.115,8.18
12.2969,-0.00873,0.05061,0.84998,0.00000,0.00000,0.00000,57,19,23,6,63,14,30,0,ok,2,0,0.003,12,1.04,-0.05,9.04,69,0.127,8.18
12.3019,-0.00873,0.05061,0.84998,0.00000,0.00000,0.00000,57,20,24,5,63,15,27,2,ok,2,0,0.003,12,1.04,-0.05,9.04,69,0.139,8.18
