# run_gait log  cmd_fwd=0.100 hz=80.0 fw_balance=off policy_yaw_sign=-1
t,roll,pitch,yaw,gx,gy,gz,j0,j1,j2,j3,j4,j5,j6,j7,guard_state,hottest_j,hottest_tier,hottest_frac,duty_s,ax,ay,az,imu_n,imu_age_s,volt
0.0414,-0.01222,0.01571,0.00000,0.00000,0.00000,0.00000,28,0,57,10,60,-3,54,8,ok,3,0,0.000,0,0.16,-0.12,10.00,9,0.000,nan
0.0467,-0.01222,0.01571,0.00000,0.00000,0.00000,0.00000,25,1,59,10,59,-4,56,6,ok,0,0,0.000,0,0.16,-0.12,10.00,9,0.027,nan
0.0597,-0.01222,0.01571,0.00000,0.00000,0.00000,0.00000,24,4,59,11,56,-5,56,8,ok,4,0,0.000,0,0.16,-0.12,10.00,9,0.039,8.17
0.0812,-0.01222,0.01571,0.00000,0.00000,0.00000,0.00000,23,6,60,12,55,-6,57,8,ok,4,0,0.000,0,0.16,-0.12,10.00,9,0.052,8.17
0.0852,-0.01222,0.01571,0.00000,0.00000,0.00000,0.00000,21,10,59,13,52,-5,57,9,ok,4,0,0.000,0,0.16,-0.12,10.00,9,0.066,8.17
0.0978,-0.01222,0.01571,0.00000,0.00000,0.00000,0.00000,20,12,60,13,50,-5,58,10,ok,4,0,0.000,0,0.16,-0.12,10.00,9,0.079,8.17
0.1212,-0.01222,0.01571,0.00000,0.00000,0.00000,0.00000,21,13,60,14,47,-5,59,11,ok,4,0,0.000,0,0.16,-0.12,10.00,9,0.091,8.17
0.1254,-0.01222,0.01571,0.00000,0.00000,0.00000,0.00000,21,13,60,15,44,-4,59,11,ok,4,0,0.000,0,0.16,-0.12,10.00,9,0.106,8.17
0.1378,-0.01222,0.01571,0.00000,0.00000,0.00000,0.00000,23,12,61,15,42,-4,60,12,ok,4,0,0.000,0,0.16,-0.12,10.00,9,0.119,8.17
0.1612,-0.01222,0.01571,0.00000,0.00000,0.00000,0.00000,24,11,60,16,39,-3,60,12,ok,4,0,0.000,0,0.16,-0.12,10.00,9,0.131,8.17
0.1651,-0.01222,0.01571,0.00000,0.00000,0.00000,0.00000,24,11,61,17,36,-2,61,13,ok,4,0,0.000,0,0.16,-0.12,10.00,9,0.146,8.17
0.1771,-0.01222,0.01571,0.00000,0.00000,0.00000,0.00000,25,9,61,18,32,-1,61,14,ok,4,0,0.000,0,0.16,-0.12,10.00,9,0.159,8.17
0.1971,-0.01222,0.01571,0.00000,0.00000,0.00000,0.00000,25,9,61,19,30,0,62,15,ok,4,0,0.000,0,0.16,-0.12,10.00,9,0.171,8.17
0.2021,-0.01222,0.01571,0.00000,0.00000,0.00000,0.00000,28,8,62,20,27,2,62,16,ok,4,0,0.000,0,0.16,-0.12,10.00,9,0.184,8.17
0.2149,-0.02793,-0.10821,-0.00524,0.00000,0.00000,0.00000,28,7,62,21,25,5,63,16,ok,4,0,0.000,0,-0.85,0.00,8.57,10,0.000,8.17
0.2372,-0.02793,-0.10821,-0.00524,0.00000,0.00000,0.00000,29,6,62,21,23,8,64,17,ok,4,0,0.000,0,-0.85,0.00,8.57,10,0.012,8.17
0.2403,-0.02793,-0.10821,-0.00524,0.00000,0.00000,0.00000,30,6,62,22,22,11,64,18,ok,4,0,0.000,0,-0.85,0.00,8.57,10,0.026,8.17
0.2529,-0.02793,-0.10821,-0.00524,0.00000,0.00000,0.00000,31,6,62,23,21,14,65,18,ok,4,0,0.000,0,-0.85,0.00,8.57,10,0.038,8.17
0.2731,-0.02793,-0.10821,-0.00524,0.00000,0.00000,0.00000,32,5,61,26,23,14,65,19,ok,4,0,0.000,0,-0.85,0.00,8.57,10,0.051,8.17
0.2779,-0.02793,-0.10821,-0.00524,0.00000,0.00000,0.00000,33,5,62,28,22,14,65,20,ok,4,0,0.000,0,-0.85,0.00,8.57,10,0.063,8.17
0.2905,-0.02793,-0.10821,-0.00524,0.00000,0.00000,0.00000,34,5,64,26,24,12,65,21,ok,4,0,0.000,0,-0.85,0.00,8.57,10,0.076,8.17
0.3132,-0.02793,-0.10821,-0.00524,0.00000,0.00000,0.00000,35,4,67,23,25,11,66,22,ok,4,0,0.000,0,-0.85,0.00,8.57,10,0.088,8.17
0.3164,-0.02793,-0.10821,-0.00524,0.00000,0.00000,0.00000,36,4,69,19,26,11,66,24,ok,4,0,0.000,0,-0.85,0.00,8.57,10,0.102,8.17
0.3292,-0.02793,-0.10821,-0.00524,0.00000,0.00000,0.00000,37,4,71,16,27,11,65,25,ok,4,0,0.000,0,-0.85,0.00,8.57,10,0.114,8.17
0.3491,-0.02793,-0.10821,-0.00524,0.00000,0.00000,0.00000,39,4,71,14,28,9,65,27,ok,4,0,0.000,0,-0.85,0.00,8.57,10,0.127,8.17
0.3539,-0.02793,-0.10821,-0.00524,0.00000,0.00000,0.00000,40,3,71,13,30,10,65,27,ok,4,0,0.000,0,-0.85,0.00,8.57,10,0.139,8.17
0.3665,-0.02793,-0.10821,-0.00524,0.00000,0.00000,0.00000,41,3,71,10,30,10,64,30,ok,4,0,0.000,0,-0.85,0.00,8.57,10,0.152,8.17
0.3892,-0.02793,-0.10821,-0.00524,0.00000,0.00000,0.00000,42,4,71,7,32,10,64,31,ok,4,0,0.000,0,-0.85,0.00,8.57,10,0.164,8.17
0.3925,-0.02793,-0.10821,-0.00524,0.00000,0.00000,0.00000,43,4,70,4,34,9,65,32,ok,4,0,0.000,0,-0.85,0.00,8.57,10,0.178,8.17
0.4053,-0.02793,-0.10821,-0.00524,0.00000,0.00000,0.00000,44,3,69,1,35,9,64,33,ok,4,0,0.000,0,-0.85,0.00,8.57,10,0.190,8.17
0.4251,-0.10996,0.04887,0.03316,0.00000,0.00000,0.00000,45,3,68,0,36,8,64,35,ok,4,0,0.000,0,0.51,-1.46,10.20,11,0.000,8.17
0.4299,-0.10996,0.04887,0.03316,0.00000,0.00000,0.00000,47,3,67,-1,37,8,63,36,ok,4,0,0.000,0,0.51,-1.46,10.20,11,0.012,8.17
0.4425,-0.10996,0.04887,0.03316,0.00000,0.00000,0.00000,47,3,65,-2,38,6,65,36,ok,4,0,0.000,0,0.51,-1.46,10.20,11,0.025,8.17
0.4652,-0.10996,0.04887,0.03316,0.00000,0.00000,0.00000,48,4,63,-4,40,6,65,35,ok,4,0,0.000,0,0.51,-1.46,10.20,11,0.037,8.17
0.4683,-0.10996,0.04887,0.03316,0.00000,0.00000,0.00000,49,3,62,-6,42,6,67,32,ok,4,0,0.000,0,0.51,-1.46,10.20,11,0.051,8.17
0.4810,-0.10996,0.04887,0.03316,0.00000,0.00000,0.00000,50,4,59,-7,43,6,69,27,ok,4,0,0.000,0,0.51,-1.46,10.20,11,0.063,8.17
0.5011,-0.10996,0.04887,0.03316,0.00000,0.00000,0.00000,51,3,56,-8,44,6,71,23,ok,4,0,0.000,0,0.51,-1.46,10.20,11,0.076,8.17
0.5059,-0.10996,0.04887,0.03316,0.00000,0.00000,0.00000,52,3,54,-9,46,6,73,20,ok,4,0,0.000,0,0.51,-1.46,10.20,11,0.088,8.17
0.5187,-0.10996,0.04887,0.03316,0.00000,0.00000,0.00000,52,5,51,-10,47,6,73,20,ok,4,0,0.000,0,0.51,-1.46,10.20,11,0.101,8.17
0.5412,-0.10996,0.04887,0.03316,0.00000,0.00000,0.00000,52,5,49,-10,48,7,73,17,ok,4,0,0.000,1,0.51,-1.46,10.20,11,0.113,8.17
0.5446,-0.10996,0.04887,0.03316,0.00000,0.00000,0.00000,53,5,47,-10,49,7,73,14,ok,4,0,0.000,1,0.51,-1.46,10.20,11,0.127,8.17
0.5572,-0.10996,0.04887,0.03316,0.00000,0.00000,0.00000,53,6,45,-10,50,7,73,11,ok,4,0,0.000,1,0.51,-1.46,10.20,11,0.140,8.17
0.5772,-0.10996,0.04887,0.03316,0.00000,0.00000,0.00000,54,7,42,-10,51,7,72,9,ok,4,0,0.000,1,0.51,-1.46,10.20,11,0.152,8.17
0.5823,-0.10996,0.04887,0.03316,0.00000,0.00000,0.00000,56,7,39,-11,52,7,72,6,ok,4,0,0.000,1,0.51,-1.46,10.20,11,0.165,8.17
0.5948,-0.10996,0.04887,0.03316,0.00000,0.00000,0.00000,56,7,37,-10,53,6,72,4,ok,4,0,0.000,1,0.51,-1.46,10.20,11,0.177,8.17
0.6172,-0.10996,0.04887,0.03316,0.00000,0.00000,0.00000,56,7,33,-9,53,7,71,2,ok,4,0,0.000,1,0.51,-1.46,10.20,11,0.190,8.17
0.6207,-0.06632,-0.00175,0.06458,0.00000,0.00000,0.00000,56,8,30,-8,54,7,69,0,ok,4,0,0.000,1,0.27,-0.15,11.58,12,0.000,8.17
0.6330,-0.06632,-0.00175,0.06458,0.00000,0.00000,0.00000,57,8,27,-7,54,8,66,0,ok,4,0,0.000,1,0.27,-0.15,11.58,12,0.013,8.17
0.6531,-0.06632,-0.00175,0.06458,0.00000,0.00000,0.00000,57,9,24,-5,55,8,65,-2,ok,2,0,0.000,1,0.27,-0.15,11.58,12,0.025,8.17
0.6582,-0.06632,-0.00175,0.06458,0.00000,0.00000,0.00000,58,10,20,-3,56,9,64,-3,ok,2,0,0.000,1,0.27,-0.15,11.58,12,0.038,8.17
0.6705,-0.06632,-0.00175,0.06458,0.00000,0.00000,0.00000,58,10,18,-1,58,7,62,-5,ok,2,0,0.000,1,0.27,-0.15,11.58,12,0.050,8.17
0.6931,-0.06632,-0.00175,0.06458,0.00000,0.00000,0.00000,59,10,17,0,58,8,60,-5,ok,2,0,0.000,1,0.27,-0.15,11.58,12,0.063,8.17
0.6963,-0.06632,-0.00175,0.06458,0.00000,0.00000,0.00000,60,11,15,3,59,9,58,-6,ok,2,0,0.000,1,0.27,-0.15,11.58,12,0.076,8.17
0.7091,-0.06632,-0.00175,0.06458,0.00000,0.00000,0.00000,60,11,14,6,59,9,55,-6,ok,2,0,0.000,1,0.27,-0.15,11.58,12,0.089,8.17
0.7291,-0.06632,-0.00175,0.06458,0.00000,0.00000,0.00000,60,12,13,9,60,10,54,-7,ok,2,0,0.000,1,0.27,-0.15,11.58,12,0.101,8.17
0.7340,-0.06632,-0.00175,0.06458,0.00000,0.00000,0.00000,60,12,12,11,60,10,50,-6,ok,2,0,0.000,1,0.27,-0.15,11.58,12,0.114,8.17
0.7465,-0.06632,-0.00175,0.06458,0.00000,0.00000,0.00000,60,13,13,12,60,10,48,-6,ok,2,0,0.000,1,0.27,-0.15,11.58,12,0.126,8.17
0.7691,-0.06632,-0.00175,0.06458,0.00000,0.00000,0.00000,60,14,15,11,60,11,46,-6,ok,2,0,0.000,1,0.27,-0.15,11.58,12,0.139,8.17
0.7723,-0.06632,-0.00175,0.06458,0.00000,0.00000,0.00000,60,14,16,10,61,11,42,-5,ok,2,0,0.000,1,0.27,-0.15,11.58,12,0.152,8.17
0.7849,-0.06632,-0.00175,0.06458,0.00000,0.00000,0.00000,60,15,19,9,61,12,41,-5,ok,2,0,0.000,1,0.27,-0.15,11.58,12,0.165,8.17
0.8051,-0.06632,-0.00175,0.06458,0.00000,0.00000,0.00000,60,15,19,9,61,13,37,-3,ok,2,0,0.000,1,0.27,-0.15,11.58,12,0.177,8.17
0.8099,-0.06632,-0.00175,0.06458,0.00000,0.00000,0.00000,61,16,21,7,61,13,35,-3,ok,2,0,0.000,1,0.27,-0.15,11.58,12,0.190,8.17
0.8227,-0.06632,-0.00175,0.06458,0.00000,0.00000,0.00000,61,17,22,7,62,14,31,-1,ok,2,0,0.000,1,0.27,-0.15,11.58,12,0.202,8.17
0.8451,-0.08029,0.11519,0.05934,0.00000,0.00000,0.00000,62,19,23,6,63,14,30,0,ok,2,0,0.000,1,0.12,-1.52,9.38,13,0.000,8.17
0.8484,-0.08029,0.11519,0.05934,0.00000,0.00000,0.00000,62,20,24,5,62,15,27,1,ok,2,0,0.000,1,0.12,-1.52,9.38,13,0.013,8.17
0.8610,-0.08029,0.11519,0.05934,0.00000,0.00000,0.00000,62,21,25,5,62,16,25,5,ok,2,0,0.000,1,0.12,-1.52,9.38,13,0.026,8.17
0.8811,-0.08029,0.11519,0.05934,0.00000,0.00000,0.00000,62,22,25,4,63,16,24,7,ok,2,0,0.000,1,0.12,-1.52,9.38,13,0.039,8.17
0.8861,-0.08029,0.11519,0.05934,0.00000,0.00000,0.00000,62,23,26,3,64,17,23,11,ok,2,0,0.000,1,0.12,-1.52,9.38,13,0.051,8.17
0.8985,-0.08029,0.11519,0.05934,0.00000,0.00000,0.00000,61,25,27,3,64,18,22,13,ok,2,0,0.000,1,0.12,-1.52,9.38,13,0.064,8.17
0.9212,-0.08029,0.11519,0.05934,0.00000,0.00000,0.00000,61,26,27,2,64,19,25,12,ok,2,0,0.000,1,0.12,-1.52,9.38,13,0.076,8.17
0.9243,-0.08029,0.11519,0.05934,0.00000,0.00000,0.00000,62,24,28,2,64,21,25,12,ok,2,0,0.000,1,0.12,-1.52,9.38,13,0.089,8.17
0.9369,-0.08029,0.11519,0.05934,0.00000,0.00000,0.00000,64,21,29,2,65,22,26,10,ok,2,0,0.000,1,0.12,-1.52,9.38,13,0.102,8.17
0.9571,-0.08029,0.11519,0.05934,0.00000,0.00000,0.00000,65,17,30,1,64,23,27,9,ok,2,0,0.000,1,0.12,-1.52,9.38,13,0.115,8.17
0.9620,-0.08029,0.11519,0.05934,0.00000,0.00000,0.00000,66,13,32,2,64,25,28,10,ok,2,0,0.000,1,0.12,-1.52,9.38,13,0.127,8.17
0.9745,-0.08029,0.11519,0.05934,0.00000,0.00000,0.00000,66,11,33,2,65,25,30,9,ok,2,0,0.000,1,0.12,-1.52,9.38,13,0.140,8.17
0.9972,-0.08029,0.11519,0.05934,0.00000,0.00000,0.00000,66,10,35,2,64,27,31,8,ok,2,0,0.000,1,0.12,-1.52,9.38,13,0.152,8.17
1.0005,-0.08029,0.11519,0.05934,0.00000,0.00000,0.00000,66,7,36,2,64,29,33,8,ok,2,0,0.000,1,0.12,-1.52,9.38,13,0.165,8.17
1.0129,-0.08029,0.11519,0.05934,0.00000,0.00000,0.00000,65,5,38,3,64,30,34,9,ok,2,0,0.000,1,0.12,-1.52,9.38,13,0.178,8.17
1.0331,-0.00349,0.00349,0.13614,0.00000,0.00000,0.00000,65,2,39,3,64,32,35,8,ok,2,0,0.000,1,0.70,-0.39,10.03,14,0.000,8.17
1.0381,-0.00349,0.00349,0.13614,0.00000,0.00000,0.00000,64,-1,41,2,64,34,36,8,ok,2,0,0.000,1,0.70,-0.39,10.03,14,0.013,8.17
1.0505,-0.00349,0.00349,0.13614,0.00000,0.00000,0.00000,63,-3,42,2,64,35,37,8,ok,2,0,0.000,1,0.70,-0.39,10.03,14,0.025,8.17
1.0731,-0.00349,0.00349,0.13614,0.00000,0.00000,0.00000,62,-4,43,2,65,36,38,8,ok,2,0,0.000,1,0.70,-0.39,10.03,14,0.038,8.17
1.0763,-0.00349,0.00349,0.13614,0.00000,0.00000,0.00000,60,-5,44,2,66,36,40,7,ok,2,0,0.000,1,0.70,-0.39,10.03,14,0.051,8.17
1.0889,-0.00349,0.00349,0.13614,0.00000,0.00000,0.00000,60,-6,45,2,68,33,41,7,ok,2,0,0.000,1,0.70,-0.39,10.03,14,0.064,8.17
1.1091,-0.00349,0.00349,0.13614,0.00000,0.00000,0.00000,59,-8,47,2,70,29,42,7,ok,2,0,0.000,1,0.70,-0.39,10.03,14,0.076,8.17
1.1139,-0.00349,0.00349,0.13614,0.00000,0.00000,0.00000,57,-8,48,3,71,24,43,7,ok,2,0,0.000,1,0.70,-0.39,10.03,14,0.088,8.17
1.1265,-0.00349,0.00349,0.13614,0.00000,0.00000,0.00000,55,-9,50,3,73,21,44,7,ok,2,0,0.000,1,0.70,-0.39,10.03,14,0.101,8.17
1.1491,-0.00349,0.00349,0.13614,0.00000,0.00000,0.00000,53,-9,50,3,74,21,45,7,ok,2,0,0.000,1,0.70,-0.39,10.03,14,0.114,8.17
1.1523,-0.00349,0.00349,0.13614,0.00000,0.00000,0.00000,52,-11,50,5,74,18,46,7,ok,2,0,0.000,1,0.70,-0.39,10.03,14,0.127,8.17
1.1649,-0.00349,0.00349,0.13614,0.00000,0.00000,0.00000,50,-11,51,6,74,15,47,8,ok,2,0,0.000,1,0.70,-0.39,10.03,14,0.140,8.17
1.1851,-0.00349,0.00349,0.13614,0.00000,0.00000,0.00000,48,-11,52,6,73,12,48,8,ok,2,0,0.000,1,0.70,-0.39,10.03,14,0.152,8.17
1.1899,-0.00349,0.00349,0.13614,0.00000,0.00000,0.00000,45,-10,53,6,72,10,49,8,ok,2,0,0.000,1,0.70,-0.39,10.03,14,0.164,8.17
1.2025,-0.00349,0.00349,0.13614,0.00000,0.00000,0.00000,44,-11,54,7,72,7,49,9,ok,2,0,0.000,1,0.70,-0.39,10.03,14,0.177,8.17
1.2252,-0.00349,0.00349,0.13614,0.00000,0.00000,0.00000,41,-11,56,7,71,5,50,8,ok,2,0,0.000,1,0.70,-0.39,10.03,14,0.190,8.17
1.2286,0.08203,-0.02793,0.15882,0.00000,0.00000,0.00000,39,-10,56,7,70,4,51,9,ok,2,0,0.000,1,-0.28,0.88,9.64,15,0.000,8.17
1.2410,0.08203,-0.02793,0.15882,0.00000,0.00000,0.00000,36,-8,57,7,69,2,51,7,ok,2,0,0.000,1,-0.28,0.88,9.64,15,0.013,8.17
1.2611,0.08203,-0.02793,0.15882,0.00000,0.00000,0.00000,34,-7,57,8,66,2,52,8,ok,2,0,0.000,1,-0.28,0.88,9.64,15,0.025,8.17
1.2660,0.08203,-0.02793,0.15882,0.00000,0.00000,0.00000,32,-5,58,7,65,0,52,8,ok,2,0,0.000,1,-0.28,0.88,9.64,15,0.038,8.17
1.2785,0.08203,-0.02793,0.15882,0.00000,0.00000,0.00000,29,-3,59,8,64,-2,54,9,ok,2,0,0.000,1,-0.28,0.88,9.64,15,0.050,8.17
1.3012,0.08203,-0.02793,0.15882,0.00000,0.00000,0.00000,26,-1,60,9,61,-3,54,8,ok,2,0,0.000,1,-0.28,0.88,9.64,15,0.063,8.17
1.3044,0.08203,-0.02793,0.15882,0.00000,0.00000,0.00000,26,-1,60,10,60,-5,54,8,ok,2,0,0.000,1,-0.28,0.88,9.64,15,0.076,8.17
1.3171,0.08203,-0.02793,0.15882,0.00000,0.00000,0.00000,25,1,61,9,58,-5,56,6,ok,2,0,0.000,1,-0.28,0.88,9.64,15,0.089,8.17
1.3371,0.08203,-0.02793,0.15882,0.00000,0.00000,0.00000,23,3,61,10,55,-6,57,7,ok,2,0,0.000,1,-0.28,0.88,9.64,15,0.101,8.17
1.3419,0.08203,-0.02793,0.15882,0.00000,0.00000,0.00000,22,6,61,10,53,-7,58,7,ok,2,0,0.000,1,-0.28,0.88,9.64,15,0.114,8.17
1.3545,0.08203,-0.02793,0.15882,0.00000,0.00000,0.00000,20,9,61,12,50,-6,58,8,ok,2,0,0.000,1,-0.28,0.88,9.64,15,0.126,8.17
1.3771,0.08203,-0.02793,0.15882,0.00000,0.00000,0.00000,20,11,62,11,48,-5,59,8,ok,2,0,0.000,1,-0.28,0.88,9.64,15,0.139,8.17
1.3803,0.08203,-0.02793,0.15882,0.00000,0.00000,0.00000,21,11,62,13,45,-5,60,9,ok,2,0,0.000,1,-0.28,0.88,9.64,15,0.152,8.17
1.3929,0.08203,-0.02793,0.15882,0.00000,0.00000,0.00000,22,11,62,13,42,-5,59,10,ok,4,0,0.000,1,-0.28,0.88,9.64,15,0.165,8.17
1.4131,0.08203,-0.02793,0.15882,0.00000,0.00000,0.00000,23,10,62,14,40,-4,60,11,ok,4,0,0.000,1,-0.28,0.88,9.64,15,0.177,8.17
1.4179,0.08203,-0.02793,0.15882,0.00000,0.00000,0.00000,24,9,62,14,37,-3,60,11,ok,4,0,0.000,1,-0.28,0.88,9.64,15,0.190,8.17
1.4307,0.08203,-0.02793,0.15882,0.00000,0.00000,0.00000,24,8,63,15,34,-3,61,12,ok,4,0,0.000,1,-0.28,0.88,9.64,15,0.202,8.17
1.4531,0.00873,0.05585,0.17628,0.00000,0.00000,0.00000,26,7,63,16,31,-1,61,13,ok,4,0,0.000,1,2.24,0.10,11.40,16,0.000,8.17
1.4564,0.00873,0.05585,0.17628,0.00000,0.00000,0.00000,27,7,63,17,29,0,62,14,ok,4,0,0.000,1,2.24,0.10,11.40,16,0.013,8.17
1.4690,0.00873,0.05585,0.17628,0.00000,0.00000,0.00000,28,6,64,19,27,1,62,15,ok,4,0,0.000,1,2.24,0.10,11.40,16,0.026,8.17
1.4932,0.00873,0.05585,0.17628,0.00000,0.00000,0.00000,29,5,64,20,25,5,63,15,ok,4,0,0.000,1,2.24,0.10,11.40,16,0.039,8.17
1.4965,0.00873,0.05585,0.17628,0.00000,0.00000,0.00000,30,4,64,21,24,7,63,16,ok,4,0,0.000,1,2.24,0.10,11.40,16,0.053,8.17
1.5090,0.00873,0.05585,0.17628,0.00000,0.00000,0.00000,31,3,64,22,23,11,63,17,ok,4,0,0.000,1,2.24,0.10,11.40,16,0.066,8.17
1.5291,0.00873,0.05585,0.17628,0.00000,0.00000,0.00000,31,3,64,23,22,14,64,18,ok,4,0,0.000,1,2.24,0.10,11.40,16,0.079,8.17
1.5340,0.00873,0.05585,0.17628,0.00000,0.00000,0.00000,32,2,63,26,24,13,64,19,ok,4,0,0.000,1,2.24,0.10,11.40,16,0.091,8.17
1.5465,0.00873,0.05585,0.17628,0.00000,0.00000,0.00000,32,2,63,28,24,14,64,19,ok,4,0,0.000,1,2.24,0.10,11.40,16,0.104,8.17
1.5692,0.00873,0.05585,0.17628,0.00000,0.00000,0.00000,33,1,64,26,25,12,64,21,ok,4,0,0.000,2,2.24,0.10,11.40,16,0.116,8.17
1.5723,0.00873,0.05585,0.17628,0.00000,0.00000,0.00000,34,1,67,23,26,11,65,21,ok,4,0,0.000,2,2.24,0.10,11.40,16,0.129,8.17
1.5852,0.00873,0.05585,0.17628,0.00000,0.00000,0.00000,36,1,69,19,27,11,65,22,ok,4,0,0.000,2,2.24,0.10,11.40,16,0.142,8.17
1.6052,0.00873,0.05585,0.17628,0.00000,0.00000,0.00000,37,1,70,15,29,10,64,23,ok,4,0,0.000,2,2.24,0.10,11.40,16,0.155,8.17
1.6100,0.00873,0.05585,0.17628,0.00000,0.00000,0.00000,38,1,70,12,30,9,64,25,ok,4,0,0.000,2,2.24,0.10,11.40,16,0.167,8.17
1.6224,0.00873,0.05585,0.17628,0.00000,0.00000,0.00000,40,1,70,12,33,9,65,26,ok,4,0,0.000,2,2.24,0.10,11.40,16,0.180,8.17
1.6452,-0.08203,-0.00524,0.15708,0.00000,0.00000,0.00000,40,1,70,8,33,9,64,28,ok,4,0,0.000,2,-0.10,-1.81,10.96,17,0.000,8.17
1.6483,-0.08203,-0.00524,0.15708,0.00000,0.00000,0.00000,42,2,69,6,35,9,64,30,ok,4,0,0.000,2,-0.10,-1.81,10.96,17,0.013,8.17
1.6612,-0.08203,-0.00524,0.15708,0.00000,0.00000,0.00000,43,2,69,3,36,8,65,31,ok,4,0,0.000,2,-0.10,-1.81,10.96,17,0.026,8.17
1.6811,-0.08203,-0.00524,0.15708,0.00000,0.00000,0.00000,44,2,67,0,37,9,64,33,ok,4,0,0.000,2,-0.10,-1.81,10.96,17,0.039,8.17
1.6860,-0.08203,-0.00524,0.15708,0.00000,0.00000,0.00000,45,1,66,-2,38,8,64,34,ok,4,0,0.000,2,-0.10,-1.81,10.96,17,0.051,8.17
1.6984,-0.08203,-0.00524,0.15708,0.00000,0.00000,0.00000,46,2,64,-3,39,8,64,35,ok,4,0,0.000,2,-0.10,-1.81,10.96,17,0.064,8.17
1.7212,-0.08203,-0.00524,0.15708,0.00000,0.00000,0.00000,46,2,62,-4,40,7,65,36,ok,4,0,0.000,2,-0.10,-1.81,10.96,17,0.076,8.17
1.7243,-0.08203,-0.00524,0.15708,0.00000,0.00000,0.00000,47,2,61,-5,42,7,66,35,ok,4,0,0.000,2,-0.10,-1.81,10.96,17,0.089,8.17
1.7370,-0.08203,-0.00524,0.15708,0.00000,0.00000,0.00000,48,2,60,-7,43,7,68,32,ok,4,0,0.000,2,-0.10,-1.81,10.96,17,0.102,8.17
1.7571,-0.08203,-0.00524,0.15708,0.00000,0.00000,0.00000,49,3,58,-8,44,7,69,27,ok,4,0,0.000,2,-0.10,-1.81,10.96,17,0.115,8.17
1.7620,-0.08203,-0.00524,0.15708,0.00000,0.00000,0.00000,50,3,56,-9,45,7,71,24,ok,4,0,0.001,2,-0.10,-1.81,10.96,17,0.127,8.17
1.7745,-0.08203,-0.00524,0.15708,0.00000,0.00000,0.00000,51,3,54,-9,46,7,72,21,ok,4,0,0.001,2,-0.10,-1.81,10.96,17,0.140,8.17
1.7972,-0.08203,-0.00524,0.15708,0.00000,0.00000,0.00000,51,5,51,-10,47,7,72,20,ok,4,0,0.001,2,-0.10,-1.81,10.96,17,0.152,8.17
1.8003,-0.08203,-0.00524,0.15708,0.00000,0.00000,0.00000,52,6,49,-10,47,7,72,18,ok,4,0,0.001,2,-0.10,-1.81,10.96,17,0.165,8.17
1.8130,-0.08203,-0.00524,0.15708,0.00000,0.00000,0.00000,52,6,46,-10,48,7,72,15,ok,4,0,0.001,2,-0.10,-1.81,10.96,17,0.178,8.17
1.8331,-0.08203,-0.00524,0.15708,0.00000,0.00000,0.00000,53,6,44,-10,49,7,72,12,ok,4,0,0.001,2,-0.10,-1.81,10.96,17,0.191,8.17
1.8382,-0.08029,-0.02618,0.21468,0.00000,0.00000,0.00000,53,7,42,-10,49,7,71,10,ok,4,0,0.001,2,0.17,-1.03,9.03,18,0.000,8.17
1.8504,-0.08029,-0.02618,0.21468,0.00000,0.00000,0.00000,55,7,39,-10,50,8,71,7,ok,4,0,0.001,2,0.17,-1.03,9.03,18,0.013,8.17
1.8731,-0.08029,-0.02618,0.21468,0.00000,0.00000,0.00000,56,7,37,-9,52,7,70,6,ok,4,0,0.001,2,0.17,-1.03,9.03,18,0.025,8.17
1.8763,-0.08029,-0.02618,0.21468,0.00000,0.00000,0.00000,56,7,34,-9,52,7,70,4,ok,2,0,0.001,2,0.17,-1.03,9.03,18,0.038,8.17
1.8890,-0.08029,-0.02618,0.21468,0.00000,0.00000,0.00000,56,8,31,-7,52,8,68,2,ok,2,0,0.001,2,0.17,-1.03,9.03,18,0.051,8.17
1.9091,-0.08029,-0.02618,0.21468,0.00000,0.00000,0.00000,57,8,27,-6,53,8,66,2,ok,2,0,0.001,2,0.17,-1.03,9.03,18,0.064,8.17
1.9142,-0.08029,-0.02618,0.21468,0.00000,0.00000,0.00000,57,9,25,-4,54,8,65,0,ok,2,0,0.001,2,0.17,-1.03,9.03,18,0.076,8.17
1.9265,-0.08029,-0.02618,0.21468,0.00000,0.00000,0.00000,58,10,21,-2,55,8,64,-2,ok,2,0,0.001,2,0.17,-1.03,9.03,18,0.088,8.17
1.9492,-0.08029,-0.02618,0.21468,0.00000,0.00000,0.00000,58,10,19,-1,57,6,62,-3,ok,2,0,0.001,2,0.17,-1.03,9.03,18,0.101,8.17
1.9523,-0.08029,-0.02618,0.21468,0.00000,0.00000,0.00000,59,10,19,1,58,7,60,-4,ok,2,0,0.001,2,0.17,-1.03,9.03,18,0.114,8.17
1.9651,-0.08029,-0.02618,0.21468,0.00000,0.00000,0.00000,60,11,17,3,58,8,58,-5,ok,2,0,0.001,2,0.17,-1.03,9.03,18,0.127,8.17
1.9851,-0.08029,-0.02618,0.21468,0.00000,0.00000,0.00000,60,11,15,6,59,8,55,-6,ok,2,0,0.001,2,0.17,-1.03,9.03,18,0.140,8.17
1.9900,-0.08029,-0.02618,0.21468,0.00000,0.00000,0.00000,60,12,13,9,59,9,53,-6,ok,2,0,0.001,2,0.17,-1.03,9.03,18,0.152,8.17
2.0024,-0.08029,-0.02618,0.21468,0.00000,0.00000,0.00000,60,12,13,11,60,9,50,-5,ok,2,0,0.001,2,0.17,-1.03,9.03,18,0.165,8.17
2.0252,-0.08029,-0.02618,0.21468,0.00000,0.00000,0.00000,60,13,15,12,60,10,48,-5,ok,2,0,0.001,2,0.17,-1.03,9.03,18,0.177,8.17
2.0282,-0.08029,-0.02618,0.21468,0.00000,0.00000,0.00000,60,14,16,11,60,10,45,-5,ok,2,0,0.001,2,0.17,-1.03,9.03,18,0.190,8.17
2.0414,0.00698,0.06981,0.20246,0.00000,0.00000,0.00000,60,14,17,10,61,11,42,-4,ok,2,0,0.001,2,0.78,0.63,9.13,19,0.000,8.17
2.0611,0.00698,0.06981,0.20246,0.00000,0.00000,0.00000,60,15,19,9,61,12,40,-4,ok,2,0,0.001,2,0.78,0.63,9.13,19,0.013,8.17
2.0659,0.00698,0.06981,0.20246,0.00000,0.00000,0.00000,60,16,19,9,61,13,36,-3,ok,2,0,0.001,2,0.78,0.63,9.13,19,0.025,8.17
2.0784,0.00698,0.06981,0.20246,0.00000,0.00000,0.00000,60,17,21,8,61,13,34,-3,ok,2,0,0.001,2,0.78,0.63,9.13,19,0.038,8.17
2.1011,0.00698,0.06981,0.20246,0.00000,0.00000,0.00000,60,18,21,7,62,14,30,-1,ok,2,0,0.001,2,0.78,0.63,9.13,19,0.050,8.17
2.1044,0.00698,0.06981,0.20246,0.00000,0.00000,0.00000,62,19,23,6,63,14,29,0,ok,2,0,0.001,2,0.78,0.63,9.13,19,0.063,8.17
2.1172,0.00698,0.06981,0.20246,0.00000,0.00000,0.00000,62,20,24,5,63,15,27,1,ok,2,0,0.001,2,0.78,0.63,9.13,19,0.076,8.17
2.1371,0.00698,0.06981,0.20246,0.00000,0.00000,0.00000,62,21,24,4,63,16,25,5,ok,2,0,0.001,2,0.78,0.63,9.13,19,0.089,8.17
2.1420,0.00698,0.06981,0.20246,0.00000,0.00000,0.00000,62,22,25,4,63,17,24,7,ok,2,0,0.001,2,0.78,0.63,9.13,19,0.101,8.17
2.1544,0.00698,0.06981,0.20246,0.00000,0.00000,0.00000,62,23,25,3,64,18,23,11,ok,2,0,0.001,2,0.78,0.63,9.13,19,0.114,8.17
2.1772,0.00698,0.06981,0.20246,0.00000,0.00000,0.00000,61,26,27,3,64,19,22,13,ok,2,0,0.001,2,0.78,0.63,9.13,19,0.126,8.17
2.1803,0.00698,0.06981,0.20246,0.00000,0.00000,0.00000,61,27,27,2,64,20,24,12,ok,2,0,0.001,2,0.78,0.63,9.13,19,0.139,8.17
2.1932,0.00698,0.06981,0.20246,0.00000,0.00000,0.00000,62,25,29,2,64,21,25,11,ok,2,0,0.001,2,0.78,0.63,9.13,19,0.152,8.17
2.2131,0.00698,0.06981,0.20246,0.00000,0.00000,0.00000,64,21,30,2,65,22,26,10,ok,2,0,0.001,2,0.78,0.63,9.13,19,0.165,8.17
2.2180,0.00698,0.06981,0.20246,0.00000,0.00000,0.00000,65,18,31,1,64,23,27,9,ok,2,0,0.001,2,0.78,0.63,9.13,19,0.177,8.17
2.2304,0.00698,0.06981,0.20246,0.00000,0.00000,0.00000,66,13,32,2,64,25,28,10,ok,2,0,0.001,2,0.78,0.63,9.13,19,0.190,8.17
2.2532,-0.09076,0.07679,0.27402,0.00000,0.00000,0.00000,66,11,33,2,65,26,29,9,ok,2,0,0.001,2,1.08,-1.17,8.60,20,0.000,8.17
2.2563,-0.09076,0.07679,0.27402,0.00000,0.00000,0.00000,66,10,35,2,64,27,31,9,ok,2,0,0.001,2,1.08,-1.17,8.60,20,0.013,8.17
2.2692,-0.09076,0.07679,0.27402,0.00000,0.00000,0.00000,66,7,37,2,64,29,33,9,ok,2,0,0.001,2,1.08,-1.17,8.60,20,0.026,8.17
2.2891,-0.09076,0.07679,0.27402,0.00000,0.00000,0.00000,66,4,39,3,64,30,34,9,ok,2,0,0.001,2,1.08,-1.17,8.60,20,0.039,8.17
2.2940,-0.09076,0.07679,0.27402,0.00000,0.00000,0.00000,65,1,40,3,64,32,35,8,ok,2,0,0.001,2,1.08,-1.17,8.60,20,0.051,8.17
2.3067,-0.09076,0.07679,0.27402,0.00000,0.00000,0.00000,64,-1,41,3,63,33,36,8,ok,2,0,0.001,2,1.08,-1.17,8.60,20,0.064,8.17
2.3292,-0.09076,0.07679,0.27402,0.00000,0.00000,0.00000,64,-3,42,3,63,35,37,8,ok,2,0,0.001,2,1.08,-1.17,8.60,20,0.076,8.17
2.3323,-0.09076,0.07679,0.27402,0.00000,0.00000,0.00000,62,-5,44,3,64,35,38,8,ok,2,0,0.001,2,1.08,-1.17,8.60,20,0.089,8.17
2.3450,-0.09076,0.07679,0.27402,0.00000,0.00000,0.00000,60,-6,44,3,66,35,40,8,ok,2,0,0.001,2,1.08,-1.17,8.60,20,0.102,8.17
2.3651,-0.09076,0.07679,0.27402,0.00000,0.00000,0.00000,60,-7,45,3,67,33,41,7,ok,2,0,0.001,2,1.08,-1.17,8.60,20,0.115,8.17
2.3700,-0.09076,0.07679,0.27402,0.00000,0.00000,0.00000,59,-9,46,3,70,28,42,7,ok,2,0,0.001,2,1.08,-1.17,8.60,20,0.127,8.17
2.3825,-0.09076,0.07679,0.27402,0.00000,0.00000,0.00000,57,-9,48,4,71,24,44,7,ok,2,0,0.001,2,1.08,-1.17,8.60,20,0.140,8.17
2.4052,-0.09076,0.07679,0.27402,0.00000,0.00000,0.00000,55,-10,49,4,73,21,44,7,ok,2,0,0.001,2,1.08,-1.17,8.60,20,0.152,8.17
2.4084,-0.09076,0.07679,0.27402,0.00000,0.00000,0.00000,53,-10,49,3,74,20,45,7,ok,2,0,0.001,2,1.08,-1.17,8.60,20,0.165,8.17
2.4210,-0.09076,0.07679,0.27402,0.00000,0.00000,0.00000,52,-11,49,5,74,18,46,7,ok,2,0,0.001,2,1.08,-1.17,8.60,20,0.178,8.17
2.4411,-0.09076,0.07679,0.27402,0.00000,0.00000,0.00000,49,-11,51,6,74,14,47,8,ok,2,0,0.001,2,1.08,-1.17,8.60,20,0.191,8.17
2.4463,0.09948,0.00524,0.25133,0.00000,0.00000,0.00000,48,-11,51,6,73,11,48,8,ok,2,0,0.001,2,-0.26,0.67,10.45,21,0.000,8.17
2.4584,0.09948,0.00524,0.25133,0.00000,0.00000,0.00000,45,-10,53,5,73,10,49,8,ok,2,0,0.001,2,-0.26,0.67,10.45,21,0.013,8.17
2.4812,0.09948,0.00524,0.25133,0.00000,0.00000,0.00000,43,-10,53,6,73,7,49,9,ok,2,0,0.001,2,-0.26,0.67,10.45,21,0.025,8.17
2.4843,0.09948,0.00524,0.25133,0.00000,0.00000,0.00000,40,-10,55,6,73,6,49,8,ok,2,0,0.001,2,-0.26,0.67,10.45,21,0.038,8.17
2.4970,0.09948,0.00524,0.25133,0.00000,0.00000,0.00000,39,-9,56,6,72,4,51,9,ok,2,0,0.001,2,-0.26,0.67,10.45,21,0.051,8.17
2.5172,0.09948,0.00524,0.25133,0.00000,0.00000,0.00000,36,-7,57,6,70,2,51,7,ok,2,0,0.001,2,-0.26,0.67,10.45,21,0.064,8.17
2.5222,0.09948,0.00524,0.25133,0.00000,0.00000,0.00000,34,-6,57,7,67,2,52,8,ok,2,0,0.001,2,-0.26,0.67,10.45,21,0.076,8.17
2.5345,0.09948,0.00524,0.25133,0.00000,0.00000,0.00000,32,-4,58,6,65,-1,52,8,ok,2,0,0.001,2,-0.26,0.67,10.45,21,0.089,8.17
2.5572,0.09948,0.00524,0.25133,0.00000,0.00000,0.00000,29,-2,59,7,64,-2,54,8,ok,2,0,0.001,2,-0.26,0.67,10.45,21,0.101,8.17
2.5604,0.09948,0.00524,0.25133,0.00000,0.00000,0.00000,26,0,59,8,62,-4,55,8,ok,2,0,0.001,3,-0.26,0.67,10.45,21,0.114,8.17
2.5730,0.09948,0.00524,0.25133,0.00000,0.00000,0.00000,26,0,60,10,60,-5,54,7,ok,2,0,0.001,3,-0.26,0.67,10.45,21,0.127,8.17
2.5931,0.09948,0.00524,0.25133,0.00000,0.00000,0.00000,24,0,61,10,59,-5,56,5,ok,2,0,0.001,3,-0.26,0.67,10.45,21,0.140,8.17
2.5980,0.09948,0.00524,0.25133,0.00000,0.00000,0.00000,23,2,61,11,56,-6,57,7,ok,2,0,0.001,3,-0.26,0.67,10.45,21,0.152,8.17
2.6105,0.09948,0.00524,0.25133,0.00000,0.00000,0.00000,22,5,61,11,54,-7,58,7,ok,2,0,0.001,3,-0.26,0.67,10.45,21,0.165,8.17
2.6332,0.09948,0.00524,0.25133,0.00000,0.00000,0.00000,20,8,61,12,51,-6,58,8,ok,2,0,0.001,3,-0.26,0.67,10.45,21,0.177,8.17
2.6365,0.09948,0.00524,0.25133,0.00000,0.00000,0.00000,20,10,62,12,48,-5,59,8,ok,2,0,0.001,3,-0.26,0.67,10.45,21,0.190,8.17
2.6493,0.09948,0.00524,0.25133,0.00000,0.00000,0.00000,21,11,62,13,46,-5,60,9,ok,2,0,0.001,3,-0.26,0.67,10.45,21,0.203,8.17
2.6691,0.02618,0.01920,0.28798,0.00000,0.00000,0.00000,21,10,62,14,43,-5,59,10,ok,2,0,0.001,3,-0.16,-0.28,9.13,22,0.000,8.17
2.6740,0.02618,0.01920,0.28798,0.00000,0.00000,0.00000,23,9,62,14,40,-5,60,11,ok,2,0,0.001,3,-0.16,-0.28,9.13,22,0.012,8.17
2.6865,0.02618,0.01920,0.28798,0.00000,0.00000,0.00000,24,9,62,15,37,-4,61,11,ok,2,0,0.001,3,-0.16,-0.28,9.13,22,0.025,8.17
2.7092,0.02618,0.01920,0.28798,0.00000,0.00000,0.00000,24,8,63,15,34,-3,61,12,ok,4,0,0.001,3,-0.16,-0.28,9.13,22,0.037,8.17
2.7123,0.02618,0.01920,0.28798,0.00000,0.00000,0.00000,26,7,63,16,31,-2,61,13,ok,4,0,0.001,3,-0.16,-0.28,9.13,22,0.051,8.17
2.7251,0.02618,0.01920,0.28798,0.00000,0.00000,0.00000,26,6,63,17,29,0,62,14,ok,4,0,0.001,3,-0.16,-0.28,9.13,22,0.063,8.17
2.7451,0.02618,0.01920,0.28798,0.00000,0.00000,0.00000,28,5,64,19,27,1,63,15,ok,4,0,0.001,3,-0.16,-0.28,9.13,22,0.076,8.17
2.7500,0.02618,0.01920,0.28798,0.00000,0.00000,0.00000,28,4,64,20,25,5,63,15,ok,4,0,0.001,3,-0.16,-0.28,9.13,22,0.088,8.17
2.7625,0.02618,0.01920,0.28798,0.00000,0.00000,0.00000,29,4,64,21,24,8,63,16,ok,4,0,0.001,3,-0.16,-0.28,9.13,22,0.101,8.17
2.7851,0.02618,0.01920,0.28798,0.00000,0.00000,0.00000,30,3,64,22,23,11,63,17,ok,4,0,0.001,3,-0.16,-0.28,9.13,22,0.113,8.17
2.7885,0.02618,0.01920,0.28798,0.00000,0.00000,0.00000,31,3,64,23,22,14,64,18,ok,4,0,0.001,3,-0.16,-0.28,9.13,22,0.127,8.17
2.8010,0.02618,0.01920,0.28798,0.00000,0.00000,0.00000,32,3,63,26,24,13,64,19,ok,4,0,0.001,3,-0.16,-0.28,9.13,22,0.139,8.17
2.8211,0.02618,0.01920,0.28798,0.00000,0.00000,0.00000,32,2,63,27,24,13,64,19,ok,4,0,0.001,3,-0.16,-0.28,9.13,22,0.152,8.17
2.8260,0.02618,0.01920,0.28798,0.00000,0.00000,0.00000,34,2,64,26,25,11,64,20,ok,4,0,0.001,3,-0.16,-0.28,9.13,22,0.164,8.17
2.8387,0.02618,0.01920,0.28798,0.00000,0.00000,0.00000,35,2,67,22,26,11,65,21,ok,4,0,0.001,3,-0.16,-0.28,9.13,22,0.177,8.17
2.8612,0.02618,0.01920,0.28798,0.00000,0.00000,0.00000,36,1,69,19,28,11,65,22,ok,4,0,0.001,3,-0.16,-0.28,9.13,22,0.189,8.17
2.8646,-0.01222,0.04712,0.28449,0.00000,0.00000,0.00000,37,1,70,15,29,10,64,23,ok,4,0,0.001,3,-0.30,-0.23,10.30,23,0.000,8.17
2.8770,-0.01222,0.04712,0.28449,0.00000,0.00000,0.00000,38,1,71,13,30,9,64,25,ok,4,0,0.001,3,-0.30,-0.23,10.30,23,0.013,8.17
2.8971,-0.01222,0.04712,0.28449,0.00000,0.00000,0.00000,40,1,70,12,32,9,65,26,ok,4,0,0.001,3,-0.30,-0.23,10.30,23,0.025,8.17
2.9020,-0.01222,0.04712,0.28449,0.00000,0.00000,0.00000,40,1,70,9,32,9,64,28,ok,4,0,0.001,3,-0.30,-0.23,10.30,23,0.038,8.17
2.9146,-0.01222,0.04712,0.28449,0.00000,0.00000,0.00000,42,2,69,6,35,9,64,30,ok,4,0,0.001,3,-0.30,-0.23,10.30,23,0.050,8.17
2.9371,-0.01222,0.04712,0.28449,0.00000,0.00000,0.00000,43,2,69,3,36,8,64,31,ok,4,0,0.001,3,-0.30,-0.23,10.30,23,0.063,8.17
2.9404,-0.01222,0.04712,0.28449,0.00000,0.00000,0.00000,44,2,67,1,37,9,64,33,ok,4,0,0.001,3,-0.30,-0.23,10.30,23,0.076,8.17
2.9532,-0.01222,0.04712,0.28449,0.00000,0.00000,0.00000,44,1,66,-1,38,8,64,34,ok,4,0,0.001,3,-0.30,-0.23,10.30,23,0.089,8.17
2.9731,-0.01222,0.04712,0.28449,0.00000,0.00000,0.00000,46,2,64,-3,39,8,63,35,ok,4,0,0.001,3,-0.30,-0.23,10.30,23,0.101,8.17
2.9780,-0.01222,0.04712,0.28449,0.00000,0.00000,0.00000,46,2,62,-4,41,7,64,35,ok,4,0,0.001,3,-0.30,-0.23,10.30,23,0.114,8.17
2.9905,-0.01222,0.04712,0.28449,0.00000,0.00000,0.00000,47,2,61,-5,42,7,66,34,ok,4,0,0.001,3,-0.30,-0.23,10.30,23,0.126,8.17
3.0132,-0.01222,0.04712,0.28449,0.00000,0.00000,0.00000,48,2,60,-8,43,7,67,32,ok,4,0,0.001,3,-0.30,-0.23,10.30,23,0.139,8.17
3.0163,-0.01222,0.04712,0.28449,0.00000,0.00000,0.00000,49,3,58,-8,44,7,69,27,ok,4,0,0.001,3,-0.30,-0.23,10.30,23,0.152,8.17
3.0293,-0.01222,0.04712,0.28449,0.00000,0.00000,0.00000,50,3,55,-9,45,7,71,23,ok,4,0,0.001,3,-0.30,-0.23,10.30,23,0.165,8.17
3.0491,-0.01222,0.04712,0.28449,0.00000,0.00000,0.00000,50,3,53,-9,46,7,72,20,ok,4,0,0.001,3,-0.30,-0.23,10.30,23,0.177,8.17
3.0540,-0.01222,0.04712,0.28449,0.00000,0.00000,0.00000,50,5,51,-10,47,7,72,20,ok,4,0,0.001,3,-0.30,-0.23,10.30,23,0.190,8.17
3.0667,-0.01222,0.04712,0.28449,0.00000,0.00000,0.00000,52,6,49,-10,47,7,73,18,ok,2,0,0.001,3,-0.30,-0.23,10.30,23,0.202,8.17
3.0892,-0.10996,-0.00349,0.40143,0.00000,0.00000,0.00000,52,5,46,-10,49,7,73,14,ok,2,0,0.001,3,-0.79,-1.23,9.99,24,0.000,8.17
3.0923,-0.10996,-0.00349,0.40143,0.00000,0.00000,0.00000,52,6,44,-10,49,7,72,12,ok,2,0,0.001,3,-0.79,-1.23,9.99,24,0.013,8.17
3.1050,-0.10996,-0.00349,0.40143,0.00000,0.00000,0.00000,53,6,41,-10,50,7,72,10,ok,2,0,0.001,3,-0.79,-1.23,9.99,24,0.026,8.17
3.1251,-0.10996,-0.00349,0.40143,0.00000,0.00000,0.00000,55,6,39,-10,50,7,71,7,ok,2,0,0.001,3,-0.79,-1.23,9.99,24,0.039,8.17
3.1300,-0.10996,-0.00349,0.40143,0.00000,0.00000,0.00000,55,6,37,-9,51,7,71,5,ok,2,0,0.001,3,-0.79,-1.23,9.99,24,0.051,8.17
3.1427,-0.10996,-0.00349,0.40143,0.00000,0.00000,0.00000,56,6,33,-8,52,7,70,4,ok,2,0,0.001,3,-0.79,-1.23,9.99,24,0.063,8.17
3.1651,-0.10996,-0.00349,0.40143,0.00000,0.00000,0.00000,56,7,31,-7,52,8,68,2,ok,2,0,0.001,3,-0.79,-1.23,9.99,24,0.076,8.17
3.1683,-0.10996,-0.00349,0.40143,0.00000,0.00000,0.00000,56,7,27,-6,54,8,66,1,ok,2,0,0.001,3,-0.79,-1.23,9.99,24,0.089,8.17
3.1810,-0.10996,-0.00349,0.40143,0.00000,0.00000,0.00000,57,8,24,-4,55,8,65,0,ok,2,0,0.001,3,-0.79,-1.23,9.99,24,0.102,8.17
3.2011,-0.10996,-0.00349,0.40143,0.00000,0.00000,0.00000,58,9,21,-2,56,8,64,-2,ok,2,0,0.001,3,-0.79,-1.23,9.99,24,0.114,8.17
3.2060,-0.10996,-0.00349,0.40143,0.00000,0.00000,0.00000,58,9,19,-1,58,6,62,-3,ok,2,0,0.001,3,-0.79,-1.23,9.99,24,0.127,8.17
3.2185,-0.10996,-0.00349,0.40143,0.00000,0.00000,0.00000,59,9,18,1,58,7,60,-4,ok,2,0,0.001,3,-0.79,-1.23,9.99,24,0.140,8.17
3.2411,-0.10996,-0.00349,0.40143,0.00000,0.00000,0.00000,59,11,16,3,58,8,58,-5,ok,2,0,0.001,3,-0.79,-1.23,9.99,24,0.152,8.17
3.2443,-0.10996,-0.00349,0.40143,0.00000,0.00000,0.00000,60,11,15,6,59,8,55,-5,ok,2,0,0.001,3,-0.79,-1.23,9.99,24,0.165,8.17
3.2570,-0.10996,-0.00349,0.40143,0.00000,0.00000,0.00000,60,12,13,9,59,9,54,-6,ok,2,0,0.001,3,-0.79,-1.23,9.99,24,0.178,8.17
3.2771,-0.10996,-0.00349,0.40143,0.00000,0.00000,0.00000,60,12,13,12,60,9,50,-5,ok,2,0,0.001,3,-0.79,-1.23,9.99,24,0.190,8.17
3.2822,-0.00873,0.08727,0.37176,0.00000,0.00000,0.00000,60,13,14,12,60,10,48,-5,ok,2,0,0.001,3,1.80,0.10,10.01,25,0.000,8.17
3.2945,-0.00873,0.08727,0.37176,0.00000,0.00000,0.00000,59,14,15,11,60,11,45,-5,ok,2,0,0.001,3,1.80,0.10,10.01,25,0.013,8.17
3.3171,-0.00873,0.08727,0.37176,0.00000,0.00000,0.00000,60,14,17,10,61,11,42,-4,ok,2,0,0.001,3,1.80,0.10,10.01,25,0.025,8.17
3.3203,-0.00873,0.08727,0.37176,0.00000,0.00000,0.00000,60,15,19,9,61,12,40,-4,ok,2,0,0.001,3,1.80,0.10,10.01,25,0.038,8.17
3.3332,-0.00873,0.08727,0.37176,0.00000,0.00000,0.00000,60,16,19,9,61,12,36,-3,ok,2,0,0.001,3,1.80,0.10,10.01,25,0.051,8.17
3.3531,-0.00873,0.08727,0.37176,0.00000,0.00000,0.00000,60,17,21,7,62,13,34,-3,ok,2,0,0.001,3,1.80,0.10,10.01,25,0.064,8.17
3.3580,-0.00873,0.08727,0.37176,0.00000,0.00000,0.00000,60,18,21,7,62,14,31,-1,ok,2,0,0.001,3,1.80,0.10,10.01,25,0.076,8.17
3.3705,-0.00873,0.08727,0.37176,0.00000,0.00000,0.00000,61,19,22,6,63,14,30,0,ok,2,0,0.001,3,1.80,0.10,10.01,25,0.089,8.17
3.3932,-0.00873,0.08727,0.37176,0.00000,0.00000,0.00000,61,20,23,5,63,15,27,1,ok,2,0,0.001,3,1.80,0.10,10.01,25,0.101,8.17
3.3965,-0.00873,0.08727,0.37176,0.00000,0.00000,0.00000,61,21,24,4,63,16,25,4,ok,2,0,0.001,3,1.80,0.10,10.01,25,0.114,8.17
3.4091,-0.00873,0.08727,0.37176,0.00000,0.00000,0.00000,61,22,25,4,63,17,24,7,ok,2,0,0.001,3,1.80,0.10,10.01,25,0.127,8.17
3.4291,-0.00873,0.08727,0.37176,0.00000,0.00000,0.00000,61,23,25,3,64,18,23,11,ok,2,0,0.001,3,1.80,0.10,10.01,25,0.140,8.17
3.4340,-0.00873,0.08727,0.37176,0.00000,0.00000,0.00000,60,25,26,3,64,19,23,13,ok,2,0,0.001,3,1.80,0.10,10.01,25,0.152,8.17
3.4465,-0.00873,0.08727,0.37176,0.00000,0.00000,0.00000,60,26,27,2,64,20,25,12,ok,2,0,0.001,3,1.80,0.10,10.01,25,0.165,8.17
3.4692,-0.00873,0.08727,0.37176,0.00000,0.00000,0.00000,61,25,28,2,64,21,25,11,ok,2,0,0.001,3,1.80,0.10,10.01,25,0.177,8.17
3.4723,-0.00873,0.08727,0.37176,0.00000,0.00000,0.00000,64,21,29,2,65,22,26,10,ok,2,0,0.001,3,1.80,0.10,10.01,25,0.190,8.17
3.4854,-0.07330,0.05411,0.47473,0.00000,0.00000,0.00000,65,17,31,1,64,23,27,9,ok,2,0,0.001,3,-0.39,-0.75,10.72,26,0.000,8.17
3.5051,-0.07330,0.05411,0.47473,0.00000,0.00000,0.00000,66,13,32,2,64,25,28,10,ok,2,0,0.001,3,-0.39,-0.75,10.72,26,0.013,8.17
3.5100,-0.07330,0.05411,0.47473,0.00000,0.00000,0.00000,66,11,33,2,65,25,30,9,ok,2,0,0.001,3,-0.39,-0.75,10.72,26,0.025,8.17
3.5225,-0.07330,0.05411,0.47473,0.00000,0.00000,0.00000,66,10,35,2,64,28,31,9,ok,2,0,0.001,3,-0.39,-0.75,10.72,26,0.038,8.17
3.5452,-0.07330,0.05411,0.47473,0.00000,0.00000,0.00000,66,7,37,2,64,29,33,9,ok,2,0,0.001,3,-0.39,-0.75,10.72,26,0.050,8.17
3.5485,-0.07330,0.05411,0.47473,0.00000,0.00000,0.00000,65,4,38,3,64,30,34,9,ok,2,0,0.001,3,-0.39,-0.75,10.72,26,0.063,8.17
3.5610,-0.07330,0.05411,0.47473,0.00000,0.00000,0.00000,65,1,40,3,64,32,35,8,ok,2,0,0.001,3,-0.39,-0.75,10.72,26,0.076,8.17
3.5811,-0.07330,0.05411,0.47473,0.00000,0.00000,0.00000,64,-1,41,3,64,34,36,8,ok,2,0,0.001,4,-0.39,-0.75,10.72,26,0.089,8.17
3.5860,-0.07330,0.05411,0.47473,0.00000,0.00000,0.00000,64,-3,43,3,64,35,37,8,ok,2,0,0.001,4,-0.39,-0.75,10.72,26,0.101,8.17
3.5985,-0.07330,0.05411,0.47473,0.00000,0.00000,0.00000,62,-4,44,3,64,35,38,8,ok,2,0,0.001,4,-0.39,-0.75,10.72,26,0.114,8.17
3.6211,-0.07330,0.05411,0.47473,0.00000,0.00000,0.00000,60,-5,44,3,66,35,39,8,ok,2,0,0.001,4,-0.39,-0.75,10.72,26,0.126,8.17
3.6243,-0.07330,0.05411,0.47473,0.00000,0.00000,0.00000,60,-6,45,3,67,33,41,7,ok,2,0,0.001,4,-0.39,-0.75,10.72,26,0.139,8.17
3.6371,-0.07330,0.05411,0.47473,0.00000,0.00000,0.00000,59,-8,46,3,69,28,42,7,ok,2,0,0.001,4,-0.39,-0.75,10.72,26,0.152,8.17
3.6571,-0.07330,0.05411,0.47473,0.00000,0.00000,0.00000,57,-9,48,4,71,24,44,7,ok,2,0,0.001,4,-0.39,-0.75,10.72,26,0.165,8.17
3.6620,-0.07330,0.05411,0.47473,0.00000,0.00000,0.00000,55,-10,49,4,73,21,44,7,ok,2,0,0.001,4,-0.39,-0.75,10.72,26,0.177,8.17
3.6745,-0.07330,0.05411,0.47473,0.00000,0.00000,0.00000,53,-10,49,3,74,21,45,7,ok,2,0,0.001,4,-0.39,-0.75,10.72,26,0.190,8.17
3.6972,0.02618,0.00873,0.46949,0.00000,0.00000,0.00000,52,-11,49,6,74,18,46,7,ok,2,0,0.001,4,-0.88,0.19,9.92,27,0.000,8.17
3.7003,0.02618,0.00873,0.46949,0.00000,0.00000,0.00000,49,-11,51,6,74,15,47,8,ok,2,0,0.001,4,-0.88,0.19,9.92,27,0.013,8.17
3.7133,0.02618,0.00873,0.46949,0.00000,0.00000,0.00000,47,-11,52,6,74,12,48,8,ok,2,0,0.001,4,-0.88,0.19,9.92,27,0.026,8.17
3.7331,0.02618,0.00873,0.46949,0.00000,0.00000,0.00000,45,-10,53,6,73,10,49,8,ok,2,0,0.001,4,-0.88,0.19,9.92,27,0.039,8.17
3.7380,0.02618,0.00873,0.46949,0.00000,0.00000,0.00000,43,-10,53,7,72,7,49,9,ok,2,0,0.001,4,-0.88,0.19,9.92,27,0.051,8.17
3.7505,0.02618,0.00873,0.46949,0.00000,0.00000,0.00000,41,-10,56,6,72,5,50,8,ok,2,0,0.001,4,-0.88,0.19,9.92,27,0.064,8.17
3.7731,0.02618,0.00873,0.46949,0.00000,0.00000,0.00000,39,-9,56,6,71,4,51,9,ok,2,0,0.001,4,-0.88,0.19,9.92,27,0.076,8.17
3.7763,0.02618,0.00873,0.46949,0.00000,0.00000,0.00000,36,-8,57,6,69,1,52,7,ok,2,0,0.001,4,-0.88,0.19,9.92,27,0.089,8.17
3.7890,0.02618,0.00873,0.46949,0.00000,0.00000,0.00000,34,-7,57,7,66,1,52,8,ok,2,0,0.001,4,-0.88,0.19,9.92,27,0.102,8.17
3.8091,0.02618,0.00873,0.46949,0.00000,0.00000,0.00000,32,-5,58,7,65,-1,53,8,ok,2,0,0.001,4,-0.88,0.19,9.92,27,0.115,8.17
3.8140,0.02618,0.00873,0.46949,0.00000,0.00000,0.00000,29,-3,58,8,63,-2,54,8,ok,2,0,0.001,4,-0.88,0.19,9.92,27,0.127,8.17
3.8265,0.02618,0.00873,0.46949,0.00000,0.00000,0.00000,26,-1,59,9,61,-4,55,8,ok,2,0,0.001,4,-0.88,0.19,9.92,27,0.140,8.17
3.8492,0.02618,0.00873,0.46949,0.00000,0.00000,0.00000,25,-1,60,11,60,-5,55,8,ok,2,0,0.001,4,-0.88,0.19,9.92,27,0.152,8.17
3.8525,0.02618,0.00873,0.46949,0.00000,0.00000,0.00000,24,0,61,10,58,-6,57,6,ok,2,0,0.001,4,-0.88,0.19,9.92,27,0.165,8.17
3.8651,0.02618,0.00873,0.46949,0.00000,0.00000,0.00000,23,2,61,11,56,-6,57,7,ok,2,0,0.001,4,-0.88,0.19,9.92,27,0.178,8.17
3.8851,0.02618,0.00873,0.46949,0.00000,0.00000,0.00000,22,5,61,11,54,-7,58,8,ok,2,0,0.001,4,-0.88,0.19,9.92,27,0.191,8.17
3.8902,0.02618,0.00873,0.46949,0.00000,0.00000,0.00000,20,8,61,12,51,-6,58,8,ok,2,0,0.001,4,-0.88,0.19,9.92,27,0.203,8.17
3.9027,-0.00698,0.01920,0.51662,0.00000,0.00000,0.00000,20,10,61,12,48,-6,59,9,ok,2,0,0.001,4,1.63,-0.52,10.65,28,0.000,8.17
3.9251,-0.00698,0.01920,0.51662,0.00000,0.00000,0.00000,21,11,62,13,45,-6,60,10,ok,2,0,0.001,4,1.63,-0.52,10.65,28,0.012,8.17
3.9283,-0.00698,0.01920,0.51662,0.00000,0.00000,0.00000,21,11,61,14,43,-5,60,10,ok,2,0,0.001,4,1.63,-0.52,10.65,28,0.026,8.17
3.9410,-0.00698,0.01920,0.51662,0.00000,0.00000,0.00000,23,9,62,14,40,-5,61,11,ok,2,0,0.001,4,1.63,-0.52,10.65,28,0.038,8.17
3.9611,-0.00698,0.01920,0.51662,0.00000,0.00000,0.00000,24,9,62,15,37,-4,61,12,ok,2,0,0.001,4,1.63,-0.52,10.65,28,0.051,8.17
3.9662,-0.00698,0.01920,0.51662,0.00000,0.00000,0.00000,24,8,62,15,34,-3,61,13,ok,2,0,0.001,4,1.63,-0.52,10.65,28,0.063,8.17
3.9785,-0.00698,0.01920,0.51662,0.00000,0.00000,0.00000,26,7,63,16,31,-2,61,13,ok,2,0,0.001,4,1.63,-0.52,10.65,28,0.076,8.17
4.0011,-0.00698,0.01920,0.51662,0.00000,0.00000,0.00000,27,7,63,17,29,0,62,14,ok,2,0,0.001,4,1.63,-0.52,10.65,28,0.088,8.17
4.0043,-0.00698,0.01920,0.51662,0.00000,0.00000,0.00000,28,6,64,18,28,1,62,15,ok,2,0,0.001,4,1.63,-0.52,10.65,28,0.102,8.17
4.0170,-0.00698,0.01920,0.51662,0.00000,0.00000,0.00000,29,5,64,19,25,5,63,15,ok,2,0,0.001,4,1.63,-0.52,10.65,28,0.114,8.17
4.0371,-0.00698,0.01920,0.51662,0.00000,0.00000,0.00000,29,4,64,21,24,8,63,16,ok,2,0,0.001,4,1.63,-0.52,10.65,28,0.127,8.17
4.0422,-0.00698,0.01920,0.51662,0.00000,0.00000,0.00000,31,4,64,22,23,11,63,17,ok,2,0,0.001,4,1.63,-0.52,10.65,28,0.139,8.17
4.0545,-0.00698,0.01920,0.51662,0.00000,0.00000,0.00000,32,4,64,23,22,14,64,18,ok,2,0,0.001,4,1.63,-0.52,10.65,28,0.152,8.17
4.0771,-0.00698,0.01920,0.51662,0.00000,0.00000,0.00000,32,3,63,25,24,13,64,19,ok,2,0,0.001,4,1.63,-0.52,10.65,28,0.164,8.17
4.0803,-0.00698,0.01920,0.51662,0.00000,0.00000,0.00000,33,2,63,27,24,13,64,19,ok,2,0,0.001,4,1.63,-0.52,10.65,28,0.178,8.17
4.0934,-0.02967,0.05236,0.47822,0.00000,0.00000,0.00000,34,2,64,25,25,11,64,21,ok,2,0,0.001,4,1.39,1.20,10.32,29,0.000,8.17
4.1131,-0.02967,0.05236,0.47822,0.00000,0.00000,0.00000,35,2,67,22,26,11,65,21,ok,2,0,0.001,4,1.39,1.20,10.32,29,0.013,8.17
4.1180,-0.02967,0.05236,0.47822,0.00000,0.00000,0.00000,36,1,69,19,27,11,65,22,ok,2,0,0.001,4,1.39,1.20,10.32,29,0.025,8.17
4.1307,-0.02967,0.05236,0.47822,0.00000,0.00000,0.00000,37,1,70,15,29,10,64,24,ok,2,0,0.001,4,1.39,1.20,10.32,29,0.038,8.17
4.1571,-0.02967,0.05236,0.47822,0.00000,0.00000,0.00000,38,1,71,13,30,9,64,26,ok,2,0,0.001,4,1.39,1.20,10.32,29,0.050,8.17
4.1603,-0.02967,0.05236,0.47822,0.00000,0.00000,0.00000,40,1,70,12,33,9,65,26,ok,2,0,0.001,4,1.39,1.20,10.32,29,0.067,8.17
4.1731,-0.02967,0.05236,0.47822,0.00000,0.00000,0.00000,40,1,70,9,33,9,64,28,ok,2,0,0.001,4,1.39,1.20,10.32,29,0.080,8.17
4.1931,-0.02967,0.05236,0.47822,0.00000,0.00000,0.00000,42,2,69,6,35,9,64,30,ok,2,0,0.001,4,1.39,1.20,10.32,29,0.093,8.17
4.1982,-0.02967,0.05236,0.47822,0.00000,0.00000,0.00000,43,2,68,3,36,8,64,31,ok,2,0,0.001,4,1.39,1.20,10.32,29,0.105,8.17
4.2105,-0.02967,0.05236,0.47822,0.00000,0.00000,0.00000,44,2,67,0,37,9,64,33,ok,2,0,0.001,4,1.39,1.20,10.32,29,0.118,8.17
4.2332,-0.02967,0.05236,0.47822,0.00000,0.00000,0.00000,44,2,66,-2,39,8,64,34,ok,4,0,0.001,4,1.39,1.20,10.32,29,0.130,8.17
4.2363,-0.02967,0.05236,0.47822,0.00000,0.00000,0.00000,46,2,64,-3,40,8,63,35,ok,2,0,0.001,4,1.39,1.20,10.32,29,0.143,8.17
4.2490,-0.02967,0.05236,0.47822,0.00000,0.00000,0.00000,46,2,62,-4,41,7,64,35,ok,2,0,0.001,4,1.39,1.20,10.32,29,0.156,8.17
4.2691,-0.02967,0.05236,0.47822,0.00000,0.00000,0.00000,47,3,61,-6,42,7,66,35,ok,2,0,0.001,4,1.39,1.20,10.32,29,0.169,8.17
4.2741,-0.02967,0.05236,0.47822,0.00000,0.00000,0.00000,48,3,60,-8,43,7,67,32,ok,2,0,0.001,4,1.39,1.20,10.32,29,0.181,8.17
4.2865,-0.02967,0.05236,0.47822,0.00000,0.00000,0.00000,49,3,58,-8,44,7,69,27,ok,2,0,0.001,4,1.39,1.20,10.32,29,0.194,8.17
4.3091,-0.02967,0.05236,0.47822,0.00000,0.00000,0.00000,50,3,55,-9,45,7,71,24,ok,2,0,0.001,4,1.39,1.20,10.32,29,0.206,8.17
4.3126,-0.08901,0.05585,0.55327,0.00000,0.00000,0.00000,50,3,53,-9,46,7,72,21,ok,2,0,0.001,4,0.58,-0.41,10.39,30,0.000,8.17
4.3256,-0.08901,0.05585,0.55327,0.00000,0.00000,0.00000,51,5,51,-10,47,7,73,20,ok,2,0,0.001,4,0.58,-0.41,10.39,30,0.013,8.17
4.3451,-0.08901,0.05585,0.55327,0.00000,0.00000,0.00000,52,5,49,-10,47,7,73,18,ok,2,0,0.001,4,0.58,-0.41,10.39,30,0.025,8.17
4.3501,-0.08901,0.05585,0.55327,0.00000,0.00000,0.00000,52,5,46,-10,48,7,73,15,ok,2,0,0.001,4,0.58,-0.41,10.39,30,0.038,8.17
4.3625,-0.08901,0.05585,0.55327,0.00000,0.00000,0.00000,52,6,44,-9,49,7,72,12,ok,2,0,0.001,4,0.58,-0.41,10.39,30,0.050,8.17
4.3852,-0.08901,0.05585,0.55327,0.00000,0.00000,0.00000,53,6,41,-10,50,7,72,11,ok,2,0,0.001,4,0.58,-0.41,10.39,30,0.063,8.17
4.3885,-0.08901,0.05585,0.55327,0.00000,0.00000,0.00000,55,6,39,-10,51,7,71,7,ok,2,0,0.001,4,0.58,-0.41,10.39,30,0.076,8.17
4.4011,-0.08901,0.05585,0.55327,0.00000,0.00000,0.00000,55,6,36,-9,52,7,71,5,ok,2,0,0.001,4,0.58,-0.41,10.39,30,0.089,8.17
4.4211,-0.08901,0.05585,0.55327,0.00000,0.00000,0.00000,56,7,33,-8,52,7,70,4,ok,2,0,0.001,4,0.58,-0.41,10.39,30,0.101,8.17
4.4260,-0.08901,0.05585,0.55327,0.00000,0.00000,0.00000,56,7,30,-7,53,8,68,2,ok,2,0,0.001,4,0.58,-0.41,10.39,30,0.114,8.17
4.4385,-0.08901,0.05585,0.55327,0.00000,0.00000,0.00000,56,7,27,-6,54,8,66,2,ok,2,0,0.001,4,0.58,-0.41,10.39,30,0.126,8.17
4.4612,-0.08901,0.05585,0.55327,0.00000,0.00000,0.00000,57,8,24,-4,55,8,65,0,ok,2,0,0.001,4,0.58,-0.41,10.39,30,0.139,8.17
4.4645,-0.08901,0.05585,0.55327,0.00000,0.00000,0.00000,58,9,20,-2,56,8,64,-2,ok,2,0,0.001,4,0.58,-0.41,10.39,30,0.152,8.17
4.4770,-0.08901,0.05585,0.55327,0.00000,0.00000,0.00000,58,10,19,-1,58,6,62,-3,ok,2,0,0.001,4,0.58,-0.41,10.39,30,0.165,8.17
4.4972,-0.08901,0.05585,0.55327,0.00000,0.00000,0.00000,59,9,18,0,58,7,60,-4,ok,2,0,0.001,4,0.58,-0.41,10.39,30,0.177,8.17
4.5023,-0.00698,0.02618,0.54629,0.00000,0.00000,0.00000,59,10,16,3,59,8,58,-5,ok,2,0,0.001,4,0.44,0.23,9.44,31,0.000,8.17
4.5147,-0.00698,0.02618,0.54629,0.00000,0.00000,0.00000,59,11,14,5,59,9,55,-6,ok,2,0,0.001,4,0.44,0.23,9.44,31,0.013,8.17
4.5371,-0.00698,0.02618,0.54629,0.00000,0.00000,0.00000,59,12,13,9,60,9,53,-6,ok,2,0,0.001,4,0.44,0.23,9.44,31,0.025,8.17
4.5403,-0.00698,0.02618,0.54629,0.00000,0.00000,0.00000,59,12,12,11,60,10,50,-5,ok,2,0,0.001,4,0.44,0.23,9.44,31,0.038,8.17
4.5530,-0.00698,0.02618,0.54629,0.00000,0.00000,0.00000,60,13,14,11,61,10,48,-5,ok,2,0,0.001,4,0.44,0.23,9.44,31,0.051,8.17
4.5733,-0.00698,0.02618,0.54629,0.00000,0.00000,0.00000,59,14,15,11,61,11,46,-5,ok,2,0,0.001,4,0.44,0.23,9.44,31,0.064,8.17
4.5806,-0.00698,0.02618,0.54629,0.00000,0.00000,0.00000,60,14,17,10,61,11,42,-4,ok,2,0,0.001,4,0.44,0.23,9.44,31,0.078,8.17
4.5929,-0.00698,0.02618,0.54629,0.00000,0.00000,0.00000,60,15,18,9,61,12,41,-5,ok,2,0,0.001,5,0.44,0.23,9.44,31,0.091,8.17
4.6132,-0.00698,0.02618,0.54629,0.00000,0.00000,0.00000,60,16,19,8,61,12,37,-3,ok,2,0,0.001,5,0.44,0.23,9.44,31,0.103,8.17
4.6178,-0.00698,0.02618,0.54629,0.00000,0.00000,0.00000,60,17,21,7,62,13,35,-3,ok,2,0,0.001,5,0.44,0.23,9.44,31,0.116,8.17
4.6307,-0.00698,0.02618,0.54629,0.00000,0.00000,0.00000,60,18,21,7,62,14,31,-1,ok,2,0,0.001,5,0.44,0.23,9.44,31,0.128,8.17
4.6532,-0.00698,0.02618,0.54629,0.00000,0.00000,0.00000,62,19,23,6,63,14,30,0,ok,2,0,0.001,5,0.44,0.23,9.44,31,0.141,8.17
4.6564,-0.00698,0.02618,0.54629,0.00000,0.00000,0.00000,61,20,24,5,63,15,27,1,ok,2,0,0.001,5,0.44,0.23,9.44,31,0.154,8.17
4.6690,-0.00698,0.02618,0.54629,0.00000,0.00000,0.00000,62,21,24,5,63,16,25,5,ok,2,0,0.001,5,0.44,0.23,9.44,31,0.167,8.17
4.6891,-0.00698,0.02618,0.54629,0.00000,0.00000,0.00000,62,22,25,4,63,17,24,7,ok,2,0,0.001,5,0.44,0.23,9.44,31,0.180,8.17
4.6940,-0.00698,0.02618,0.54629,0.00000,0.00000,0.00000,62,23,26,3,64,18,23,11,ok,2,0,0.001,5,0.44,0.23,9.44,31,0.192,8.17
4.7068,-0.04887,0.09774,0.57945,0.00000,0.00000,0.00000,61,26,27,3,64,19,22,13,ok,2,0,0.001,5,2.20,-1.43,10.97,32,0.000,8.17
4.7292,-0.04887,0.09774,0.57945,0.00000,0.00000,0.00000,61,26,28,2,64,20,24,12,ok,2,0,0.001,5,2.20,-1.43,10.97,32,0.013,8.17
4.7323,-0.04887,0.09774,0.57945,0.00000,0.00000,0.00000,62,25,29,2,64,21,25,12,ok,2,0,0.001,5,2.20,-1.43,10.97,32,0.026,8.17
4.7450,-0.04887,0.09774,0.57945,0.00000,0.00000,0.00000,64,21,30,2,64,22,25,10,ok,2,0,0.001,5,2.20,-1.43,10.97,32,0.038,8.17
4.7652,-0.04887,0.09774,0.57945,0.00000,0.00000,0.00000,66,18,31,2,64,23,27,9,ok,2,0,0.001,5,2.20,-1.43,10.97,32,0.051,8.17
4.7699,-0.04887,0.09774,0.57945,0.00000,0.00000,0.00000,66,13,32,2,64,25,28,10,ok,2,0,0.001,5,2.20,-1.43,10.97,32,0.063,8.17
4.7826,-0.04887,0.09774,0.57945,0.00000,0.00000,0.00000,66,11,33,2,65,25,29,9,ok,2,0,0.001,5,2.20,-1.43,10.97,32,0.076,8.17
4.8051,-0.04887,0.09774,0.57945,0.00000,0.00000,0.00000,66,10,35,2,64,28,30,9,ok,2,0,0.001,5,2.20,-1.43,10.97,32,0.088,8.17
4.8084,-0.04887,0.09774,0.57945,0.00000,0.00000,0.00000,66,7,36,2,64,29,32,9,ok,2,0,0.001,5,2.20,-1.43,10.97,32,0.102,8.17
4.8210,-0.04887,0.09774,0.57945,0.00000,0.00000,0.00000,65,4,38,3,64,30,33,9,ok,2,0,0.001,5,2.20,-1.43,10.97,32,0.115,8.17
4.8411,-0.04887,0.09774,0.57945,0.00000,0.00000,0.00000,64,1,39,3,64,32,35,9,ok,2,0,0.001,5,2.20,-1.43,10.97,32,0.127,8.17
4.8461,-0.04887,0.09774,0.57945,0.00000,0.00000,0.00000,64,-1,41,3,64,34,36,8,ok,2,0,0.001,5,2.20,-1.43,10.97,32,0.140,8.17
4.8585,-0.04887,0.09774,0.57945,0.00000,0.00000,0.00000,63,-3,42,2,64,35,37,8,ok,2,0,0.001,5,2.20,-1.43,10.97,32,0.152,8.17
4.8811,-0.04887,0.09774,0.57945,0.00000,0.00000,0.00000,62,-4,43,3,65,35,38,8,ok,2,0,0.001,5,2.20,-1.43,10.97,32,0.165,8.17
4.8844,-0.04887,0.09774,0.57945,0.00000,0.00000,0.00000,60,-5,44,3,66,35,39,8,ok,2,0,0.001,5,2.20,-1.43,10.97,32,0.178,8.17
4.8969,-0.04887,0.09774,0.57945,0.00000,0.00000,0.00000,60,-6,45,3,68,33,41,7,ok,2,0,0.001,5,2.20,-1.43,10.97,32,0.190,8.17
4.9171,0.05061,0.04712,0.62832,0.00000,0.00000,0.00000,59,-8,46,3,70,28,42,7,ok,2,0,0.001,5,0.04,1.28,10.57,33,0.000,8.17
4.9222,0.05061,0.04712,0.62832,0.00000,0.00000,0.00000,56,-9,47,4,72,24,43,7,ok,2,0,0.001,5,0.04,1.28,10.57,33,0.012,8.17
4.9347,0.05061,0.04712,0.62832,0.00000,0.00000,0.00000,55,-10,49,3,73,22,44,7,ok,2,0,0.001,5,0.04,1.28,10.57,33,0.025,8.17
4.9572,0.05061,0.04712,0.62832,0.00000,0.00000,0.00000,53,-10,49,3,74,21,45,7,ok,2,0,0.001,5,0.04,1.28,10.57,33,0.038,8.17
4.9604,0.05061,0.04712,0.62832,0.00000,0.00000,0.00000,51,-11,49,5,74,19,46,7,ok,2,0,0.001,5,0.04,1.28,10.57,33,0.051,8.17
4.9730,0.05061,0.04712,0.62832,0.00000,0.00000,0.00000,49,-11,51,6,74,15,47,8,ok,2,0,0.001,5,0.04,1.28,10.57,33,0.064,8.17
4.9931,0.05061,0.04712,0.62832,0.00000,0.00000,0.00000,48,-10,52,5,74,12,48,8,ok,2,0,0.001,5,0.04,1.28,10.57,33,0.076,8.17
4.9980,0.05061,0.04712,0.62832,0.00000,0.00000,0.00000,45,-10,53,5,73,10,49,8,ok,2,0,0.001,5,0.04,1.28,10.57,33,0.089,8.17
5.0105,0.05061,0.04712,0.62832,0.00000,0.00000,0.00000,43,-10,53,6,72,6,49,8,ok,2,0,0.001,5,0.04,1.28,10.57,33,0.101,8.17
5.0371,0.05061,0.04712,0.62832,0.00000,0.00000,0.00000,40,-10,55,6,72,5,50,7,ok,2,0,0.001,5,0.04,1.28,10.57,33,0.114,8.17
5.0404,0.05061,0.04712,0.62832,0.00000,0.00000,0.00000,39,-9,56,7,71,4,51,8,ok,2,0,0.001,5,0.04,1.28,10.57,33,0.131,8.17
5.0530,0.05061,0.04712,0.62832,0.00000,0.00000,0.00000,36,-8,57,7,69,1,52,7,ok,2,0,0.001,5,0.04,1.28,10.57,33,0.143,8.17
5.0731,0.05061,0.04712,0.62832,0.00000,0.00000,0.00000,34,-8,57,8,66,2,52,8,ok,2,0,0.001,5,0.04,1.28,10.57,33,0.156,8.17
5.0780,0.05061,0.04712,0.62832,0.00000,0.00000,0.00000,31,-6,57,8,65,-1,53,8,ok,2,0,0.001,5,0.04,1.28,10.57,33,0.168,8.17
5.0905,0.05061,0.04712,0.62832,0.00000,0.00000,0.00000,28,-4,58,8,64,-2,54,9,ok,2,0,0.001,5,0.04,1.28,10.57,33,0.181,8.17
5.1132,0.05061,0.04712,0.62832,0.00000,0.00000,0.00000,26,-2,59,9,61,-4,55,8,ok,2,0,0.001,5,0.04,1.28,10.57,33,0.193,8.17
5.1167,0.11345,-0.03142,0.60912,0.00000,0.00000,0.00000,25,-2,60,11,60,-5,55,8,ok,2,0,0.001,5,-0.70,0.56,9.82,34,0.000,8.17
5.1290,0.11345,-0.03142,0.60912,0.00000,0.00000,0.00000,24,-1,60,10,59,-5,56,6,ok,2,0,0.001,5,-0.70,0.56,9.82,34,0.013,8.17
5.1491,0.11345,-0.03142,0.60912,0.00000,0.00000,0.00000,23,2,61,11,56,-6,57,7,ok,2,0,0.001,5,-0.70,0.56,9.82,34,0.025,8.17
5.1541,0.11345,-0.03142,0.60912,0.00000,0.00000,0.00000,21,5,61,10,54,-7,58,7,ok,2,0,0.001,5,-0.70,0.56,9.82,34,0.038,8.17
5.1665,0.11345,-0.03142,0.60912,0.00000,0.00000,0.00000,20,8,61,12,51,-6,58,8,ok,2,0,0.001,5,-0.70,0.56,9.82,34,0.050,8.17
5.1891,0.11345,-0.03142,0.60912,0.00000,0.00000,0.00000,20,11,62,11,48,-5,59,8,ok,2,0,0.001,5,-0.70,0.56,9.82,34,0.063,8.17
5.1924,0.11345,-0.03142,0.60912,0.00000,0.00000,0.00000,21,12,62,12,46,-5,60,9,ok,2,0,0.001,5,-0.70,0.56,9.82,34,0.076,8.17
5.2049,0.11345,-0.03142,0.60912,0.00000,0.00000,0.00000,21,11,62,13,43,-5,60,10,ok,2,0,0.001,5,-0.70,0.56,9.82,34,0.089,8.17
5.2251,0.11345,-0.03142,0.60912,0.00000,0.00000,0.00000,23,10,63,13,40,-5,60,10,ok,2,0,0.001,5,-0.70,0.56,9.82,34,0.101,8.17
5.2301,0.11345,-0.03142,0.60912,0.00000,0.00000,0.00000,24,10,62,14,37,-4,60,11,ok,2,0,0.001,5,-0.70,0.56,9.82,34,0.114,8.17
5.2426,0.11345,-0.03142,0.60912,0.00000,0.00000,0.00000,24,9,63,14,34,-3,61,12,ok,2,0,0.001,5,-0.70,0.56,9.82,34,0.126,8.17
5.2651,0.11345,-0.03142,0.60912,0.00000,0.00000,0.00000,27,8,63,15,31,-1,61,13,ok,2,0,0.001,5,-0.70,0.56,9.82,34,0.139,8.17
5.2683,0.11345,-0.03142,0.60912,0.00000,0.00000,0.00000,27,7,63,17,29,0,62,14,ok,2,0,0.001,5,-0.70,0.56,9.82,34,0.152,8.17
5.2809,0.11345,-0.03142,0.60912,0.00000,0.00000,0.00000,28,6,64,18,28,2,62,14,ok,2,0,0.001,5,-0.70,0.56,9.82,34,0.165,8.17
5.3011,0.11345,-0.03142,0.60912,0.00000,0.00000,0.00000,29,5,64,19,25,5,63,15,ok,2,0,0.001,5,-0.70,0.56,9.82,34,0.177,8.17
5.3059,0.11345,-0.03142,0.60912,0.00000,0.00000,0.00000,30,5,65,20,24,8,63,16,ok,2,0,0.001,5,-0.70,0.56,9.82,34,0.190,8.17
5.3188,0.11345,-0.03142,0.60912,0.00000,0.00000,0.00000,31,4,65,22,23,12,63,17,ok,2,0,0.001,5,-0.70,0.56,9.82,34,0.202,8.17
5.3412,0.02793,0.10123,0.58469,0.00000,0.00000,0.00000,32,4,64,23,22,14,63,17,ok,2,0,0.001,5,1.77,1.29,10.04,35,0.000,8.17
5.3446,0.02793,0.10123,0.58469,0.00000,0.00000,0.00000,32,3,64,26,23,13,64,18,ok,2,0,0.001,5,1.77,1.29,10.04,35,0.013,8.17
5.3570,0.02793,0.10123,0.58469,0.00000,0.00000,0.00000,33,2,64,28,23,13,64,19,ok,2,0,0.001,5,1.77,1.29,10.04,35,0.026,8.17
5.3772,0.02793,0.10123,0.58469,0.00000,0.00000,0.00000,34,2,65,26,24,11,64,20,ok,2,0,0.001,5,1.77,1.29,10.04,35,0.039,8.17
5.3819,0.02793,0.10123,0.58469,0.00000,0.00000,0.00000,35,1,67,23,26,10,64,21,ok,2,0,0.001,5,1.77,1.29,10.04,35,0.051,8.17
5.3945,0.02793,0.10123,0.58469,0.00000,0.00000,0.00000,36,0,69,20,27,10,65,22,ok,2,0,0.001,5,1.77,1.29,10.04,35,0.064,8.17
5.4171,0.02793,0.10123,0.58469,0.00000,0.00000,0.00000,36,0,70,15,29,10,64,23,ok,2,0,0.001,5,1.77,1.29,10.04,35,0.076,8.17
5.4204,0.02793,0.10123,0.58469,0.00000,0.00000,0.00000,37,0,70,13,30,9,64,25,ok,2,0,0.001,5,1.77,1.29,10.04,35,0.089,8.17
5.4332,0.02793,0.10123,0.58469,0.00000,0.00000,0.00000,39,0,70,13,33,9,65,26,ok,2,0,0.001,5,1.77,1.29,10.04,35,0.102,8.17
5.4531,0.02793,0.10123,0.58469,0.00000,0.00000,0.00000,40,0,70,9,33,9,64,28,ok,2,0,0.001,5,1.77,1.29,10.04,35,0.115,8.17
5.4580,0.02793,0.10123,0.58469,0.00000,0.00000,0.00000,41,1,69,6,35,9,64,30,ok,2,0,0.001,5,1.77,1.29,10.04,35,0.127,8.17
5.4708,0.02793,0.10123,0.58469,0.00000,0.00000,0.00000,42,1,68,3,36,9,64,31,ok,2,0,0.001,5,1.77,1.29,10.04,35,0.140,8.17
5.4932,0.02793,0.10123,0.58469,0.00000,0.00000,0.00000,44,2,67,0,37,9,64,32,ok,2,0,0.001,5,1.77,1.29,10.04,35,0.152,8.17
5.4964,0.02793,0.10123,0.58469,0.00000,0.00000,0.00000,44,1,66,-2,39,8,64,34,ok,2,0,0.001,5,1.77,1.29,10.04,35,0.165,8.17
5.5090,0.02793,0.10123,0.58469,0.00000,0.00000,0.00000,45,2,64,-3,40,8,64,35,ok,2,0,0.001,5,1.77,1.29,10.04,35,0.178,8.17
5.5291,0.02793,0.10123,0.58469,0.00000,0.00000,0.00000,45,2,62,-4,41,7,65,35,ok,2,0,0.001,5,1.77,1.29,10.04,35,0.190,8.17
5.5343,-0.14835,0.01745,0.65973,0.00000,0.00000,0.00000,47,2,61,-6,42,7,66,34,ok,2,0,0.001,5,1.05,-1.28,9.95,36,0.000,8.17
5.5465,-0.14835,0.01745,0.65973,0.00000,0.00000,0.00000,48,2,60,-7,43,6,68,32,ok,2,0,0.001,5,1.05,-1.28,9.95,36,0.013,8.17
5.5692,-0.14835,0.01745,0.65973,0.00000,0.00000,0.00000,49,3,58,-8,44,7,70,27,ok,2,0,0.001,5,1.05,-1.28,9.95,36,0.025,8.17
5.5723,-0.14835,0.01745,0.65973,0.00000,0.00000,0.00000,50,2,55,-9,45,7,72,23,ok,2,0,0.001,5,1.05,-1.28,9.95,36,0.038,8.17
5.5850,-0.14835,0.01745,0.65973,0.00000,0.00000,0.00000,50,2,53,-9,45,7,74,20,ok,2,0,0.001,5,1.05,-1.28,9.95,36,0.051,8.17
5.6051,-0.14835,0.01745,0.65973,0.00000,0.00000,0.00000,50,4,51,-10,47,7,74,20,ok,2,0,0.001,5,1.05,-1.28,9.95,36,0.064,8.17
5.6099,-0.14835,0.01745,0.65973,0.00000,0.00000,0.00000,51,4,49,-9,47,7,74,18,ok,2,0,0.001,6,1.05,-1.28,9.95,36,0.076,8.17
5.6227,-0.14835,0.01745,0.65973,0.00000,0.00000,0.00000,52,4,46,-9,48,7,73,15,ok,2,0,0.001,6,1.05,-1.28,9.95,36,0.089,8.17
5.6452,-0.14835,0.01745,0.65973,0.00000,0.00000,0.00000,52,5,44,-9,49,8,72,12,ok,2,0,0.001,6,1.05,-1.28,9.95,36,0.101,8.17
5.6484,-0.14835,0.01745,0.65973,0.00000,0.00000,0.00000,53,5,41,-9,50,7,72,11,ok,2,0,0.001,6,1.05,-1.28,9.95,36,0.114,8.17
5.6610,-0.14835,0.01745,0.65973,0.00000,0.00000,0.00000,55,6,39,-10,51,7,71,7,ok,2,0,0.001,6,1.05,-1.28,9.95,36,0.127,8.17
5.6811,-0.14835,0.01745,0.65973,0.00000,0.00000,0.00000,55,7,37,-9,52,7,71,6,ok,2,0,0.002,6,1.05,-1.28,9.95,36,0.140,8.17
5.6860,-0.14835,0.01745,0.65973,0.00000,0.00000,0.00000,56,7,33,-8,52,7,70,4,ok,2,0,0.002,6,1.05,-1.28,9.95,36,0.152,8.17
5.6985,-0.14835,0.01745,0.65973,0.00000,0.00000,0.00000,56,8,30,-7,52,7,68,2,ok,2,0,0.002,6,1.05,-1.28,9.95,36,0.165,8.17
5.7212,-0.14835,0.01745,0.65973,0.00000,0.00000,0.00000,56,8,27,-6,53,8,66,2,ok,2,0,0.002,6,1.05,-1.28,9.95,36,0.177,8.17
5.7245,-0.14835,0.01745,0.65973,0.00000,0.00000,0.00000,57,9,24,-4,54,8,65,0,ok,2,0,0.002,6,1.05,-1.28,9.95,36,0.190,8.17
5.7372,-0.05236,-0.02443,0.67370,0.00000,0.00000,0.00000,58,10,20,-2,55,8,64,-2,ok,2,0,0.002,6,0.78,-0.65,11.30,37,0.000,8.17
5.7571,-0.05236,-0.02443,0.67370,0.00000,0.00000,0.00000,58,10,19,-1,58,6,62,-3,ok,2,0,0.002,6,0.78,-0.65,11.30,37,0.013,8.17
5.7620,-0.05236,-0.02443,0.67370,0.00000,0.00000,0.00000,59,10,18,0,58,8,59,-4,ok,2,0,0.002,6,0.78,-0.65,11.30,37,0.025,8.17
5.7745,-0.05236,-0.02443,0.67370,0.00000,0.00000,0.00000,59,11,16,2,59,8,58,-5,ok,2,0,0.002,6,0.78,-0.65,11.30,37,0.038,8.17
5.7972,-0.05236,-0.02443,0.67370,0.00000,0.00000,0.00000,59,11,15,5,59,9,55,-6,ok,2,0,0.002,6,0.78,-0.65,11.30,37,0.050,8.17
5.8006,-0.05236,-0.02443,0.67370,0.00000,0.00000,0.00000,60,13,13,9,60,9,53,-6,ok,2,0,0.002,6,0.78,-0.65,11.30,37,0.063,8.17
5.8129,-0.05236,-0.02443,0.67370,0.00000,0.00000,0.00000,60,13,13,11,60,10,50,-5,ok,2,0,0.002,6,0.78,-0.65,11.30,37,0.076,8.17
5.8331,-0.05236,-0.02443,0.67370,0.00000,0.00000,0.00000,60,14,15,11,60,10,48,-5,ok,2,0,0.002,6,0.78,-0.65,11.30,37,0.089,8.17
5.8380,-0.05236,-0.02443,0.67370,0.00000,0.00000,0.00000,60,14,16,11,61,10,45,-5,ok,2,0,0.002,6,0.78,-0.65,11.30,37,0.101,8.17
5.8505,-0.05236,-0.02443,0.67370,0.00000,0.00000,0.00000,60,15,17,10,61,11,42,-4,ok,2,0,0.002,6,0.78,-0.65,11.30,37,0.114,8.17
5.8731,-0.05236,-0.02443,0.67370,0.00000,0.00000,0.00000,60,16,19,9,61,12,40,-4,ok,2,0,0.002,6,0.78,-0.65,11.30,37,0.126,8.17
5.8763,-0.05236,-0.02443,0.67370,0.00000,0.00000,0.00000,60,16,19,8,61,12,37,-3,ok,2,0,0.002,6,0.78,-0.65,11.30,37,0.139,8.17
5.8891,-0.05236,-0.02443,0.67370,0.00000,0.00000,0.00000,61,16,21,8,61,13,35,-3,ok,2,0,0.002,6,0.78,-0.65,11.30,37,0.152,8.17
5.9091,-0.05236,-0.02443,0.67370,0.00000,0.00000,0.00000,61,18,22,7,62,14,31,-1,ok,2,0,0.002,6,0.78,-0.65,11.30,37,0.165,8.17
5.9140,-0.05236,-0.02443,0.67370,0.00000,0.00000,0.00000,62,19,23,6,63,14,30,0,ok,2,0,0.002,6,0.78,-0.65,11.30,37,0.177,8.17
5.9267,-0.05236,-0.02443,0.67370,0.00000,0.00000,0.00000,62,20,24,5,63,15,27,2,ok,2,0,0.002,6,0.78,-0.65,11.30,37,0.189,8.17
5.9491,0.06807,0.06632,0.70511,0.00000,0.00000,0.00000,62,21,25,5,62,16,25,5,ok,2,0,0.002,6,0.84,0.37,9.06,38,0.000,8.17
5.9523,0.06807,0.06632,0.70511,0.00000,0.00000,0.00000,62,23,26,4,63,17,24,7,ok,2,0,0.002,6,0.84,0.37,9.06,38,0.013,8.17
5.9651,0.06807,0.06632,0.70511,0.00000,0.00000,0.00000,62,23,26,3,64,18,22,11,ok,2,0,0.002,6,0.84,0.37,9.06,38,0.026,8.17
5.9851,0.06807,0.06632,0.70511,0.00000,0.00000,0.00000,61,27,27,3,64,19,22,13,ok,2,0,0.002,6,0.84,0.37,9.06,38,0.039,8.17
5.9900,0.06807,0.06632,0.70511,0.00000,0.00000,0.00000,61,27,28,2,64,20,24,12,ok,2,0,0.002,6,0.84,0.37,9.06,38,0.051,8.17
6.0025,0.06807,0.06632,0.70511,0.00000,0.00000,0.00000,62,26,29,1,64,21,24,11,ok,2,0,0.002,6,0.84,0.37,9.06,38,0.064,8.17
6.0251,0.06807,0.06632,0.70511,0.00000,0.00000,0.00000,64,22,30,1,65,22,25,10,ok,2,0,0.002,6,0.84,0.37,9.06,38,0.076,8.17
6.0284,0.06807,0.06632,0.70511,0.00000,0.00000,0.00000,66,19,31,1,64,23,26,9,ok,2,0,0.002,6,0.84,0.37,9.06,38,0.089,8.17
6.0410,0.06807,0.06632,0.70511,0.00000,0.00000,0.00000,66,14,32,1,64,25,27,10,ok,2,0,0.002,6,0.84,0.37,9.06,38,0.102,8.17
6.0611,0.06807,0.06632,0.70511,0.00000,0.00000,0.00000,67,12,33,1,65,26,29,9,ok,2,0,0.002,6,0.84,0.37,9.06,38,0.115,8.17
6.0660,0.06807,0.06632,0.70511,0.00000,0.00000,0.00000,66,11,35,1,64,28,30,8,ok,2,0,0.002,6,0.84,0.37,9.06,38,0.127,8.17
6.0785,0.06807,0.06632,0.70511,0.00000,0.00000,0.00000,66,8,36,2,64,29,32,8,ok,2,0,0.002,6,0.84,0.37,9.06,38,0.140,8.17
6.1012,0.06807,0.06632,0.70511,0.00000,0.00000,0.00000,65,4,38,3,64,31,33,9,ok,2,0,0.002,6,0.84,0.37,9.06,38,0.152,8.17
6.1044,0.06807,0.06632,0.70511,0.00000,0.00000,0.00000,65,2,40,3,64,32,35,8,ok,2,0,0.002,6,0.84,0.37,9.06,38,0.165,8.17
6.1170,0.06807,0.06632,0.70511,0.00000,0.00000,0.00000,64,-1,41,3,64,34,36,8,ok,2,0,0.002,6,0.84,0.37,9.06,38,0.178,8.17
6.1371,-0.01222,0.02269,0.76096,0.00000,0.00000,0.00000,63,-3,42,2,64,35,37,8,ok,2,0,0.002,6,-0.41,1.49,8.64,39,0.000,8.17
6.1420,-0.01222,0.02269,0.76096,0.00000,0.00000,0.00000,62,-4,44,3,64,35,38,8,ok,2,0,0.002,6,-0.41,1.49,8.64,39,0.012,8.17
6.1545,-0.01222,0.02269,0.76096,0.00000,0.00000,0.00000,60,-5,44,3,66,35,40,7,ok,2,0,0.002,6,-0.41,1.49,8.64,39,0.025,8.17
6.1772,-0.01222,0.02269,0.76096,0.00000,0.00000,0.00000,60,-7,45,3,67,33,41,7,ok,2,0,0.002,6,-0.41,1.49,8.64,39,0.038,8.17
6.1804,-0.01222,0.02269,0.76096,0.00000,0.00000,0.00000,59,-9,46,3,69,29,42,7,ok,2,0,0.002,6,-0.41,1.49,8.64,39,0.051,8.17
6.1929,-0.01222,0.02269,0.76096,0.00000,0.00000,0.00000,57,-10,48,4,71,24,44,7,ok,2,0,0.002,6,-0.41,1.49,8.64,39,0.064,8.17
6.2131,-0.01222,0.02269,0.76096,0.00000,0.00000,0.00000,55,-11,49,4,72,22,44,7,ok,2,0,0.002,6,-0.41,1.49,8.64,39,0.076,8.17
6.2180,-0.01222,0.02269,0.76096,0.00000,0.00000,0.00000,53,-11,50,4,73,21,45,7,ok,2,0,0.002,6,-0.41,1.49,8.64,39,0.088,8.17
6.2305,-0.01222,0.02269,0.76096,0.00000,0.00000,0.00000,52,-12,50,6,73,19,46,7,ok,2,0,0.002,6,-0.41,1.49,8.64,39,0.101,8.17
6.2531,-0.01222,0.02269,0.76096,0.00000,0.00000,0.00000,49,-12,51,6,73,15,47,8,ok,2,0,0.002,6,-0.41,1.49,8.64,39,0.114,8.17
6.2564,-0.01222,0.02269,0.76096,0.00000,0.00000,0.00000,48,-11,52,6,73,12,48,8,ok,2,0,0.002,6,-0.41,1.49,8.64,39,0.127,8.17
6.2689,-0.01222,0.02269,0.76096,0.00000,0.00000,0.00000,45,-11,53,6,72,10,49,8,ok,2,0,0.002,6,-0.41,1.49,8.64,39,0.139,8.17
6.2891,-0.01222,0.02269,0.76096,0.00000,0.00000,0.00000,44,-11,53,7,72,7,49,9,ok,2,0,0.002,6,-0.41,1.49,8.64,39,0.152,8.17
6.2939,-0.01222,0.02269,0.76096,0.00000,0.00000,0.00000,41,-11,56,7,71,5,50,8,ok,2,0,0.002,6,-0.41,1.49,8.64,39,0.164,8.17
6.3065,-0.01222,0.02269,0.76096,0.00000,0.00000,0.00000,39,-10,56,7,70,4,51,9,ok,2,0,0.002,6,-0.41,1.49,8.64,39,0.177,8.17
6.3292,-0.01222,0.02269,0.76096,0.00000,0.00000,0.00000,36,-8,57,7,69,1,52,7,ok,2,0,0.002,6,-0.41,1.49,8.64,39,0.190,8.17
6.3326,0.06981,-0.03316,0.77318,0.00000,0.00000,0.00000,34,-7,57,8,66,1,52,8,ok,2,0,0.002,6,-0.25,0.71,10.21,40,0.000,8.17
6.3450,0.06981,-0.03316,0.77318,0.00000,0.00000,0.00000,31,-6,58,7,65,0,53,8,ok,2,0,0.002,6,-0.25,0.71,10.21,40,0.013,8.17
6.3651,0.06981,-0.03316,0.77318,0.00000,0.00000,0.00000,29,-4,58,8,64,-2,54,9,ok,2,0,0.002,6,-0.25,0.71,10.21,40,0.025,8.17
6.3699,0.06981,-0.03316,0.77318,0.00000,0.00000,0.00000,26,-1,59,9,62,-4,55,8,ok,2,0,0.002,6,-0.25,0.71,10.21,40,0.038,8.17
6.3826,0.06981,-0.03316,0.77318,0.00000,0.00000,0.00000,25,-1,60,10,61,-5,54,8,ok,2,0,0.002,6,-0.25,0.71,10.21,40,0.050,8.17
6.4051,0.06981,-0.03316,0.77318,0.00000,0.00000,0.00000,24,0,61,10,59,-5,56,6,ok,2,0,0.002,6,-0.25,0.71,10.21,40,0.063,8.17
6.4083,0.06981,-0.03316,0.77318,0.00000,0.00000,0.00000,24,3,61,10,56,-6,57,7,ok,2,0,0.002,6,-0.25,0.71,10.21,40,0.076,8.17
6.4210,0.06981,-0.03316,0.77318,0.00000,0.00000,0.00000,22,6,61,10,54,-7,57,8,ok,2,0,0.002,6,-0.25,0.71,10.21,40,0.089,8.17
6.4411,0.06981,-0.03316,0.77318,0.00000,0.00000,0.00000,20,9,61,11,51,-6,58,8,ok,2,0,0.002,6,-0.25,0.71,10.21,40,0.101,8.17
6.4460,0.06981,-0.03316,0.77318,0.00000,0.00000,0.00000,20,12,62,11,48,-6,59,8,ok,2,0,0.002,6,-0.25,0.71,10.21,40,0.114,8.17
6.4585,0.06981,-0.03316,0.77318,0.00000,0.00000,0.00000,21,12,62,12,46,-5,59,9,ok,2,0,0.002,6,-0.25,0.71,10.21,40,0.126,8.17
6.4811,0.06981,-0.03316,0.77318,0.00000,0.00000,0.00000,22,11,62,13,42,-5,59,10,ok,2,0,0.002,6,-0.25,0.71,10.21,40,0.139,8.17
6.4844,0.06981,-0.03316,0.77318,0.00000,0.00000,0.00000,23,10,63,14,40,-4,60,10,ok,2,0,0.002,6,-0.25,0.71,10.21,40,0.152,8.17
6.4970,0.06981,-0.03316,0.77318,0.00000,0.00000,0.00000,24,9,62,14,37,-4,60,11,ok,2,0,0.002,6,-0.25,0.71,10.21,40,0.165,8.17
6.5171,0.06981,-0.03316,0.77318,0.00000,0.00000,0.00000,25,9,63,15,34,-3,61,12,ok,2,0,0.002,6,-0.25,0.71,10.21,40,0.177,8.17
6.5219,0.06981,-0.03316,0.77318,0.00000,0.00000,0.00000,27,8,63,16,31,-1,61,13,ok,2,0,0.002,6,-0.25,0.71,10.21,40,0.190,8.17
6.5348,-0.05411,0.02793,0.79063,0.00000,0.00000,0.00000,27,7,63,17,29,0,62,13,ok,2,0,0.002,6,0.45,-0.83,9.74,41,0.000,8.17
6.5572,-0.05411,0.02793,0.79063,0.00000,0.00000,0.00000,28,6,64,18,27,1,62,15,ok,2,0,0.002,6,0.45,-0.83,9.74,41,0.013,8.17
6.5604,-0.05411,0.02793,0.79063,0.00000,0.00000,0.00000,29,5,65,20,25,4,63,15,ok,2,0,0.002,6,0.45,-0.83,9.74,41,0.026,8.17
6.5729,-0.05411,0.02793,0.79063,0.00000,0.00000,0.00000,30,4,64,21,23,7,63,16,ok,2,0,0.002,6,0.45,-0.83,9.74,41,0.039,8.17
6.5931,-0.05411,0.02793,0.79063,0.00000,0.00000,0.00000,31,3,64,22,22,11,63,17,ok,2,0,0.002,6,0.45,-0.83,9.74,41,0.051,8.17
6.5980,-0.05411,0.02793,0.79063,0.00000,0.00000,0.00000,32,3,64,24,22,14,64,18,ok,2,0,0.002,6,0.45,-0.83,9.74,41,0.063,8.17
6.6106,-0.05411,0.02793,0.79063,0.00000,0.00000,0.00000,32,2,63,27,24,13,64,19,ok,2,0,0.002,6,0.45,-0.83,9.74,41,0.076,8.17
6.6331,-0.05411,0.02793,0.79063,0.00000,0.00000,0.00000,32,1,63,28,24,13,64,20,ok,2,0,0.002,7,0.45,-0.83,9.74,41,0.088,8.17
6.6364,-0.05411,0.02793,0.79063,0.00000,0.00000,0.00000,34,1,65,27,25,11,64,21,ok,2,0,0.002,7,0.45,-0.83,9.74,41,0.102,8.17
6.6489,-0.05411,0.02793,0.79063,0.00000,0.00000,0.00000,35,1,67,23,26,11,65,22,ok,2,0,0.002,7,0.45,-0.83,9.74,41,0.115,8.17
6.6692,-0.05411,0.02793,0.79063,0.00000,0.00000,0.00000,36,0,70,19,28,11,65,23,ok,2,0,0.002,7,0.45,-0.83,9.74,41,0.127,8.17
6.6742,-0.05411,0.02793,0.79063,0.00000,0.00000,0.00000,37,1,71,15,29,10,65,24,ok,2,0,0.002,7,0.45,-0.83,9.74,41,0.139,8.17
6.6865,-0.05411,0.02793,0.79063,0.00000,0.00000,0.00000,38,1,71,13,30,9,65,26,ok,2,0,0.002,7,0.45,-0.83,9.74,41,0.152,8.17
6.7092,-0.05411,0.02793,0.79063,0.00000,0.00000,0.00000,40,2,70,12,33,9,65,26,ok,2,0,0.002,7,0.45,-0.83,9.74,41,0.165,8.17
6.7124,-0.05411,0.02793,0.79063,0.00000,0.00000,0.00000,40,2,70,8,33,9,64,28,ok,2,0,0.002,7,0.45,-0.83,9.74,41,0.178,8.17
6.7251,-0.05411,0.02793,0.79063,0.00000,0.00000,0.00000,42,3,69,5,35,9,64,30,ok,2,0,0.002,7,0.45,-0.83,9.74,41,0.191,8.17
6.7451,-0.03142,0.00698,0.81332,0.00000,0.00000,0.00000,43,3,69,3,36,8,64,31,ok,2,0,0.002,7,-0.33,-0.06,9.40,42,0.000,8.17
6.7502,-0.03142,0.00698,0.81332,0.00000,0.00000,0.00000,44,2,67,0,37,9,64,33,ok,2,0,0.002,7,-0.33,-0.06,9.40,42,0.012,8.17
6.7626,-0.03142,0.00698,0.81332,0.00000,0.00000,0.00000,45,2,66,-2,39,8,64,34,ok,2,0,0.002,7,-0.33,-0.06,9.40,42,0.025,8.17
6.7851,-0.03142,0.00698,0.81332,0.00000,0.00000,0.00000,46,3,64,-3,40,8,63,35,ok,2,0,0.002,7,-0.33,-0.06,9.40,42,0.037,8.17
6.7883,-0.03142,0.00698,0.81332,0.00000,0.00000,0.00000,46,3,62,-5,41,7,64,36,ok,2,0,0.002,7,-0.33,-0.06,9.40,42,0.051,8.17
6.8009,-0.03142,0.00698,0.81332,0.00000,0.00000,0.00000,47,3,61,-6,42,7,65,35,ok,2,0,0.002,7,-0.33,-0.06,9.40,42,0.063,8.17
6.8211,-0.03142,0.00698,0.81332,0.00000,0.00000,0.00000,48,3,60,-8,43,7,67,32,ok,2,0,0.002,7,-0.33,-0.06,9.40,42,0.076,8.17
6.8259,-0.03142,0.00698,0.81332,0.00000,0.00000,0.00000,49,4,58,-8,44,7,69,27,ok,2,0,0.002,7,-0.33,-0.06,9.40,42,0.088,8.17
6.8385,-0.03142,0.00698,0.81332,0.00000,0.00000,0.00000,50,3,56,-9,45,7,70,23,ok,2,0,0.002,7,-0.33,-0.06,9.40,42,0.101,8.17
6.8612,-0.03142,0.00698,0.81332,0.00000,0.00000,0.00000,51,3,54,-9,46,7,72,21,ok,2,0,0.002,7,-0.33,-0.06,9.40,42,0.113,8.17
6.8645,-0.03142,0.00698,0.81332,0.00000,0.00000,0.00000,51,5,51,-10,47,7,72,20,ok,2,0,0.002,7,-0.33,-0.06,9.40,42,0.127,8.17
6.8770,-0.03142,0.00698,0.81332,0.00000,0.00000,0.00000,52,6,49,-10,47,7,72,18,ok,2,0,0.002,7,-0.33,-0.06,9.40,42,0.139,8.17
6.8971,-0.03142,0.00698,0.81332,0.00000,0.00000,0.00000,52,5,46,-10,48,7,72,15,ok,2,0,0.002,7,-0.33,-0.06,9.40,42,0.152,8.17
6.9019,-0.03142,0.00698,0.81332,0.00000,0.00000,0.00000,52,6,44,-9,49,8,72,12,ok,2,0,0.002,7,-0.33,-0.06,9.40,42,0.164,8.17
6.9145,-0.03142,0.00698,0.81332,0.00000,0.00000,0.00000,53,7,42,-10,50,7,71,10,ok,2,0,0.002,7,-0.33,-0.06,9.40,42,0.177,8.17
6.9371,-0.03142,0.00698,0.81332,0.00000,0.00000,0.00000,55,7,39,-10,50,8,71,7,ok,2,0,0.002,7,-0.33,-0.06,9.40,42,0.189,8.17
6.9406,-0.09250,0.01222,0.84125,0.00000,0.00000,0.00000,55,7,37,-9,51,7,70,5,ok,2,0,0.002,7,-0.47,-0.73,9.23,43,0.000,8.17
6.9530,-0.09250,0.01222,0.84125,0.00000,0.00000,0.00000,56,7,33,-8,52,7,70,4,ok,2,0,0.002,7,-0.47,-0.73,9.23,43,0.013,8.17
6.9731,-0.09250,0.01222,0.84125,0.00000,0.00000,0.00000,56,8,31,-7,52,7,68,2,ok,2,0,0.002,7,-0.47,-0.73,9.23,43,0.025,8.17
6.9780,-0.09250,0.01222,0.84125,0.00000,0.00000,0.00000,57,8,27,-6,53,8,66,2,ok,2,0,0.002,7,-0.47,-0.73,9.23,43,0.038,8.17
6.9905,-0.09250,0.01222,0.84125,0.00000,0.00000,0.00000,57,8,24,-4,54,8,65,0,ok,2,0,0.002,7,-0.47,-0.73,9.23,43,0.050,8.17
7.0132,-0.09250,0.01222,0.84125,0.00000,0.00000,0.00000,58,9,21,-2,55,8,64,-2,ok,2,0,0.002,7,-0.47,-0.73,9.23,43,0.063,8.17
7.0166,-0.09250,0.01222,0.84125,0.00000,0.00000,0.00000,58,9,19,0,57,6,62,-3,ok,2,0,0.002,7,-0.47,-0.73,9.23,43,0.076,8.17
7.0289,-0.09250,0.01222,0.84125,0.00000,0.00000,0.00000,59,9,18,1,58,7,60,-4,ok,2,0,0.002,7,-0.47,-0.73,9.23,43,0.089,8.17
7.0491,-0.09250,0.01222,0.84125,0.00000,0.00000,0.00000,59,10,16,3,58,8,58,-5,ok,2,0,0.002,7,-0.47,-0.73,9.23,43,0.101,8.17
7.0540,-0.09250,0.01222,0.84125,0.00000,0.00000,0.00000,59,10,15,6,59,8,55,-5,ok,2,0,0.002,7,-0.47,-0.73,9.23,43,0.114,8.17
7.0667,-0.09250,0.01222,0.84125,0.00000,0.00000,0.00000,59,12,13,9,60,9,54,-6,ok,2,0,0.002,7,-0.47,-0.73,9.23,43,0.126,8.17
7.0891,-0.09250,0.01222,0.84125,0.00000,0.00000,0.00000,60,12,13,12,60,9,50,-5,ok,2,0,0.002,7,-0.47,-0.73,9.23,43,0.139,8.17
7.0923,-0.09250,0.01222,0.84125,0.00000,0.00000,0.00000,60,13,14,12,60,9,48,-5,ok,2,0,0.002,7,-0.47,-0.73,9.23,43,0.152,8.17
7.1049,-0.09250,0.01222,0.84125,0.00000,0.00000,0.00000,60,14,15,11,61,10,46,-5,ok,2,0,0.002,7,-0.47,-0.73,9.23,43,0.165,8.17
7.1251,-0.09250,0.01222,0.84125,0.00000,0.00000,0.00000,60,14,17,10,61,11,42,-4,ok,2,0,0.002,7,-0.47,-0.73,9.23,43,0.177,8.17
7.1301,-0.09250,0.01222,0.84125,0.00000,0.00000,0.00000,60,15,19,9,61,12,41,-4,ok,2,0,0.002,7,-0.47,-0.73,9.23,43,0.190,8.17
7.1428,0.04712,0.10647,0.84823,0.00000,0.00000,0.00000,60,15,19,9,61,12,37,-3,ok,2,0,0.002,7,1.02,0.61,10.24,44,0.000,8.17
7.1652,0.04712,0.10647,0.84823,0.00000,0.00000,0.00000,60,17,21,7,61,13,34,-3,ok,2,0,0.002,7,1.02,0.61,10.24,44,0.013,8.17
7.1686,0.04712,0.10647,0.84823,0.00000,0.00000,0.00000,60,18,21,7,62,15,30,-1,ok,2,0,0.002,7,1.02,0.61,10.24,44,0.026,8.17
7.1812,0.04712,0.10647,0.84823,0.00000,0.00000,0.00000,61,19,23,6,63,14,29,0,ok,2,0,0.002,7,1.02,0.61,10.24,44,0.039,8.17
7.2011,0.04712,0.10647,0.84823,0.00000,0.00000,0.00000,61,21,24,5,63,15,27,1,ok,2,0,0.002,7,1.02,0.61,10.24,44,0.051,8.17
7.2060,0.04712,0.10647,0.84823,0.00000,0.00000,0.00000,62,22,24,4,63,16,25,5,ok,2,0,0.002,7,1.02,0.61,10.24,44,0.064,8.17
7.2186,0.04712,0.10647,0.84823,0.00000,0.00000,0.00000,62,23,25,3,63,17,24,7,ok,2,0,0.002,7,1.02,0.61,10.24,44,0.076,8.17
7.2412,0.04712,0.10647,0.84823,0.00000,0.00000,0.00000,62,24,25,2,64,18,23,11,ok,2,0,0.002,7,1.02,0.61,10.24,44,0.089,8.17
7.2443,0.04712,0.10647,0.84823,0.00000,0.00000,0.00000,61,26,26,2,64,19,22,12,ok,2,0,0.002,7,1.02,0.61,10.24,44,0.102,8.17
7.2569,0.04712,0.10647,0.84823,0.00000,0.00000,0.00000,60,27,27,1,64,20,24,12,ok,2,0,0.002,7,1.02,0.61,10.24,44,0.115,8.17
7.2771,0.04712,0.10647,0.84823,0.00000,0.00000,0.00000,62,26,28,1,64,21,25,11,ok,2,0,0.002,7,1.02,0.61,10.24,44,0.127,8.17
7.2820,0.04712,0.10647,0.84823,0.00000,0.00000,0.00000,64,22,29,2,65,22,25,10,ok,2,0,0.002,7,1.02,0.61,10.24,44,0.139,8.17
7.2945,0.04712,0.10647,0.84823,0.00000,0.00000,0.00000,65,17,30,1,64,24,27,9,ok,2,0,0.002,7,1.02,0.61,10.24,44,0.152,8.17
7.3171,0.04712,0.10647,0.84823,0.00000,0.00000,0.00000,66,13,32,2,64,25,28,10,ok,2,0,0.002,7,1.02,0.61,10.24,44,0.165,8.17
7.3204,0.04712,0.10647,0.84823,0.00000,0.00000,0.00000,66,11,33,2,65,26,29,9,ok,2,0,0.002,7,1.02,0.61,10.24,44,0.178,8.17
7.3332,0.04712,0.10647,0.84823,0.00000,0.00000,0.00000,66,10,35,2,64,28,30,8,ok,2,0,0.002,7,1.02,0.61,10.24,44,0.191,8.17
7.3531,-0.03142,0.05934,0.91106,0.00000,0.00000,0.00000,66,7,36,2,64,29,32,8,ok,2,0,0.002,7,-1.71,-0.37,8.80,45,0.000,8.17
7.3580,-0.03142,0.05934,0.91106,0.00000,0.00000,0.00000,65,4,38,3,64,30,33,9,ok,2,0,0.002,7,-1.71,-0.37,8.80,45,0.012,8.17
7.3705,-0.03142,0.05934,0.91106,0.00000,0.00000,0.00000,64,1,39,3,64,32,35,8,ok,2,0,0.002,7,-1.71,-0.37,8.80,45,0.025,8.17
7.3932,-0.03142,0.05934,0.91106,0.00000,0.00000,0.00000,64,-1,41,3,64,34,37,8,ok,2,0,0.002,7,-1.71,-0.37,8.80,45,0.037,8.17
7.3965,-0.03142,0.05934,0.91106,0.00000,0.00000,0.00000,63,-3,42,2,63,35,37,8,ok,2,0,0.002,7,-1.71,-0.37,8.80,45,0.051,8.17
7.4090,-0.03142,0.05934,0.91106,0.00000,0.00000,0.00000,62,-5,44,3,64,35,39,8,ok,2,0,0.002,7,-1.71,-0.37,8.80,45,0.063,8.17
7.4291,-0.03142,0.05934,0.91106,0.00000,0.00000,0.00000,60,-6,44,3,66,35,40,7,ok,2,0,0.002,7,-1.71,-0.37,8.80,45,0.076,8.17
7.4339,-0.03142,0.05934,0.91106,0.00000,0.00000,0.00000,60,-7,45,3,67,33,41,7,ok,2,0,0.002,7,-1.71,-0.37,8.80,45,0.088,8.17
7.4465,-0.03142,0.05934,0.91106,0.00000,0.00000,0.00000,59,-9,46,3,69,29,42,7,ok,2,0,0.002,7,-1.71,-0.37,8.80,45,0.101,8.17
7.4691,-0.03142,0.05934,0.91106,0.00000,0.00000,0.00000,56,-10,48,4,71,24,44,7,ok,2,0,0.002,7,-1.71,-0.37,8.80,45,0.113,8.17
7.4723,-0.03142,0.05934,0.91106,0.00000,0.00000,0.00000,55,-11,49,4,73,21,44,7,ok,2,0,0.002,7,-1.71,-0.37,8.80,45,0.127,8.17
7.4851,-0.03142,0.05934,0.91106,0.00000,0.00000,0.00000,53,-11,49,4,74,21,45,7,ok,2,0,0.002,7,-1.71,-0.37,8.80,45,0.139,8.17
7.5051,-0.03142,0.05934,0.91106,0.00000,0.00000,0.00000,52,-11,49,6,74,18,46,7,ok,2,0,0.002,7,-1.71,-0.37,8.80,45,0.152,8.17
7.5099,-0.03142,0.05934,0.91106,0.00000,0.00000,0.00000,49,-11,51,6,74,15,47,8,ok,2,0,0.002,7,-1.71,-0.37,8.80,45,0.164,8.17
7.5226,-0.03142,0.05934,0.91106,0.00000,0.00000,0.00000,48,-11,52,6,73,12,48,8,ok,2,0,0.002,7,-1.71,-0.37,8.80,45,0.177,8.17
7.5452,0.06458,0.01047,0.94771,0.00000,0.00000,0.00000,45,-10,53,6,73,10,49,8,ok,2,0,0.002,7,0.26,0.81,10.21,46,0.000,8.17
7.5484,0.06458,0.01047,0.94771,0.00000,0.00000,0.00000,43,-11,53,7,72,7,49,8,ok,2,0,0.002,7,0.26,0.81,10.21,46,0.013,8.17
7.5611,0.06458,0.01047,0.94771,0.00000,0.00000,0.00000,40,-11,55,7,72,5,50,8,ok,2,0,0.002,7,0.26,0.81,10.21,46,0.026,8.17
7.5811,0.06458,0.01047,0.94771,0.00000,0.00000,0.00000,39,-10,56,7,71,4,51,8,ok,2,0,0.002,7,0.26,0.81,10.21,46,0.039,8.17
7.5860,0.06458,0.01047,0.94771,0.00000,0.00000,0.00000,36,-8,57,7,69,2,52,7,ok,2,0,0.002,7,0.26,0.81,10.21,46,0.051,8.17
7.5985,0.06458,0.01047,0.94771,0.00000,0.00000,0.00000,34,-7,57,7,66,2,52,8,ok,2,0,0.002,7,0.26,0.81,10.21,46,0.064,8.17
7.6212,0.06458,0.01047,0.94771,0.00000,0.00000,0.00000,32,-5,58,7,65,0,52,8,ok,2,0,0.002,7,0.26,0.81,10.21,46,0.076,8.17
7.6244,0.06458,0.01047,0.94771,0.00000,0.00000,0.00000,29,-3,58,8,64,-2,54,8,ok,2,0,0.002,7,0.26,0.81,10.21,46,0.089,8.17
7.6369,0.06458,0.01047,0.94771,0.00000,0.00000,0.00000,26,-1,59,8,61,-4,55,8,ok,2,0,0.002,8,0.26,0.81,10.21,46,0.102,8.17
7.6571,0.06458,0.01047,0.94771,0.00000,0.00000,0.00000,25,-1,60,10,60,-5,55,7,ok,2,0,0.002,8,0.26,0.81,10.21,46,0.115,8.17
7.6620,0.06458,0.01047,0.94771,0.00000,0.00000,0.00000,24,0,61,10,58,-5,56,6,ok,2,0,0.002,8,0.26,0.81,10.21,46,0.127,8.17
7.6746,0.06458,0.01047,0.94771,0.00000,0.00000,0.00000,23,2,61,11,55,-6,57,7,ok,2,0,0.002,8,0.26,0.81,10.21,46,0.140,8.17
7.6972,0.06458,0.01047,0.94771,0.00000,0.00000,0.00000,22,5,61,11,54,-7,58,7,ok,2,0,0.002,8,0.26,0.81,10.21,46,0.152,8.17
7.7003,0.06458,0.01047,0.94771,0.00000,0.00000,0.00000,20,8,61,12,51,-6,58,8,ok,2,0,0.002,8,0.26,0.81,10.21,46,0.165,8.17
7.7131,0.06458,0.01047,0.94771,0.00000,0.00000,0.00000,20,10,62,12,48,-6,59,8,ok,2,0,0.002,8,0.26,0.81,10.21,46,0.178,8.17
7.7331,0.06458,0.01047,0.94771,0.00000,0.00000,0.00000,21,11,62,13,45,-6,60,9,ok,2,0,0.002,8,0.26,0.81,10.21,46,0.191,8.17
7.7382,0.00349,0.03491,0.98088,0.00000,0.00000,0.00000,21,11,61,14,43,-5,60,10,ok,2,0,0.002,8,-0.13,0.04,8.07,47,0.000,8.17
7.7505,0.00349,0.03491,0.98088,0.00000,0.00000,0.00000,23,9,62,14,40,-5,61,11,ok,2,0,0.002,8,-0.13,0.04,8.07,47,0.013,8.17
7.7731,0.00349,0.03491,0.98088,0.00000,0.00000,0.00000,24,9,62,15,37,-4,61,11,ok,2,0,0.002,8,-0.13,0.04,8.07,47,0.025,8.17
7.7764,0.00349,0.03491,0.98088,0.00000,0.00000,0.00000,24,8,62,15,34,-3,62,12,ok,2,0,0.002,8,-0.13,0.04,8.07,47,0.038,8.17
7.7891,0.00349,0.03491,0.98088,0.00000,0.00000,0.00000,26,7,63,16,31,-2,61,13,ok,2,0,0.002,8,-0.13,0.04,8.07,47,0.051,8.17
7.8131,0.00349,0.03491,0.98088,0.00000,0.00000,0.00000,27,7,63,17,29,0,62,14,ok,2,0,0.002,8,-0.13,0.04,8.07,47,0.064,8.17
7.8163,0.00349,0.03491,0.98088,0.00000,0.00000,0.00000,28,5,64,18,28,1,62,15,ok,2,0,0.002,8,-0.13,0.04,8.07,47,0.078,8.17
7.8290,0.00349,0.03491,0.98088,0.00000,0.00000,0.00000,28,4,64,20,25,5,63,15,ok,2,0,0.002,8,-0.13,0.04,8.07,47,0.091,8.17
7.8491,0.00349,0.03491,0.98088,0.00000,0.00000,0.00000,29,4,64,21,24,8,63,16,ok,2,0,0.002,8,-0.13,0.04,8.07,47,0.103,8.17
7.8540,0.00349,0.03491,0.98088,0.00000,0.00000,0.00000,30,3,64,22,23,11,63,17,ok,2,0,0.002,8,-0.13,0.04,8.07,47,0.116,8.17
7.8665,0.00349,0.03491,0.98088,0.00000,0.00000,0.00000,31,3,64,23,22,14,64,18,ok,2,0,0.002,8,-0.13,0.04,8.07,47,0.129,8.17
7.8891,0.00349,0.03491,0.98088,0.00000,0.00000,0.00000,32,3,63,26,24,13,64,18,ok,2,0,0.002,8,-0.13,0.04,8.07,47,0.141,8.17
7.8923,0.00349,0.03491,0.98088,0.00000,0.00000,0.00000,32,2,63,27,24,13,64,19,ok,2,0,0.002,8,-0.13,0.04,8.07,47,0.154,8.17
7.9050,0.00349,0.03491,0.98088,0.00000,0.00000,0.00000,33,2,64,26,25,11,64,20,ok,2,0,0.002,8,-0.13,0.04,8.07,47,0.167,8.17
7.9251,0.00349,0.03491,0.98088,0.00000,0.00000,0.00000,35,2,67,22,26,11,65,21,ok,2,0,0.002,8,-0.13,0.04,8.07,47,0.180,8.17
7.9301,0.00349,0.03491,0.98088,0.00000,0.00000,0.00000,36,1,69,19,28,11,65,22,ok,2,0,0.002,8,-0.13,0.04,8.07,47,0.192,8.17
7.9427,0.00175,0.03316,0.97564,0.00000,0.00000,0.00000,37,1,70,15,29,10,64,23,ok,2,0,0.002,8,-0.18,0.72,10.05,48,0.000,8.17
7.9652,0.00175,0.03316,0.97564,0.00000,0.00000,0.00000,38,1,71,12,30,9,64,25,ok,2,0,0.002,8,-0.18,0.72,10.05,48,0.013,8.17
7.9683,0.00175,0.03316,0.97564,0.00000,0.00000,0.00000,40,1,70,12,32,9,65,26,ok,2,0,0.002,8,-0.18,0.72,10.05,48,0.026,8.17
7.9810,0.00175,0.03316,0.97564,0.00000,0.00000,0.00000,40,1,70,8,33,9,64,28,ok,2,0,0.002,8,-0.18,0.72,10.05,48,0.039,8.17
8.0011,0.00175,0.03316,0.97564,0.00000,0.00000,0.00000,42,2,69,6,35,9,64,30,ok,2,0,0.002,8,-0.18,0.72,10.05,48,0.051,8.17
8.0061,0.00175,0.03316,0.97564,0.00000,0.00000,0.00000,43,2,69,3,36,8,64,31,ok,2,0,0.002,8,-0.18,0.72,10.05,48,0.064,8.17
8.0185,0.00175,0.03316,0.97564,0.00000,0.00000,0.00000,44,2,67,0,37,9,64,32,ok,2,0,0.002,8,-0.18,0.72,10.05,48,0.076,8.17
8.0411,0.00175,0.03316,0.97564,0.00000,0.00000,0.00000,44,2,66,-2,38,8,63,34,ok,2,0,0.002,8,-0.18,0.72,10.05,48,0.089,8.17
8.0443,0.00175,0.03316,0.97564,0.00000,0.00000,0.00000,46,2,64,-3,39,8,63,35,ok,2,0,0.002,8,-0.18,0.72,10.05,48,0.102,8.17
8.0570,0.00175,0.03316,0.97564,0.00000,0.00000,0.00000,46,2,62,-4,41,7,64,35,ok,2,0,0.002,8,-0.18,0.72,10.05,48,0.115,8.17
8.0771,0.00175,0.03316,0.97564,0.00000,0.00000,0.00000,47,3,61,-6,42,7,66,34,ok,2,0,0.002,8,-0.18,0.72,10.05,48,0.127,8.17
8.0820,0.00175,0.03316,0.97564,0.00000,0.00000,0.00000,48,3,60,-8,43,7,67,32,ok,2,0,0.002,8,-0.18,0.72,10.05,48,0.140,8.17
8.0946,0.00175,0.03316,0.97564,0.00000,0.00000,0.00000,49,3,58,-8,44,7,69,27,ok,2,0,0.002,8,-0.18,0.72,10.05,48,0.152,8.17
8.1171,0.00175,0.03316,0.97564,0.00000,0.00000,0.00000,50,3,56,-9,45,7,71,23,ok,2,0,0.002,8,-0.18,0.72,10.05,48,0.165,8.17
8.1203,0.00175,0.03316,0.97564,0.00000,0.00000,0.00000,50,3,54,-9,46,7,72,21,ok,2,0,0.002,8,-0.18,0.72,10.05,48,0.178,8.17
8.1333,0.00175,0.03316,0.97564,0.00000,0.00000,0.00000,50,5,51,-10,47,7,72,20,ok,2,0,0.002,8,-0.18,0.72,10.05,48,0.191,8.17
8.1531,-0.07854,0.05411,1.07163,0.00000,0.00000,0.00000,52,6,49,-10,47,7,72,18,ok,2,0,0.002,8,-0.06,-0.52,11.09,49,0.000,8.17
8.1580,-0.07854,0.05411,1.07163,0.00000,0.00000,0.00000,52,5,46,-10,48,7,73,14,ok,2,0,0.002,8,-0.06,-0.52,11.09,49,0.013,8.17
8.1706,-0.07854,0.05411,1.07163,0.00000,0.00000,0.00000,52,6,44,-9,49,7,72,12,ok,2,0,0.002,8,-0.06,-0.52,11.09,49,0.025,8.17
8.1931,-0.07854,0.05411,1.07163,0.00000,0.00000,0.00000,53,6,41,-10,49,7,72,10,ok,2,0,0.002,8,-0.06,-0.52,11.09,49,0.038,8.17
8.1963,-0.07854,0.05411,1.07163,0.00000,0.00000,0.00000,55,6,39,-10,50,7,71,7,ok,2,0,0.002,8,-0.06,-0.52,11.09,49,0.051,8.17
8.2090,-0.07854,0.05411,1.07163,0.00000,0.00000,0.00000,55,6,36,-9,51,7,71,5,ok,2,0,0.002,8,-0.06,-0.52,11.09,49,0.064,8.17
8.2292,-0.07854,0.05411,1.07163,0.00000,0.00000,0.00000,56,6,33,-8,52,7,70,4,ok,2,0,0.002,8,-0.06,-0.52,11.09,49,0.076,8.17
8.2342,-0.07854,0.05411,1.07163,0.00000,0.00000,0.00000,56,7,30,-7,52,8,68,2,ok,2,0,0.002,8,-0.06,-0.52,11.09,49,0.089,8.17
8.2465,-0.07854,0.05411,1.07163,0.00000,0.00000,0.00000,56,7,27,-6,54,8,66,1,ok,2,0,0.002,8,-0.06,-0.52,11.09,49,0.101,8.17
8.2691,-0.07854,0.05411,1.07163,0.00000,0.00000,0.00000,57,8,24,-4,55,8,65,0,ok,2,0,0.002,8,-0.06,-0.52,11.09,49,0.114,8.17
8.2723,-0.07854,0.05411,1.07163,0.00000,0.00000,0.00000,58,9,20,-2,56,8,64,-2,ok,2,0,0.002,8,-0.06,-0.52,11.09,49,0.127,8.17
8.2850,-0.07854,0.05411,1.07163,0.00000,0.00000,0.00000,58,9,19,-1,58,6,62,-3,ok,2,0,0.002,8,-0.06,-0.52,11.09,49,0.140,8.17
8.3051,-0.07854,0.05411,1.07163,0.00000,0.00000,0.00000,59,9,18,1,58,7,60,-5,ok,2,0,0.002,8,-0.06,-0.52,11.09,49,0.152,8.17
8.3102,-0.07854,0.05411,1.07163,0.00000,0.00000,0.00000,59,10,16,3,59,8,58,-5,ok,2,0,0.002,8,-0.06,-0.52,11.09,49,0.165,8.17
8.3225,-0.07854,0.05411,1.07163,0.00000,0.00000,0.00000,59,11,14,6,59,8,56,-6,ok,2,0,0.002,8,-0.06,-0.52,11.09,49,0.177,8.17
8.3452,-0.07854,0.05411,1.07163,0.00000,0.00000,0.00000,59,12,13,9,60,9,54,-6,ok,2,0,0.002,8,-0.06,-0.52,11.09,49,0.190,8.17
8.3486,-0.02967,0.03491,1.06291,0.00000,0.00000,0.00000,59,12,12,11,60,9,50,-5,ok,2,0,0.002,8,0.71,1.17,9.16,50,0.000,8.17
8.3610,-0.02967,0.03491,1.06291,0.00000,0.00000,0.00000,60,13,14,12,60,10,48,-5,ok,2,0,0.002,8,0.71,1.17,9.16,50,0.013,8.17
8.3812,-0.02967,0.03491,1.06291,0.00000,0.00000,0.00000,59,13,15,11,61,11,46,-5,ok,2,0,0.002,8,0.71,1.17,9.16,50,0.025,8.17
8.3860,-0.02967,0.03491,1.06291,0.00000,0.00000,0.00000,60,14,16,10,61,11,43,-4,ok,2,0,0.002,8,0.71,1.17,9.16,50,0.038,8.17
8.3987,-0.02967,0.03491,1.06291,0.00000,0.00000,0.00000,60,15,18,9,62,12,41,-4,ok,2,0,0.002,8,0.71,1.17,9.16,50,0.050,8.17
8.4211,-0.02967,0.03491,1.06291,0.00000,0.00000,0.00000,60,16,19,8,61,13,37,-3,ok,2,0,0.002,8,0.71,1.17,9.16,50,0.063,8.17
8.4243,-0.02967,0.03491,1.06291,0.00000,0.00000,0.00000,60,17,21,7,62,13,35,-3,ok,2,0,0.002,8,0.71,1.17,9.16,50,0.076,8.17
8.4371,-0.02967,0.03491,1.06291,0.00000,0.00000,0.00000,60,18,21,7,62,14,31,-1,ok,2,0,0.002,8,0.71,1.17,9.16,50,0.089,8.17
8.4571,-0.02967,0.03491,1.06291,0.00000,0.00000,0.00000,61,19,23,6,63,14,30,0,ok,2,0,0.002,8,0.71,1.17,9.16,50,0.101,8.17
8.4621,-0.02967,0.03491,1.06291,0.00000,0.00000,0.00000,61,20,24,5,63,15,28,1,ok,2,0,0.002,8,0.71,1.17,9.16,50,0.114,8.17
8.4747,-0.02967,0.03491,1.06291,0.00000,0.00000,0.00000,62,21,24,4,63,16,25,4,ok,2,0,0.002,8,0.71,1.17,9.16,50,0.126,8.17
8.4971,-0.02967,0.03491,1.06291,0.00000,0.00000,0.00000,62,22,25,4,63,17,24,7,ok,2,0,0.002,8,0.71,1.17,9.16,50,0.139,8.17
8.5003,-0.02967,0.03491,1.06291,0.00000,0.00000,0.00000,62,23,26,3,64,18,23,11,ok,2,0,0.002,8,0.71,1.17,9.16,50,0.152,8.17
8.5130,-0.02967,0.03491,1.06291,0.00000,0.00000,0.00000,61,26,27,3,64,19,23,13,ok,2,0,0.002,8,0.71,1.17,9.16,50,0.165,8.17
8.5332,-0.02967,0.03491,1.06291,0.00000,0.00000,0.00000,61,26,28,2,64,20,25,12,ok,2,0,0.002,8,0.71,1.17,9.16,50,0.177,8.17
8.5383,-0.05411,0.08552,1.11177,0.00000,0.00000,0.00000,62,25,29,2,64,21,25,12,ok,2,0,0.002,8,1.08,-1.56,9.01,51,0.000,8.17
8.5505,-0.05411,0.08552,1.11177,0.00000,0.00000,0.00000,64,21,30,2,64,22,26,10,ok,2,0,0.002,8,1.08,-1.56,9.01,51,0.013,8.17
8.5731,-0.05411,0.08552,1.11177,0.00000,0.00000,0.00000,66,18,31,1,64,23,27,9,ok,2,0,0.002,8,1.08,-1.56,9.01,51,0.025,8.17
8.5763,-0.05411,0.08552,1.11177,0.00000,0.00000,0.00000,66,13,32,2,64,25,28,10,ok,2,0,0.002,8,1.08,-1.56,9.01,51,0.038,8.17
8.5890,-0.05411,0.08552,1.11177,0.00000,0.00000,0.00000,67,11,34,2,65,25,29,9,ok,2,0,0.002,8,1.08,-1.56,9.01,51,0.051,8.17
8.6091,-0.05411,0.08552,1.11177,0.00000,0.00000,0.00000,66,11,35,2,64,28,30,9,ok,2,0,0.002,8,1.08,-1.56,9.01,51,0.064,8.17
8.6140,-0.05411,0.08552,1.11177,0.00000,0.00000,0.00000,66,7,36,2,64,29,32,9,ok,2,0,0.002,8,1.08,-1.56,9.01,51,0.076,8.17
8.6265,-0.05411,0.08552,1.11177,0.00000,0.00000,0.00000,65,4,38,3,64,30,33,9,ok,2,0,0.002,8,1.08,-1.56,9.01,51,0.089,8.17
8.6491,-0.05411,0.08552,1.11177,0.00000,0.00000,0.00000,65,2,39,3,64,32,35,8,ok,2,0,0.002,8,1.08,-1.56,9.01,51,0.101,8.17
8.6523,-0.05411,0.08552,1.11177,0.00000,0.00000,0.00000,64,-1,41,3,64,34,36,8,ok,2,0,0.002,9,1.08,-1.56,9.01,51,0.114,8.17
8.6650,-0.05411,0.08552,1.11177,0.00000,0.00000,0.00000,63,-3,42,2,64,35,37,8,ok,2,0,0.002,9,1.08,-1.56,9.01,51,0.127,8.17
8.6851,-0.05411,0.08552,1.11177,0.00000,0.00000,0.00000,62,-4,44,3,64,35,38,8,ok,2,0,0.002,9,1.08,-1.56,9.01,51,0.140,8.17
8.6901,-0.05411,0.08552,1.11177,0.00000,0.00000,0.00000,60,-5,44,3,66,35,39,8,ok,2,0,0.002,9,1.08,-1.56,9.01,51,0.152,8.17
8.7026,-0.05411,0.08552,1.11177,0.00000,0.00000,0.00000,60,-6,45,3,68,33,41,7,ok,2,0,0.002,9,1.08,-1.56,9.01,51,0.165,8.17
8.7252,-0.05411,0.08552,1.11177,0.00000,0.00000,0.00000,59,-8,46,3,70,29,42,7,ok,2,0,0.002,9,1.08,-1.56,9.01,51,0.177,8.17
8.7284,-0.05411,0.08552,1.11177,0.00000,0.00000,0.00000,56,-9,47,4,71,24,43,7,ok,2,0,0.002,9,1.08,-1.56,9.01,51,0.190,8.17
8.7415,-0.05411,0.08552,1.11177,0.00000,0.00000,0.00000,55,-10,49,4,73,21,44,7,ok,2,0,0.002,9,1.08,-1.56,9.01,51,0.203,8.17
8.7611,0.06458,0.06981,1.11352,0.00000,0.00000,0.00000,53,-10,49,3,74,21,45,7,ok,2,0,0.002,9,0.01,1.33,10.46,52,0.000,8.17
8.7660,0.06458,0.06981,1.11352,0.00000,0.00000,0.00000,51,-11,49,5,74,19,46,7,ok,2,0,0.002,9,0.01,1.33,10.46,52,0.012,8.17
8.7784,0.06458,0.06981,1.11352,0.00000,0.00000,0.00000,49,-11,50,6,74,15,47,8,ok,2,0,0.002,9,0.01,1.33,10.46,52,0.025,8.17
8.8011,0.06458,0.06981,1.11352,0.00000,0.00000,0.00000,47,-11,51,5,74,12,48,7,ok,2,0,0.002,9,0.01,1.33,10.46,52,0.038,8.17
8.8043,0.06458,0.06981,1.11352,0.00000,0.00000,0.00000,45,-10,53,6,73,10,49,8,ok,2,0,0.002,9,0.01,1.33,10.46,52,0.051,8.17
8.8170,0.06458,0.06981,1.11352,0.00000,0.00000,0.00000,43,-10,53,6,72,7,49,8,ok,2,0,0.002,9,0.01,1.33,10.46,52,0.063,8.17
8.8371,0.06458,0.06981,1.11352,0.00000,0.00000,0.00000,40,-10,55,6,72,5,50,7,ok,2,0,0.002,9,0.01,1.33,10.46,52,0.076,8.17
8.8421,0.06458,0.06981,1.11352,0.00000,0.00000,0.00000,39,-9,55,6,71,4,51,8,ok,2,0,0.002,9,0.01,1.33,10.46,52,0.088,8.17
8.8545,0.06458,0.06981,1.11352,0.00000,0.00000,0.00000,36,-8,57,6,69,1,52,7,ok,2,0,0.002,9,0.01,1.33,10.46,52,0.101,8.17
8.8772,0.06458,0.06981,1.11352,0.00000,0.00000,0.00000,34,-7,57,7,66,2,52,8,ok,2,0,0.002,9,0.01,1.33,10.46,52,0.113,8.17
8.8803,0.06458,0.06981,1.11352,0.00000,0.00000,0.00000,31,-6,57,7,65,-1,53,8,ok,2,0,0.002,9,0.01,1.33,10.46,52,0.127,8.17
8.8930,0.06458,0.06981,1.11352,0.00000,0.00000,0.00000,28,-4,58,8,64,-2,54,8,ok,2,0,0.002,9,0.01,1.33,10.46,52,0.139,8.17
8.9131,0.06458,0.06981,1.11352,0.00000,0.00000,0.00000,25,-2,59,9,61,-4,55,8,ok,2,0,0.002,9,0.01,1.33,10.46,52,0.152,8.17
8.9182,0.06458,0.06981,1.11352,0.00000,0.00000,0.00000,25,-2,60,11,60,-5,55,8,ok,2,0,0.002,9,0.01,1.33,10.46,52,0.164,8.17
8.9305,0.06458,0.06981,1.11352,0.00000,0.00000,0.00000,24,-1,60,10,59,-5,57,6,ok,2,0,0.002,9,0.01,1.33,10.46,52,0.177,8.17
8.9531,0.06458,0.06981,1.11352,0.00000,0.00000,0.00000,23,1,60,11,56,-6,57,7,ok,2,0,0.002,9,0.01,1.33,10.46,52,0.189,8.17
8.9566,0.10996,0.03142,1.14145,0.00000,0.00000,0.00000,21,5,61,11,54,-7,58,7,ok,2,0,0.002,9,1.24,0.41,10.98,53,0.000,8.17
8.9691,0.10996,0.03142,1.14145,0.00000,0.00000,0.00000,20,8,61,12,51,-6,59,8,ok,2,0,0.002,9,1.24,0.41,10.98,53,0.013,8.17
8.9891,0.10996,0.03142,1.14145,0.00000,0.00000,0.00000,19,10,61,12,48,-5,59,8,ok,2,0,0.002,9,1.24,0.41,10.98,53,0.025,8.17
8.9942,0.10996,0.03142,1.14145,0.00000,0.00000,0.00000,20,11,61,12,46,-5,60,9,ok,2,0,0.002,9,1.24,0.41,10.98,53,0.038,8.17
9.0065,0.10996,0.03142,1.14145,0.00000,0.00000,0.00000,21,11,61,13,43,-4,60,10,ok,2,0,0.002,9,1.24,0.41,10.98,53,0.050,8.17
9.0291,0.10996,0.03142,1.14145,0.00000,0.00000,0.00000,22,10,62,13,41,-4,61,10,ok,2,0,0.002,9,1.24,0.41,10.98,53,0.063,8.17
9.0323,0.10996,0.03142,1.14145,0.00000,0.00000,0.00000,24,9,62,14,37,-3,61,11,ok,2,0,0.002,9,1.24,0.41,10.98,53,0.076,8.17
9.0450,0.10996,0.03142,1.14145,0.00000,0.00000,0.00000,24,9,62,14,35,-3,61,12,ok,2,0,0.002,9,1.24,0.41,10.98,53,0.089,8.17
9.0651,0.10996,0.03142,1.14145,0.00000,0.00000,0.00000,26,8,63,15,31,-1,61,12,ok,2,0,0.002,9,1.24,0.41,10.98,53,0.101,8.17
9.0700,0.10996,0.03142,1.14145,0.00000,0.00000,0.00000,26,7,63,16,29,0,62,13,ok,2,0,0.002,9,1.24,0.41,10.98,53,0.114,8.17
9.0825,0.10996,0.03142,1.14145,0.00000,0.00000,0.00000,28,6,64,18,28,2,62,14,ok,2,0,0.002,9,1.24,0.41,10.98,53,0.126,8.17
9.1051,0.10996,0.03142,1.14145,0.00000,0.00000,0.00000,28,5,64,19,25,5,63,14,ok,2,0,0.002,9,1.24,0.41,10.98,53,0.139,8.17
9.1085,0.10996,0.03142,1.14145,0.00000,0.00000,0.00000,29,4,64,20,24,8,63,16,ok,2,0,0.002,9,1.24,0.41,10.98,53,0.152,8.17
9.1210,0.10996,0.03142,1.14145,0.00000,0.00000,0.00000,30,4,64,21,23,12,63,17,ok,2,0,0.002,9,1.24,0.41,10.98,53,0.165,8.17
9.1411,0.10996,0.03142,1.14145,0.00000,0.00000,0.00000,31,3,64,23,22,14,64,17,ok,2,0,0.002,9,1.24,0.41,10.98,53,0.177,8.17
9.1460,0.10996,0.03142,1.14145,0.00000,0.00000,0.00000,32,3,63,25,24,14,64,18,ok,2,0,0.002,9,1.24,0.41,10.98,53,0.190,8.17
9.1587,0.00349,0.10472,1.08734,0.00000,0.00000,0.00000,32,2,63,27,24,14,64,19,ok,2,0,0.002,9,1.02,0.39,9.92,54,0.000,8.17
9.1811,0.00349,0.10472,1.08734,0.00000,0.00000,0.00000,33,2,64,26,25,11,64,20,ok,2,0,0.002,9,1.02,0.39,9.92,54,0.013,8.17
9.1843,0.00349,0.10472,1.08734,0.00000,0.00000,0.00000,35,1,67,23,26,11,65,21,ok,2,0,0.002,9,1.02,0.39,9.92,54,0.026,8.17
9.1972,0.00349,0.10472,1.08734,0.00000,0.00000,0.00000,36,0,69,19,27,11,65,22,ok,2,0,0.002,9,1.02,0.39,9.92,54,0.039,8.17
9.2171,0.00349,0.10472,1.08734,0.00000,0.00000,0.00000,37,0,70,15,28,10,65,23,ok,2,0,0.002,9,1.02,0.39,9.92,54,0.051,8.17
9.2220,0.00349,0.10472,1.08734,0.00000,0.00000,0.00000,37,0,70,13,30,9,65,25,ok,2,0,0.002,9,1.02,0.39,9.92,54,0.064,8.17
9.2344,0.00349,0.10472,1.08734,0.00000,0.00000,0.00000,39,0,70,13,32,9,65,26,ok,2,0,0.002,9,1.02,0.39,9.92,54,0.076,8.17
9.2571,0.00349,0.10472,1.08734,0.00000,0.00000,0.00000,40,0,70,9,33,9,64,28,ok,2,0,0.002,9,1.02,0.39,9.92,54,0.089,8.17
9.2603,0.00349,0.10472,1.08734,0.00000,0.00000,0.00000,41,1,69,7,35,9,64,30,ok,2,0,0.002,9,1.02,0.39,9.92,54,0.102,8.17
9.2730,0.00349,0.10472,1.08734,0.00000,0.00000,0.00000,42,1,68,4,36,9,64,31,ok,2,0,0.002,9,1.02,0.39,9.92,54,0.115,8.17
9.2931,0.00349,0.10472,1.08734,0.00000,0.00000,0.00000,43,1,67,1,37,9,64,33,ok,2,0,0.002,9,1.02,0.39,9.92,54,0.127,8.17
9.2981,0.00349,0.10472,1.08734,0.00000,0.00000,0.00000,44,1,66,-1,38,8,64,34,ok,2,0,0.002,9,1.02,0.39,9.92,54,0.140,8.17
9.3105,0.00349,0.10472,1.08734,0.00000,0.00000,0.00000,45,2,64,-3,39,8,64,35,ok,2,0,0.002,9,1.02,0.39,9.92,54,0.152,8.17
9.3331,0.00349,0.10472,1.08734,0.00000,0.00000,0.00000,45,2,62,-4,41,7,65,35,ok,2,0,0.002,9,1.02,0.39,9.92,54,0.165,8.17
9.3363,0.00349,0.10472,1.08734,0.00000,0.00000,0.00000,47,2,61,-6,42,7,66,34,ok,2,0,0.002,9,1.02,0.39,9.92,54,0.178,8.17
9.3491,0.00349,0.10472,1.08734,0.00000,0.00000,0.00000,48,2,60,-8,43,7,68,32,ok,2,0,0.002,9,1.02,0.39,9.92,54,0.191,8.17
9.3691,0.00349,0.10472,1.08734,0.00000,0.00000,0.00000,48,3,57,-8,44,7,70,27,ok,2,0,0.002,9,1.02,0.39,9.92,54,0.203,8.17
9.3743,-0.13090,0.04538,1.16064,0.00000,0.00000,0.00000,49,3,55,-9,45,7,71,23,ok,2,0,0.002,9,0.51,-1.79,11.92,55,0.000,8.17
9.3864,-0.13090,0.04538,1.16064,0.00000,0.00000,0.00000,50,2,53,-9,46,7,73,20,ok,2,0,0.002,9,0.51,-1.79,11.92,55,0.013,8.17
9.4092,-0.13090,0.04538,1.16064,0.00000,0.00000,0.00000,50,4,51,-10,47,7,73,20,ok,2,0,0.002,9,0.51,-1.79,11.92,55,0.025,8.17
9.4123,-0.13090,0.04538,1.16064,0.00000,0.00000,0.00000,51,5,48,-10,47,7,74,18,ok,2,0,0.002,9,0.51,-1.79,11.92,55,0.038,8.17
9.4251,-0.13090,0.04538,1.16064,0.00000,0.00000,0.00000,52,4,46,-10,48,7,74,14,ok,2,0,0.002,9,0.51,-1.79,11.92,55,0.051,8.17
9.4451,-0.13090,0.04538,1.16064,0.00000,0.00000,0.00000,52,5,44,-9,49,7,73,12,ok,2,0,0.002,9,0.51,-1.79,11.92,55,0.064,8.17
9.4501,-0.13090,0.04538,1.16064,0.00000,0.00000,0.00000,52,6,41,-10,50,7,72,10,ok,2,0,0.002,9,0.51,-1.79,11.92,55,0.076,8.17
9.4625,-0.13090,0.04538,1.16064,0.00000,0.00000,0.00000,55,6,39,-10,51,8,71,7,ok,2,0,0.002,9,0.51,-1.79,11.92,55,0.089,8.17
9.4851,-0.13090,0.04538,1.16064,0.00000,0.00000,0.00000,55,6,36,-9,52,7,71,5,ok,2,0,0.002,9,0.51,-1.79,11.92,55,0.101,8.17
9.4883,-0.13090,0.04538,1.16064,0.00000,0.00000,0.00000,56,6,33,-8,52,7,70,4,ok,2,0,0.002,9,0.51,-1.79,11.92,55,0.114,8.17
9.5011,-0.13090,0.04538,1.16064,0.00000,0.00000,0.00000,56,7,30,-7,53,8,68,2,ok,2,0,0.003,9,0.51,-1.79,11.92,55,0.127,8.17
9.5211,-0.13090,0.04538,1.16064,0.00000,0.00000,0.00000,56,8,27,-6,54,8,66,1,ok,2,0,0.003,9,0.51,-1.79,11.92,55,0.140,8.17
9.5260,-0.13090,0.04538,1.16064,0.00000,0.00000,0.00000,57,9,24,-4,54,8,65,0,ok,2,0,0.003,9,0.51,-1.79,11.92,55,0.152,8.17
9.5385,-0.13090,0.04538,1.16064,0.00000,0.00000,0.00000,58,10,20,-2,55,8,64,-2,ok,2,0,0.003,9,0.51,-1.79,11.92,55,0.165,8.17
9.5612,-0.13090,0.04538,1.16064,0.00000,0.00000,0.00000,58,10,19,-1,57,6,62,-3,ok,2,0,0.003,9,0.51,-1.79,11.92,55,0.177,8.17
9.5646,-0.02094,0.02967,1.15715,0.00000,0.00000,0.00000,59,10,18,1,58,7,60,-5,ok,2,0,0.003,9,0.33,0.01,8.98,56,0.000,8.17
9.5770,-0.02094,0.02967,1.15715,0.00000,0.00000,0.00000,59,11,16,3,59,9,58,-5,ok,2,0,0.003,9,0.33,0.01,8.98,56,0.013,8.17
9.5971,-0.02094,0.02967,1.15715,0.00000,0.00000,0.00000,59,11,14,5,59,9,55,-6,ok,2,0,0.003,9,0.33,0.01,8.98,56,0.025,8.17
9.6021,-0.02094,0.02967,1.15715,0.00000,0.00000,0.00000,59,12,13,9,60,9,53,-6,ok,2,0,0.003,9,0.33,0.01,8.98,56,0.038,8.17
9.6145,-0.02094,0.02967,1.15715,0.00000,0.00000,0.00000,59,13,12,11,60,10,50,-5,ok,2,0,0.003,9,0.33,0.01,8.98,56,0.050,8.17
9.6371,-0.02094,0.02967,1.15715,0.00000,0.00000,0.00000,60,14,14,11,60,10,47,-5,ok,2,0,0.003,9,0.33,0.01,8.98,56,0.063,8.17
9.6403,-0.02094,0.02967,1.15715,0.00000,0.00000,0.00000,59,14,15,11,61,11,46,-5,ok,2,0,0.003,9,0.33,0.01,8.98,56,0.076,8.17
9.6533,-0.02094,0.02967,1.15715,0.00000,0.00000,0.00000,60,15,16,9,61,11,42,-4,ok,2,0,0.003,9,0.33,0.01,8.98,56,0.089,8.17
9.6731,-0.02094,0.02967,1.15715,0.00000,0.00000,0.00000,60,16,19,8,61,12,41,-5,ok,2,0,0.003,9,0.33,0.01,8.98,56,0.101,8.17
9.6780,-0.02094,0.02967,1.15715,0.00000,0.00000,0.00000,60,16,19,8,61,13,37,-4,ok,2,0,0.003,10,0.33,0.01,8.98,56,0.114,8.17
9.6904,-0.02094,0.02967,1.15715,0.00000,0.00000,0.00000,60,17,21,7,62,13,35,-3,ok,2,0,0.003,10,0.33,0.01,8.98,56,0.126,8.17
9.7132,-0.02094,0.02967,1.15715,0.00000,0.00000,0.00000,60,18,21,7,62,14,31,-2,ok,2,0,0.003,10,0.33,0.01,8.98,56,0.139,8.17
9.7163,-0.02094,0.02967,1.15715,0.00000,0.00000,0.00000,61,19,23,6,63,14,30,0,ok,2,0,0.003,10,0.33,0.01,8.98,56,0.152,8.17
9.7293,-0.02094,0.02967,1.15715,0.00000,0.00000,0.00000,61,20,24,5,63,16,28,1,ok,2,0,0.003,10,0.33,0.01,8.98,56,0.165,8.17
9.7492,-0.02094,0.02967,1.15715,0.00000,0.00000,0.00000,62,21,24,5,63,16,25,4,ok,2,0,0.003,10,0.33,0.01,8.98,56,0.177,8.17
9.7540,-0.02094,0.02967,1.15715,0.00000,0.00000,0.00000,62,22,25,4,63,17,24,7,ok,2,0,0.003,10,0.33,0.01,8.98,56,0.190,8.17
9.7666,-0.02094,0.02967,1.15715,0.00000,0.00000,0.00000,62,23,26,3,64,18,23,11,ok,2,0,0.003,10,0.33,0.01,8.98,56,0.202,8.17
9.7892,-0.05585,0.09076,1.20602,0.00000,0.00000,0.00000,61,26,27,3,64,19,23,13,ok,2,0,0.003,10,1.89,-1.89,12.22,57,0.000,8.17
9.7925,-0.05585,0.09076,1.20602,0.00000,0.00000,0.00000,61,26,28,2,64,20,25,12,ok,2,0,0.003,10,1.89,-1.89,12.22,57,0.013,8.17
9.8050,-0.05585,0.09076,1.20602,0.00000,0.00000,0.00000,62,25,29,2,64,21,25,11,ok,2,0,0.003,10,1.89,-1.89,12.22,57,0.026,8.17
9.8251,-0.05585,0.09076,1.20602,0.00000,0.00000,0.00000,64,21,30,2,64,22,26,10,ok,2,0,0.003,10,1.89,-1.89,12.22,57,0.039,8.17
9.8300,-0.05585,0.09076,1.20602,0.00000,0.00000,0.00000,66,18,31,2,64,23,27,9,ok,2,0,0.003,10,1.89,-1.89,12.22,57,0.051,8.17
9.8425,-0.05585,0.09076,1.20602,0.00000,0.00000,0.00000,66,13,32,2,64,25,28,10,ok,2,0,0.003,10,1.89,-1.89,12.22,57,0.064,8.17
9.8651,-0.05585,0.09076,1.20602,0.00000,0.00000,0.00000,66,11,33,2,65,25,29,9,ok,2,0,0.003,10,1.89,-1.89,12.22,57,0.076,8.17
9.8683,-0.05585,0.09076,1.20602,0.00000,0.00000,0.00000,66,10,35,2,64,28,30,9,ok,2,0,0.003,10,1.89,-1.89,12.22,57,0.089,8.17
9.8813,-0.05585,0.09076,1.20602,0.00000,0.00000,0.00000,66,7,36,2,64,29,32,9,ok,2,0,0.003,10,1.89,-1.89,12.22,57,0.102,8.17
9.9011,-0.05585,0.09076,1.20602,0.00000,0.00000,0.00000,65,4,38,3,64,30,33,9,ok,2,0,0.003,10,1.89,-1.89,12.22,57,0.115,8.17
9.9060,-0.05585,0.09076,1.20602,0.00000,0.00000,0.00000,64,2,39,3,64,32,35,8,ok,2,0,0.003,10,1.89,-1.89,12.22,57,0.127,8.17
9.9187,-0.05585,0.09076,1.20602,0.00000,0.00000,0.00000,64,-1,41,3,64,34,36,8,ok,2,0,0.003,10,1.89,-1.89,12.22,57,0.140,8.17
9.9412,-0.05585,0.09076,1.20602,0.00000,0.00000,0.00000,63,-3,42,2,64,35,37,8,ok,2,0,0.003,10,1.89,-1.89,12.22,57,0.152,8.17
9.9443,-0.05585,0.09076,1.20602,0.00000,0.00000,0.00000,62,-4,44,3,64,35,38,8,ok,2,0,0.003,10,1.89,-1.89,12.22,57,0.165,8.17
9.9570,-0.05585,0.09076,1.20602,0.00000,0.00000,0.00000,60,-5,44,3,66,35,39,8,ok,2,0,0.003,10,1.89,-1.89,12.22,57,0.178,8.17
9.9771,-0.05585,0.09076,1.20602,0.00000,0.00000,0.00000,60,-6,45,3,68,33,41,7,ok,2,0,0.003,10,1.89,-1.89,12.22,57,0.191,8.17
9.9822,0.01396,0.06981,1.23569,0.00000,0.00000,0.00000,59,-8,46,3,70,28,42,7,ok,2,0,0.003,10,1.22,1.40,10.59,58,0.000,8.17
9.9944,0.01396,0.06981,1.23569,0.00000,0.00000,0.00000,56,-9,48,4,71,24,43,7,ok,2,0,0.003,10,1.22,1.40,10.59,58,0.013,8.17
10.0171,0.01396,0.06981,1.23569,0.00000,0.00000,0.00000,55,-10,49,3,73,22,44,7,ok,2,0,0.003,10,1.22,1.40,10.59,58,0.025,8.17
10.0203,0.01396,0.06981,1.23569,0.00000,0.00000,0.00000,53,-10,49,3,74,21,45,7,ok,2,0,0.003,10,1.22,1.40,10.59,58,0.038,8.17
10.0410,0.01396,0.06981,1.23569,0.00000,0.00000,0.00000,51,-11,49,5,74,19,46,7,ok,2,0,0.003,10,1.22,1.40,10.59,58,0.051,8.17
10.0531,0.01396,0.06981,1.23569,0.00000,0.00000,0.00000,49,-11,51,6,74,15,47,8,ok,2,0,0.003,10,1.22,1.40,10.59,58,0.064,8.17
10.0582,0.01396,0.06981,1.23569,0.00000,0.00000,0.00000,47,-11,51,5,73,12,48,8,ok,2,0,0.003,10,1.22,1.40,10.59,58,0.076,8.17
10.0705,0.01396,0.06981,1.23569,0.00000,0.00000,0.00000,45,-10,52,6,73,10,49,8,ok,2,0,0.003,10,1.22,1.40,10.59,58,0.088,8.17
10.0931,0.01396,0.06981,1.23569,0.00000,0.00000,0.00000,43,-10,53,6,72,7,50,8,ok,2,0,0.003,10,1.22,1.40,10.59,58,0.101,8.17
10.0963,0.01396,0.06981,1.23569,0.00000,0.00000,0.00000,40,-11,55,6,72,5,50,7,ok,2,0,0.003,10,1.22,1.40,10.59,58,0.114,8.17
10.1090,0.01396,0.06981,1.23569,0.00000,0.00000,0.00000,39,-10,55,7,71,4,51,8,ok,2,0,0.003,10,1.22,1.40,10.59,58,0.127,8.17
10.1291,0.01396,0.06981,1.23569,0.00000,0.00000,0.00000,36,-9,56,7,69,1,52,7,ok,2,0,0.003,10,1.22,1.40,10.59,58,0.139,8.17
10.1340,0.01396,0.06981,1.23569,0.00000,0.00000,0.00000,34,-8,57,8,66,2,52,8,ok,2,0,0.003,10,1.22,1.40,10.59,58,0.152,8.17
10.1465,0.01396,0.06981,1.23569,0.00000,0.00000,0.00000,31,-6,57,8,65,-1,53,8,ok,2,0,0.003,10,1.22,1.40,10.59,58,0.165,8.17
10.1692,0.01396,0.06981,1.23569,0.00000,0.00000,0.00000,28,-4,58,8,64,-2,54,8,ok,2,0,0.003,10,1.22,1.40,10.59,58,0.177,8.17
10.1726,0.12566,-0.03665,1.20777,0.00000,0.00000,0.00000,26,-2,59,9,61,-4,55,8,ok,2,0,0.003,10,-0.18,1.28,9.89,59,0.000,8.17
10.1850,0.12566,-0.03665,1.20777,0.00000,0.00000,0.00000,25,-2,60,10,61,-4,55,8,ok,2,0,0.003,10,-0.18,1.28,9.89,59,0.013,8.17
10.2051,0.12566,-0.03665,1.20777,0.00000,0.00000,0.00000,24,-1,60,10,59,-5,57,6,ok,2,0,0.003,10,-0.18,1.28,9.89,59,0.025,8.17
10.2100,0.12566,-0.03665,1.20777,0.00000,0.00000,0.00000,23,2,61,10,56,-6,57,7,ok,2,0,0.003,10,-0.18,1.28,9.89,59,0.038,8.17
10.2225,0.12566,-0.03665,1.20777,0.00000,0.00000,0.00000,21,5,61,10,55,-6,58,7,ok,2,0,0.003,10,-0.18,1.28,9.89,59,0.050,8.17
10.2452,0.12566,-0.03665,1.20777,0.00000,0.00000,0.00000,20,9,61,11,51,-6,58,8,ok,2,0,0.003,10,-0.18,1.28,9.89,59,0.063,8.17
10.2485,0.12566,-0.03665,1.20777,0.00000,0.00000,0.00000,20,12,62,11,48,-5,59,8,ok,2,0,0.003,10,-0.18,1.28,9.89,59,0.076,8.17
10.2610,0.12566,-0.03665,1.20777,0.00000,0.00000,0.00000,21,12,62,11,46,-5,60,9,ok,2,0,0.003,10,-0.18,1.28,9.89,59,0.089,8.17
10.2811,0.12566,-0.03665,1.20777,0.00000,0.00000,0.00000,22,12,62,12,43,-5,59,9,ok,2,0,0.003,10,-0.18,1.28,9.89,59,0.101,8.17
10.2861,0.12566,-0.03665,1.20777,0.00000,0.00000,0.00000,23,11,63,13,40,-4,60,10,ok,2,0,0.003,10,-0.18,1.28,9.89,59,0.114,8.17
10.2985,0.12566,-0.03665,1.20777,0.00000,0.00000,0.00000,24,10,62,13,37,-3,60,11,ok,2,0,0.003,10,-0.18,1.28,9.89,59,0.126,8.17
10.3211,0.12566,-0.03665,1.20777,0.00000,0.00000,0.00000,25,9,63,14,34,-3,61,12,ok,2,0,0.003,10,-0.18,1.28,9.89,59,0.139,8.17
10.3243,0.12566,-0.03665,1.20777,0.00000,0.00000,0.00000,27,8,63,15,31,-1,61,12,ok,2,0,0.003,10,-0.18,1.28,9.89,59,0.152,8.17
10.3371,0.12566,-0.03665,1.20777,0.00000,0.00000,0.00000,27,7,63,16,29,0,62,13,ok,2,0,0.003,10,-0.18,1.28,9.89,59,0.165,8.17
10.3571,0.12566,-0.03665,1.20777,0.00000,0.00000,0.00000,28,6,64,18,27,2,62,14,ok,2,0,0.003,10,-0.18,1.28,9.89,59,0.177,8.17
10.3622,0.12566,-0.03665,1.20777,0.00000,0.00000,0.00000,29,5,64,19,25,5,63,14,ok,2,0,0.003,10,-0.18,1.28,9.89,59,0.190,8.17
10.3745,0.12566,-0.03665,1.20777,0.00000,0.00000,0.00000,30,5,65,20,24,8,63,16,ok,2,0,0.003,10,-0.18,1.28,9.89,59,0.202,8.17
10.3972,0.02618,0.08203,1.23744,0.00000,0.00000,0.00000,31,4,65,21,23,12,63,17,ok,2,0,0.003,10,2.04,0.93,10.61,60,0.000,8.17
10.4003,0.02618,0.08203,1.23744,0.00000,0.00000,0.00000,32,4,65,23,21,14,63,17,ok,2,0,0.003,10,2.04,0.93,10.61,60,0.013,8.17
10.4130,0.02618,0.08203,1.23744,0.00000,0.00000,0.00000,32,3,64,26,23,13,64,18,ok,2,0,0.003,10,2.04,0.93,10.61,60,0.026,8.17
10.4331,0.02618,0.08203,1.23744,0.00000,0.00000,0.00000,33,2,63,28,23,13,64,19,ok,2,0,0.003,10,2.04,0.93,10.61,60,0.038,8.17
10.4381,0.02618,0.08203,1.23744,0.00000,0.00000,0.00000,34,2,65,26,24,11,64,20,ok,2,0,0.003,10,2.04,0.93,10.61,60,0.051,8.17
10.4506,0.02618,0.08203,1.23744,0.00000,0.00000,0.00000,35,1,67,23,26,10,65,21,ok,2,0,0.003,10,2.04,0.93,10.61,60,0.063,8.17
10.4732,0.02618,0.08203,1.23744,0.00000,0.00000,0.00000,36,0,69,20,27,11,65,22,ok,2,0,0.003,10,2.04,0.93,10.61,60,0.076,8.17
10.4763,0.02618,0.08203,1.23744,0.00000,0.00000,0.00000,36,0,70,16,29,10,64,23,ok,2,0,0.003,10,2.04,0.93,10.61,60,0.089,8.17
10.4890,0.02618,0.08203,1.23744,0.00000,0.00000,0.00000,37,0,70,14,30,9,64,25,ok,2,0,0.003,10,2.04,0.93,10.61,60,0.102,8.17
10.5091,0.02618,0.08203,1.23744,0.00000,0.00000,0.00000,39,0,70,13,32,9,65,26,ok,2,0,0.003,10,2.04,0.93,10.61,60,0.114,8.17
10.5140,0.02618,0.08203,1.23744,0.00000,0.00000,0.00000,40,0,70,9,33,9,64,28,ok,2,0,0.003,10,2.04,0.93,10.61,60,0.127,8.17
10.5267,0.02618,0.08203,1.23744,0.00000,0.00000,0.00000,41,2,69,6,35,9,64,30,ok,2,0,0.003,10,2.04,0.93,10.61,60,0.139,8.17
10.5491,0.02618,0.08203,1.23744,0.00000,0.00000,0.00000,42,2,68,3,36,9,64,31,ok,2,0,0.003,10,2.04,0.93,10.61,60,0.152,8.17
10.5523,0.02618,0.08203,1.23744,0.00000,0.00000,0.00000,44,2,67,0,37,9,64,32,ok,2,0,0.003,10,2.04,0.93,10.61,60,0.165,8.17
10.5650,0.02618,0.08203,1.23744,0.00000,0.00000,0.00000,44,2,66,-2,38,8,64,34,ok,2,0,0.003,10,2.04,0.93,10.61,60,0.178,8.17
10.5852,0.02618,0.08203,1.23744,0.00000,0.00000,0.00000,45,2,64,-3,40,8,63,35,ok,2,0,0.003,10,2.04,0.93,10.61,60,0.190,8.17
10.5902,-0.11519,0.03665,1.25489,0.00000,0.00000,0.00000,45,2,62,-4,41,7,65,35,ok,2,0,0.003,10,0.33,-1.67,7.83,61,0.000,8.17
10.6024,-0.11519,0.03665,1.25489,0.00000,0.00000,0.00000,47,2,61,-5,42,7,66,34,ok,2,0,0.003,10,0.33,-1.67,7.83,61,0.013,8.17
10.6251,-0.11519,0.03665,1.25489,0.00000,0.00000,0.00000,48,2,60,-8,43,7,68,32,ok,2,0,0.003,10,0.33,-1.67,7.83,61,0.025,8.17
10.6283,-0.11519,0.03665,1.25489,0.00000,0.00000,0.00000,49,3,58,-8,44,7,70,27,ok,2,0,0.003,10,0.33,-1.67,7.83,61,0.038,8.17
10.6410,-0.11519,0.03665,1.25489,0.00000,0.00000,0.00000,50,2,55,-9,44,7,71,23,ok,2,0,0.003,10,0.33,-1.67,7.83,61,0.051,8.17
10.6611,-0.11519,0.03665,1.25489,0.00000,0.00000,0.00000,50,2,53,-9,45,7,73,20,ok,2,0,0.003,10,0.33,-1.67,7.83,61,0.064,8.17
10.6660,-0.11519,0.03665,1.25489,0.00000,0.00000,0.00000,50,4,51,-10,47,7,73,20,ok,2,0,0.003,10,0.33,-1.67,7.83,61,0.076,8.17
10.6785,-0.11519,0.03665,1.25489,0.00000,0.00000,0.00000,52,4,49,-9,47,7,73,18,ok,2,0,0.003,10,0.33,-1.67,7.83,61,0.089,8.17
10.7011,-0.11519,0.03665,1.25489,0.00000,0.00000,0.00000,52,4,46,-9,48,8,73,15,ok,2,0,0.003,11,0.33,-1.67,7.83,61,0.101,8.17
10.7044,-0.11519,0.03665,1.25489,0.00000,0.00000,0.00000,52,5,44,-9,49,8,72,12,ok,2,0,0.003,11,0.33,-1.67,7.83,61,0.114,8.17
10.7171,-0.11519,0.03665,1.25489,0.00000,0.00000,0.00000,53,6,41,-10,50,7,72,10,ok,2,0,0.003,11,0.33,-1.67,7.83,61,0.127,8.17
10.7372,-0.11519,0.03665,1.25489,0.00000,0.00000,0.00000,55,7,39,-10,50,8,71,7,ok,2,0,0.003,11,0.33,-1.67,7.83,61,0.140,8.17
10.7421,-0.11519,0.03665,1.25489,0.00000,0.00000,0.00000,55,7,36,-9,51,7,71,5,ok,2,0,0.003,11,0.33,-1.67,7.83,61,0.152,8.17
10.7545,-0.11519,0.03665,1.25489,0.00000,0.00000,0.00000,56,7,33,-9,51,7,70,4,ok,2,0,0.003,11,0.33,-1.67,7.83,61,0.165,8.17
10.7771,-0.11519,0.03665,1.25489,0.00000,0.00000,0.00000,56,8,30,-7,52,8,68,2,ok,2,0,0.003,11,0.33,-1.67,7.83,61,0.177,8.17
10.7805,-0.11519,0.03665,1.25489,0.00000,0.00000,0.00000,56,8,27,-6,53,8,66,1,ok,2,0,0.003,11,0.33,-1.67,7.83,61,0.190,8.17
10.7933,-0.07679,-0.00000,1.29503,0.00000,0.00000,0.00000,57,9,24,-4,54,8,65,0,ok,2,0,0.003,11,0.35,-0.81,9.88,62,0.000,8.17
10.8131,-0.07679,-0.00000,1.29503,0.00000,0.00000,0.00000,58,10,20,-2,56,8,64,-2,ok,2,0,0.003,11,0.35,-0.81,9.88,62,0.013,8.17
10.8180,-0.07679,-0.00000,1.29503,0.00000,0.00000,0.00000,58,10,19,-1,58,6,62,-3,ok,2,0,0.003,11,0.35,-0.81,9.88,62,0.025,8.17
10.8306,-0.07679,-0.00000,1.29503,0.00000,0.00000,0.00000,59,10,18,0,58,8,60,-5,ok,2,0,0.003,11,0.35,-0.81,9.88,62,0.037,8.17
10.8531,-0.07679,-0.00000,1.29503,0.00000,0.00000,0.00000,59,11,16,3,59,8,58,-5,ok,2,0,0.003,11,0.35,-0.81,9.88,62,0.050,8.17
10.8563,-0.07679,-0.00000,1.29503,0.00000,0.00000,0.00000,59,11,15,5,59,9,55,-6,ok,2,0,0.003,11,0.35,-0.81,9.88,62,0.063,8.17
10.8690,-0.07679,-0.00000,1.29503,0.00000,0.00000,0.00000,59,12,13,9,60,9,54,-6,ok,2,0,0.003,11,0.35,-0.81,9.88,62,0.076,8.17
10.8891,-0.07679,-0.00000,1.29503,0.00000,0.00000,0.00000,60,12,13,11,60,10,50,-5,ok,2,0,0.003,11,0.35,-0.81,9.88,62,0.089,8.17
10.8940,-0.07679,-0.00000,1.29503,0.00000,0.00000,0.00000,60,13,14,12,60,10,48,-5,ok,2,0,0.003,11,0.35,-0.81,9.88,62,0.101,8.17
10.9065,-0.07679,-0.00000,1.29503,0.00000,0.00000,0.00000,60,14,15,11,61,11,46,-5,ok,2,0,0.003,11,0.35,-0.81,9.88,62,0.114,8.17
10.9292,-0.07679,-0.00000,1.29503,0.00000,0.00000,0.00000,60,14,17,10,61,11,43,-4,ok,2,0,0.003,11,0.35,-0.81,9.88,62,0.126,8.17
10.9325,-0.07679,-0.00000,1.29503,0.00000,0.00000,0.00000,60,15,19,9,61,12,41,-4,ok,2,0,0.003,11,0.35,-0.81,9.88,62,0.140,8.17
10.9454,-0.07679,-0.00000,1.29503,0.00000,0.00000,0.00000,60,16,19,9,61,12,37,-3,ok,2,0,0.003,11,0.35,-0.81,9.88,62,0.152,8.17
10.9651,-0.07679,-0.00000,1.29503,0.00000,0.00000,0.00000,60,16,21,8,62,13,35,-3,ok,2,0,0.003,11,0.35,-0.81,9.88,62,0.165,8.17
10.9701,-0.07679,-0.00000,1.29503,0.00000,0.00000,0.00000,60,18,22,7,62,14,31,-1,ok,2,0,0.003,11,0.35,-0.81,9.88,62,0.177,8.17
10.9827,-0.07679,-0.00000,1.29503,0.00000,0.00000,0.00000,62,19,23,6,63,14,30,0,ok,2,0,0.003,11,0.35,-0.81,9.88,62,0.190,8.17
11.0053,-0.07679,-0.00000,1.29503,0.00000,0.00000,0.00000,62,20,24,5,63,15,27,1,ok,2,0,0.003,11,0.35,-0.81,9.88,62,0.202,8.17
11.0087,-0.03665,0.09599,1.32296,0.00000,0.00000,0.00000,62,21,24,5,62,16,25,5,ok,2,0,0.003,11,2.08,-1.08,10.78,63,0.000,8.17
11.0212,-0.03665,0.09599,1.32296,0.00000,0.00000,0.00000,62,22,26,4,63,17,24,7,ok,2,0,0.003,11,2.08,-1.08,10.78,63,0.013,8.17
11.0411,-0.03665,0.09599,1.32296,0.00000,0.00000,0.00000,62,23,26,3,63,17,23,11,ok,2,0,0.003,11,2.08,-1.08,10.78,63,0.025,8.17
11.0461,-0.03665,0.09599,1.32296,0.00000,0.00000,0.00000,61,26,27,3,64,19,22,13,ok,2,0,0.003,11,2.08,-1.08,10.78,63,0.038,8.17
11.0586,-0.03665,0.09599,1.32296,0.00000,0.00000,0.00000,61,27,27,2,64,20,24,12,ok,2,0,0.003,11,2.08,-1.08,10.78,63,0.050,8.17
11.0811,-0.03665,0.09599,1.32296,0.00000,0.00000,0.00000,62,25,28,2,64,21,24,12,ok,2,0,0.003,11,2.08,-1.08,10.78,63,0.063,8.17
11.0843,-0.03665,0.09599,1.32296,0.00000,0.00000,0.00000,64,22,29,2,65,22,25,10,ok,2,0,0.003,11,2.08,-1.08,10.78,63,0.076,8.17
11.0973,-0.03665,0.09599,1.32296,0.00000,0.00000,0.00000,65,18,30,1,64,23,27,9,ok,2,0,0.003,11,2.08,-1.08,10.78,63,0.088,8.17
11.1171,-0.03665,0.09599,1.32296,0.00000,0.00000,0.00000,66,13,32,2,64,25,28,10,ok,2,0,0.003,11,2.08,-1.08,10.78,63,0.101,8.17
11.1220,-0.03665,0.09599,1.32296,0.00000,0.00000,0.00000,66,11,33,2,65,26,29,9,ok,2,0,0.003,11,2.08,-1.08,10.78,63,0.113,8.17
11.1344,-0.03665,0.09599,1.32296,0.00000,0.00000,0.00000,66,11,35,2,64,28,30,9,ok,2,0,0.003,11,2.08,-1.08,10.78,63,0.126,8.17
11.1571,-0.03665,0.09599,1.32296,0.00000,0.00000,0.00000,66,7,36,2,64,29,32,9,ok,2,0,0.003,11,2.08,-1.08,10.78,63,0.138,8.17
11.1603,-0.03665,0.09599,1.32296,0.00000,0.00000,0.00000,65,4,38,3,64,30,33,9,ok,2,0,0.003,11,2.08,-1.08,10.78,63,0.152,8.17
11.1730,-0.03665,0.09599,1.32296,0.00000,0.00000,0.00000,64,2,39,3,64,32,35,8,ok,2,0,0.003,11,2.08,-1.08,10.78,63,0.164,8.17
11.1932,-0.03665,0.09599,1.32296,0.00000,0.00000,0.00000,64,-1,41,3,64,34,36,8,ok,2,0,0.003,11,2.08,-1.08,10.78,63,0.177,8.17
11.1983,-0.02094,0.02793,1.32820,0.00000,0.00000,0.00000,63,-3,42,2,64,35,37,8,ok,2,0,0.003,11,-0.66,0.56,11.91,64,0.000,8.17
11.2105,-0.02094,0.02793,1.32820,0.00000,0.00000,0.00000,62,-4,44,2,65,36,38,8,ok,2,0,0.003,11,-0.66,0.56,11.91,64,0.013,8.17
11.2331,-0.02094,0.02793,1.32820,0.00000,0.00000,0.00000,60,-5,44,2,66,35,40,8,ok,2,0,0.003,11,-0.66,0.56,11.91,64,0.025,8.17
11.2365,-0.02094,0.02793,1.32820,0.00000,0.00000,0.00000,60,-6,45,3,68,33,41,7,ok,2,0,0.003,11,-0.66,0.56,11.91,64,0.038,8.17
11.2490,-0.02094,0.02793,1.32820,0.00000,0.00000,0.00000,59,-8,46,3,70,29,42,7,ok,2,0,0.003,11,-0.66,0.56,11.91,64,0.051,8.17
11.2691,-0.02094,0.02793,1.32820,0.00000,0.00000,0.00000,57,-9,48,4,71,24,44,7,ok,2,0,0.003,11,-0.66,0.56,11.91,64,0.064,8.17
11.2740,-0.02094,0.02793,1.32820,0.00000,0.00000,0.00000,55,-10,49,3,73,22,44,7,ok,2,0,0.003,11,-0.66,0.56,11.91,64,0.076,8.17
11.2864,-0.02094,0.02793,1.32820,0.00000,0.00000,0.00000,53,-10,49,3,74,21,45,7,ok,2,0,0.003,11,-0.66,0.56,11.91,64,0.089,8.17
11.3091,-0.02094,0.02793,1.32820,0.00000,0.00000,0.00000,52,-11,50,5,74,18,46,7,ok,2,0,0.003,11,-0.66,0.56,11.91,64,0.101,8.17
11.3123,-0.02094,0.02793,1.32820,0.00000,0.00000,0.00000,49,-11,51,6,74,15,47,8,ok,2,0,0.003,11,-0.66,0.56,11.91,64,0.114,8.17
11.3250,-0.02094,0.02793,1.32820,0.00000,0.00000,0.00000,48,-11,52,6,73,12,48,8,ok,2,0,0.003,11,-0.66,0.56,11.91,64,0.127,8.17
11.3451,-0.02094,0.02793,1.32820,0.00000,0.00000,0.00000,45,-10,53,6,73,10,49,8,ok,2,0,0.003,11,-0.66,0.56,11.91,64,0.140,8.17
11.3500,-0.02094,0.02793,1.32820,0.00000,0.00000,0.00000,43,-11,53,7,72,7,49,9,ok,2,0,0.003,11,-0.66,0.56,11.91,64,0.152,8.17
11.3626,-0.02094,0.02793,1.32820,0.00000,0.00000,0.00000,41,-11,55,7,72,5,50,8,ok,2,0,0.003,11,-0.66,0.56,11.91,64,0.165,8.17
11.3851,-0.02094,0.02793,1.32820,0.00000,0.00000,0.00000,39,-10,56,7,71,4,51,9,ok,2,0,0.003,11,-0.66,0.56,11.91,64,0.177,8.17
11.3882,-0.02094,0.02793,1.32820,0.00000,0.00000,0.00000,36,-9,57,7,69,1,52,8,ok,2,0,0.003,11,-0.66,0.56,11.91,64,0.190,8.17
11.4013,-0.02094,0.02793,1.32820,0.00000,0.00000,0.00000,34,-7,57,8,66,1,52,8,ok,2,0,0.003,11,-0.66,0.56,11.91,64,0.203,8.17
11.4211,0.13788,-0.01571,1.31423,0.00000,0.00000,0.00000,31,-6,58,8,65,-1,53,8,ok,2,0,0.003,11,-0.05,0.85,9.82,65,0.000,8.17
11.4260,0.13788,-0.01571,1.31423,0.00000,0.00000,0.00000,28,-4,58,8,64,-2,54,9,ok,2,0,0.003,11,-0.05,0.85,9.82,65,0.012,8.17
11.4384,0.13788,-0.01571,1.31423,0.00000,0.00000,0.00000,25,-1,59,9,62,-3,54,8,ok,2,0,0.003,11,-0.05,0.85,9.82,65,0.025,8.17
11.4612,0.13788,-0.01571,1.31423,0.00000,0.00000,0.00000,25,-1,60,10,61,-4,54,8,ok,2,0,0.003,11,-0.05,0.85,9.82,65,0.038,8.17
11.4643,0.13788,-0.01571,1.31423,0.00000,0.00000,0.00000,24,1,61,9,59,-5,56,6,ok,2,0,0.003,11,-0.05,0.85,9.82,65,0.051,8.17
11.4773,0.13788,-0.01571,1.31423,0.00000,0.00000,0.00000,23,3,61,10,56,-6,56,7,ok,2,0,0.003,11,-0.05,0.85,9.82,65,0.064,8.17
11.4972,0.13788,-0.01571,1.31423,0.00000,0.00000,0.00000,22,6,61,10,54,-7,57,7,ok,2,0,0.003,11,-0.05,0.85,9.82,65,0.076,8.17
11.5020,0.13788,-0.01571,1.31423,0.00000,0.00000,0.00000,20,10,61,11,51,-6,58,8,ok,2,0,0.003,11,-0.05,0.85,9.82,65,0.089,8.17
11.5144,0.13788,-0.01571,1.31423,0.00000,0.00000,0.00000,20,12,62,10,48,-6,59,8,ok,2,0,0.003,11,-0.05,0.85,9.82,65,0.101,8.17
11.5371,0.13788,-0.01571,1.31423,0.00000,0.00000,0.00000,21,12,62,12,46,-6,59,9,ok,2,0,0.003,11,-0.05,0.85,9.82,65,0.114,8.17
11.5403,0.13788,-0.01571,1.31423,0.00000,0.00000,0.00000,22,12,61,13,42,-5,59,9,ok,2,0,0.003,11,-0.05,0.85,9.82,65,0.127,8.17
11.5530,0.13788,-0.01571,1.31423,0.00000,0.00000,0.00000,23,10,62,13,40,-4,60,10,ok,2,0,0.003,11,-0.05,0.85,9.82,65,0.140,8.17
11.5731,0.13788,-0.01571,1.31423,0.00000,0.00000,0.00000,24,9,62,14,37,-3,60,11,ok,2,0,0.003,11,-0.05,0.85,9.82,65,0.152,8.17
11.5780,0.13788,-0.01571,1.31423,0.00000,0.00000,0.00000,24,8,63,15,34,-3,61,12,ok,2,0,0.003,11,-0.05,0.85,9.82,65,0.165,8.17
11.5907,0.13788,-0.01571,1.31423,0.00000,0.00000,0.00000,26,7,63,16,31,-1,61,12,ok,2,0,0.003,11,-0.05,0.85,9.82,65,0.177,8.17
11.6132,0.13788,-0.01571,1.31423,0.00000,0.00000,0.00000,27,7,63,17,29,0,62,13,ok,2,0,0.003,11,-0.05,0.85,9.82,65,0.190,8.17
11.6166,0.06981,0.14486,1.30027,0.00000,0.00000,0.00000,28,6,64,18,28,2,62,14,ok,2,0,0.003,11,2.04,0.86,10.25,66,0.000,8.17
11.6291,0.06981,0.14486,1.30027,0.00000,0.00000,0.00000,29,5,64,20,25,5,63,15,ok,2,0,0.003,11,2.04,0.86,10.25,66,0.013,8.17
11.6491,0.06981,0.14486,1.30027,0.00000,0.00000,0.00000,30,4,65,21,23,7,63,16,ok,2,0,0.003,11,2.04,0.86,10.25,66,0.025,8.17
11.6540,0.06981,0.14486,1.30027,0.00000,0.00000,0.00000,31,4,64,22,22,11,63,17,ok,2,0,0.003,11,2.04,0.86,10.25,66,0.038,8.17
11.6664,0.06981,0.14486,1.30027,0.00000,0.00000,0.00000,31,3,64,23,22,14,64,17,ok,2,0,0.003,11,2.04,0.86,10.25,66,0.050,8.17
11.6891,0.06981,0.14486,1.30027,0.00000,0.00000,0.00000,32,2,63,26,24,13,64,18,ok,2,0,0.003,11,2.04,0.86,10.25,66,0.063,8.17
11.6923,0.06981,0.14486,1.30027,0.00000,0.00000,0.00000,32,1,63,28,24,13,64,19,ok,2,0,0.003,11,2.04,0.86,10.25,66,0.076,8.17
11.7050,0.06981,0.14486,1.30027,0.00000,0.00000,0.00000,33,1,64,26,25,11,64,20,ok,2,0,0.003,12,2.04,0.86,10.25,66,0.089,8.17
11.7251,0.06981,0.14486,1.30027,0.00000,0.00000,0.00000,34,0,66,23,26,11,65,21,ok,2,0,0.003,12,2.04,0.86,10.25,66,0.101,8.17
11.7300,0.06981,0.14486,1.30027,0.00000,0.00000,0.00000,35,0,69,19,28,11,65,22,ok,2,0,0.003,12,2.04,0.86,10.25,66,0.114,8.17
11.7425,0.06981,0.14486,1.30027,0.00000,0.00000,0.00000,36,0,70,15,29,10,65,23,ok,2,0,0.003,12,2.04,0.86,10.25,66,0.126,8.17
11.7652,0.06981,0.14486,1.30027,0.00000,0.00000,0.00000,37,0,70,13,30,9,65,25,ok,2,0,0.003,12,2.04,0.86,10.25,66,0.139,8.17
11.7685,0.06981,0.14486,1.30027,0.00000,0.00000,0.00000,39,1,70,12,33,9,66,26,ok,2,0,0.003,12,2.04,0.86,10.25,66,0.152,8.17
11.7811,0.06981,0.14486,1.30027,0.00000,0.00000,0.00000,40,1,70,8,33,9,65,28,ok,2,0,0.003,12,2.04,0.86,10.25,66,0.165,8.17
11.8011,0.06981,0.14486,1.30027,0.00000,0.00000,0.00000,41,2,69,5,35,9,64,29,ok,2,0,0.003,12,2.04,0.86,10.25,66,0.177,8.17
11.8064,0.06981,0.14486,1.30027,0.00000,0.00000,0.00000,42,2,68,3,37,9,65,30,ok,2,0,0.003,12,2.04,0.86,10.25,66,0.190,8.17
11.8188,-0.11868,0.02793,1.37357,0.00000,0.00000,0.00000,43,2,67,0,38,9,64,32,ok,2,0,0.003,12,-0.34,-2.91,10.07,67,0.000,8.17
11.8411,-0.11868,0.02793,1.37357,0.00000,0.00000,0.00000,44,1,66,-1,39,8,65,34,ok,2,0,0.003,12,-0.34,-2.91,10.07,67,0.013,8.17
11.8442,-0.11868,0.02793,1.37357,0.00000,0.00000,0.00000,45,1,64,-3,40,8,65,35,ok,2,0,0.003,12,-0.34,-2.91,10.07,67,0.026,8.17
11.8570,-0.11868,0.02793,1.37357,0.00000,0.00000,0.00000,45,1,62,-4,41,7,66,35,ok,2,0,0.003,12,-0.34,-2.91,10.07,67,0.038,8.17
11.8771,-0.11868,0.02793,1.37357,0.00000,0.00000,0.00000,47,1,60,-5,42,7,67,34,ok,2,0,0.003,12,-0.34,-2.91,10.07,67,0.051,8.17
11.8820,-0.11868,0.02793,1.37357,0.00000,0.00000,0.00000,48,1,60,-7,43,7,69,32,ok,2,0,0.003,12,-0.34,-2.91,10.07,67,0.063,8.17
11.8946,-0.11868,0.02793,1.37357,0.00000,0.00000,0.00000,48,2,58,-7,44,7,71,27,ok,2,0,0.003,12,-0.34,-2.91,10.07,67,0.076,8.17
11.9171,-0.11868,0.02793,1.37357,0.00000,0.00000,0.00000,50,1,55,-8,45,7,72,23,ok,2,0,0.003,12,-0.34,-2.91,10.07,67,0.088,8.17
11.9203,-0.11868,0.02793,1.37357,0.00000,0.00000,0.00000,50,1,53,-8,46,7,73,21,ok,2,0,0.003,12,-0.34,-2.91,10.07,67,0.102,8.17
11.9332,-0.11868,0.02793,1.37357,0.00000,0.00000,0.00000,50,4,51,-10,47,7,73,20,ok,2,0,0.003,12,-0.34,-2.91,10.07,67,0.114,8.17
11.9531,-0.11868,0.02793,1.37357,0.00000,0.00000,0.00000,52,5,49,-10,48,7,73,18,ok,2,0,0.003,12,-0.34,-2.91,10.07,67,0.127,8.17
11.9580,-0.11868,0.02793,1.37357,0.00000,0.00000,0.00000,52,5,46,-10,49,7,73,15,ok,2,0,0.003,12,-0.34,-2.91,10.07,67,0.139,8.17
11.9705,-0.11868,0.02793,1.37357,0.00000,0.00000,0.00000,52,6,44,-10,49,7,72,12,ok,2,0,0.003,12,-0.34,-2.91,10.07,67,0.152,8.17
11.9931,-0.11868,0.02793,1.37357,0.00000,0.00000,0.00000,53,7,41,-10,49,7,72,11,ok,2,0,0.003,12,-0.34,-2.91,10.07,67,0.164,8.17
11.9965,-0.11868,0.02793,1.37357,0.00000,0.00000,0.00000,55,7,39,-10,50,7,71,7,ok,2,0,0.003,12,-0.34,-2.91,10.07,67,0.178,8.17
12.0090,-0.11868,0.02793,1.37357,0.00000,0.00000,0.00000,55,7,36,-9,52,7,71,5,ok,2,0,0.003,12,-0.34,-2.91,10.07,67,0.190,8.17
12.0291,-0.05934,-0.02094,1.42768,0.00000,0.00000,0.00000,56,7,33,-9,52,7,70,4,ok,2,0,0.003,12,-0.38,-0.60,10.01,68,0.000,8.17
12.0340,-0.05934,-0.02094,1.42768,0.00000,0.00000,0.00000,56,8,30,-8,53,8,68,2,ok,2,0,0.003,12,-0.38,-0.60,10.01,68,0.012,8.17
12.0467,-0.05934,-0.02094,1.42768,0.00000,0.00000,0.00000,56,8,27,-7,54,8,66,2,ok,2,0,0.003,12,-0.38,-0.60,10.01,68,0.025,8.17
12.0691,-0.05934,-0.02094,1.42768,0.00000,0.00000,0.00000,57,9,24,-5,55,8,65,0,ok,2,0,0.003,12,-0.38,-0.60,10.01,68,0.038,8.17
12.0723,-0.05934,-0.02094,1.42768,0.00000,0.00000,0.00000,58,10,21,-2,56,8,64,-2,ok,2,0,0.003,12,-0.38,-0.60,10.01,68,0.051,8.17
12.0850,-0.05934,-0.02094,1.42768,0.00000,0.00000,0.00000,58,10,19,-1,58,6,62,-3,ok,2,0,0.003,12,-0.38,-0.60,10.01,68,0.064,8.17
12.1051,-0.05934,-0.02094,1.42768,0.00000,0.00000,0.00000,59,10,18,0,58,8,60,-4,ok,2,0,0.003,12,-0.38,-0.60,10.01,68,0.076,8.17
12.1100,-0.05934,-0.02094,1.42768,0.00000,0.00000,0.00000,59,11,16,2,59,8,58,-5,ok,2,0,0.003,12,-0.38,-0.60,10.01,68,0.088,8.17
12.1226,-0.05934,-0.02094,1.42768,0.00000,0.00000,0.00000,60,11,15,5,59,8,55,-6,ok,2,0,0.003,12,-0.38,-0.60,10.01,68,0.101,8.17
12.1451,-0.05934,-0.02094,1.42768,0.00000,0.00000,0.00000,60,13,13,9,60,9,53,-7,ok,2,0,0.003,12,-0.38,-0.60,10.01,68,0.114,8.17
12.1483,-0.05934,-0.02094,1.42768,0.00000,0.00000,0.00000,60,13,13,11,60,9,50,-6,ok,2,0,0.003,12,-0.38,-0.60,10.01,68,0.127,8.17
12.1610,-0.05934,-0.02094,1.42768,0.00000,0.00000,0.00000,60,13,15,12,60,10,48,-5,ok,2,0,0.003,12,-0.38,-0.60,10.01,68,0.140,8.17
12.1811,-0.05934,-0.02094,1.42768,0.00000,0.00000,0.00000,60,14,15,11,61,11,45,-5,ok,2,0,0.003,12,-0.38,-0.60,10.01,68,0.152,8.17
12.1860,-0.05934,-0.02094,1.42768,0.00000,0.00000,0.00000,60,14,17,10,61,11,42,-4,ok,2,0,0.003,12,-0.38,-0.60,10.01,68,0.164,8.17
12.1984,-0.05934,-0.02094,1.42768,0.00000,0.00000,0.00000,60,15,19,9,61,12,40,-4,ok,2,0,0.003,12,-0.38,-0.60,10.01,68,0.177,8.17
12.2212,-0.05934,-0.02094,1.42768,0.00000,0.00000,0.00000,60,16,20,9,61,12,37,-3,ok,2,0,0.003,12,-0.38,-0.60,10.01,68,0.190,8.17
12.2246,0.09425,0.09250,1.43990,0.00000,0.00000,0.00000,61,16,21,8,61,13,35,-3,ok,2,0,0.003,12,0.65,1.21,10.37,69,0.000,8.17
12.2370,0.09425,0.09250,1.43990,0.00000,0.00000,0.00000,60,18,22,7,62,15,30,-1,ok,2,0,0.003,12,0.65,1.21,10.37,69,0.013,8.17
12.2571,0.09425,0.09250,1.43990,0.00000,0.00000,0.00000,61,19,23,6,62,15,29,0,ok,2,0,0.003,12,0.65,1.21,10.37,69,0.025,8.17
12.2620,0.09425,0.09250,1.43990,0.00000,0.00000,0.00000,61,21,24,5,63,16,26,1,ok,2,0,0.003,12,0.65,1.21,10.37,69,0.038,8.17
12.2745,0.09425,0.09250,1.43990,0.00000,0.00000,0.00000,62,22,24,4,63,17,24,4,ok,2,0,0.003,12,0.65,1.21,10.37,69,0.050,8.17
