# run_gait log  cmd_fwd=0.100 hz=80.0 fw_balance=off policy_yaw_sign=-1
t,roll,pitch,yaw,gx,gy,gz,j0,j1,j2,j3,j4,j5,j6,j7,guard_state,hottest_j,hottest_tier,hottest_frac,duty_s,ax,ay,az,imu_n,imu_age_s,volt
0.0412,-0.01047,0.01222,0.00000,0.00000,0.00000,0.00000,28,0,57,10,60,-3,54,8,ok,3,0,0.000,0,0.12,-0.12,10.01,9,0.028,nan
0.0466,-0.01047,0.01222,0.00000,0.00000,0.00000,0.00000,25,1,59,10,59,-4,56,6,ok,0,0,0.000,0,0.12,-0.12,10.01,9,0.054,nan
0.0596,-0.01047,0.01222,0.00000,0.00000,0.00000,0.00000,24,4,59,11,56,-5,56,8,ok,4,0,0.000,0,0.12,-0.12,10.01,9,0.067,8.29
0.0811,-0.01047,0.01222,0.00000,0.00000,0.00000,0.00000,23,7,60,12,55,-6,57,8,ok,4,0,0.000,0,0.12,-0.12,10.01,9,0.079,8.29
0.0851,-0.01047,0.01222,0.00000,0.00000,0.00000,0.00000,21,10,59,13,52,-5,57,9,ok,4,0,0.000,0,0.12,-0.12,10.01,9,0.094,8.29
0.0976,-0.01047,0.01222,0.00000,0.00000,0.00000,0.00000,20,12,60,13,50,-5,58,10,ok,4,0,0.000,0,0.12,-0.12,10.01,9,0.106,8.29
0.1211,-0.01047,0.01222,0.00000,0.00000,0.00000,0.00000,21,13,60,14,47,-5,59,11,ok,4,0,0.000,0,0.12,-0.12,10.01,9,0.119,8.29
0.1252,-0.01047,0.01222,0.00000,0.00000,0.00000,0.00000,21,13,60,15,44,-4,59,11,ok,4,0,0.000,0,0.12,-0.12,10.01,9,0.134,8.29
0.1377,-0.01047,0.01222,0.00000,0.00000,0.00000,0.00000,23,12,61,15,42,-4,60,12,ok,4,0,0.000,0,0.12,-0.12,10.01,9,0.146,8.29
0.1611,-0.01047,0.01222,0.00000,0.00000,0.00000,0.00000,24,11,61,16,39,-3,60,12,ok,4,0,0.000,0,0.12,-0.12,10.01,9,0.159,8.29
0.1650,-0.01047,0.01222,0.00000,0.00000,0.00000,0.00000,24,11,61,17,36,-2,61,13,ok,4,0,0.000,0,0.12,-0.12,10.01,9,0.174,8.29
0.1773,-0.02967,-0.09076,-0.01222,0.00000,0.00000,0.00000,25,9,61,18,32,-1,61,14,ok,4,0,0.000,0,-1.49,0.34,9.35,10,0.000,8.29
0.1970,-0.02967,-0.09076,-0.01222,0.00000,0.00000,0.00000,26,9,61,18,30,1,62,15,ok,4,0,0.000,0,-1.49,0.34,9.35,10,0.013,8.29
0.2019,-0.02967,-0.09076,-0.01222,0.00000,0.00000,0.00000,28,8,62,19,28,2,62,16,ok,4,0,0.000,0,-1.49,0.34,9.35,10,0.025,8.29
0.2145,-0.02967,-0.09076,-0.01222,0.00000,0.00000,0.00000,28,7,63,21,25,5,63,16,ok,4,0,0.000,0,-1.49,0.34,9.35,10,0.038,8.29
0.2370,-0.02967,-0.09076,-0.01222,0.00000,0.00000,0.00000,29,7,63,21,23,8,64,17,ok,4,0,0.000,0,-1.49,0.34,9.35,10,0.050,8.29
0.2402,-0.02967,-0.09076,-0.01222,0.00000,0.00000,0.00000,31,6,63,22,22,11,64,18,ok,4,0,0.000,0,-1.49,0.34,9.35,10,0.063,8.29
0.2528,-0.02967,-0.09076,-0.01222,0.00000,0.00000,0.00000,32,6,62,23,21,14,64,18,ok,4,0,0.000,0,-1.49,0.34,9.35,10,0.076,8.29
0.2730,-0.02967,-0.09076,-0.01222,0.00000,0.00000,0.00000,32,6,62,26,22,14,65,19,ok,4,0,0.000,0,-1.49,0.34,9.35,10,0.088,8.29
0.2780,-0.02967,-0.09076,-0.01222,0.00000,0.00000,0.00000,33,5,62,28,22,14,65,20,ok,4,0,0.000,0,-1.49,0.34,9.35,10,0.101,8.29
0.2904,-0.02967,-0.09076,-0.01222,0.00000,0.00000,0.00000,34,5,64,26,23,12,65,21,ok,4,0,0.000,0,-1.49,0.34,9.35,10,0.113,8.29
0.3130,-0.02967,-0.09076,-0.01222,0.00000,0.00000,0.00000,35,4,66,23,25,11,65,23,ok,4,0,0.000,0,-1.49,0.34,9.35,10,0.126,8.29
0.3162,-0.02967,-0.09076,-0.01222,0.00000,0.00000,0.00000,36,4,69,19,26,11,65,24,ok,4,0,0.000,0,-1.49,0.34,9.35,10,0.139,8.29
0.3290,-0.02967,-0.09076,-0.01222,0.00000,0.00000,0.00000,37,4,70,16,27,11,65,25,ok,4,0,0.000,0,-1.49,0.34,9.35,10,0.152,8.29
0.3490,-0.02967,-0.09076,-0.01222,0.00000,0.00000,0.00000,39,4,71,14,28,10,65,27,ok,4,0,0.000,0,-1.49,0.34,9.35,10,0.164,8.29
0.3538,-0.02967,-0.09076,-0.01222,0.00000,0.00000,0.00000,40,3,71,13,30,10,65,28,ok,4,0,0.000,0,-1.49,0.34,9.35,10,0.177,8.29
0.3664,-0.02967,-0.09076,-0.01222,0.00000,0.00000,0.00000,40,3,71,10,30,10,64,30,ok,4,0,0.000,0,-1.49,0.34,9.35,10,0.189,8.29
0.3890,-0.11345,0.02793,0.00698,0.00000,0.00000,0.00000,42,4,71,7,32,10,64,31,ok,4,0,0.000,0,1.32,-1.00,9.82,11,0.000,8.29
0.3922,-0.11345,0.02793,0.00698,0.00000,0.00000,0.00000,43,4,70,5,33,9,65,32,ok,4,0,0.000,0,1.32,-1.00,9.82,11,0.013,8.29
0.4050,-0.11345,0.02793,0.00698,0.00000,0.00000,0.00000,44,3,69,2,35,8,65,33,ok,4,0,0.000,0,1.32,-1.00,9.82,11,0.026,8.29
0.4250,-0.11345,0.02793,0.00698,0.00000,0.00000,0.00000,45,3,68,0,36,8,64,35,ok,4,0,0.000,0,1.32,-1.00,9.82,11,0.039,8.29
0.4298,-0.11345,0.02793,0.00698,0.00000,0.00000,0.00000,46,3,66,-1,38,7,64,36,ok,4,0,0.000,0,1.32,-1.00,9.82,11,0.051,8.29
0.4424,-0.11345,0.02793,0.00698,0.00000,0.00000,0.00000,46,2,64,-2,39,7,65,36,ok,4,0,0.000,0,1.32,-1.00,9.82,11,0.064,8.29
0.4650,-0.11345,0.02793,0.00698,0.00000,0.00000,0.00000,48,3,62,-4,41,6,66,35,ok,4,0,0.000,0,1.32,-1.00,9.82,11,0.076,8.29
0.4684,-0.11345,0.02793,0.00698,0.00000,0.00000,0.00000,48,3,61,-6,42,7,68,32,ok,4,0,0.000,0,1.32,-1.00,9.82,11,0.089,8.29
0.4808,-0.11345,0.02793,0.00698,0.00000,0.00000,0.00000,50,4,58,-7,44,7,70,27,ok,4,0,0.000,0,1.32,-1.00,9.82,11,0.102,8.29
0.5010,-0.11345,0.02793,0.00698,0.00000,0.00000,0.00000,51,3,56,-8,44,7,71,24,ok,4,0,0.000,0,1.32,-1.00,9.82,11,0.115,8.29
0.5058,-0.11345,0.02793,0.00698,0.00000,0.00000,0.00000,52,3,54,-9,46,6,73,20,ok,4,0,0.000,0,1.32,-1.00,9.82,11,0.127,8.29
0.5183,-0.11345,0.02793,0.00698,0.00000,0.00000,0.00000,52,6,52,-10,47,6,73,20,ok,4,0,0.000,0,1.32,-1.00,9.82,11,0.140,8.29
0.5410,-0.11345,0.02793,0.00698,0.00000,0.00000,0.00000,52,6,49,-10,48,7,73,17,ok,4,0,0.000,1,1.32,-1.00,9.82,11,0.152,8.29
0.5444,-0.11345,0.02793,0.00698,0.00000,0.00000,0.00000,53,6,47,-10,49,7,73,14,ok,4,0,0.000,1,1.32,-1.00,9.82,11,0.165,8.29
0.5568,-0.11345,0.02793,0.00698,0.00000,0.00000,0.00000,53,6,45,-10,50,7,73,11,ok,4,0,0.000,1,1.32,-1.00,9.82,11,0.178,8.29
0.5772,-0.11345,0.02793,0.00698,0.00000,0.00000,0.00000,54,7,42,-10,51,7,72,9,ok,4,0,0.000,1,1.32,-1.00,9.82,11,0.191,8.29
0.5821,-0.03491,-0.05760,0.03316,0.00000,0.00000,0.00000,56,7,39,-11,52,7,72,6,ok,4,0,0.000,1,-0.10,-0.89,9.88,12,0.000,8.29
0.5944,-0.03491,-0.05760,0.03316,0.00000,0.00000,0.00000,56,7,37,-10,53,6,72,4,ok,4,0,0.000,1,-0.10,-0.89,9.88,12,0.012,8.29
0.6170,-0.03491,-0.05760,0.03316,0.00000,0.00000,0.00000,56,7,33,-9,53,7,70,2,ok,4,0,0.000,1,-0.10,-0.89,9.88,12,0.025,8.29
0.6202,-0.03491,-0.05760,0.03316,0.00000,0.00000,0.00000,56,8,31,-8,54,8,68,0,ok,4,0,0.000,1,-0.10,-0.89,9.88,12,0.038,8.29
0.6328,-0.03491,-0.05760,0.03316,0.00000,0.00000,0.00000,57,9,27,-7,54,8,66,0,ok,4,0,0.000,1,-0.10,-0.89,9.88,12,0.051,8.29
0.6530,-0.03491,-0.05760,0.03316,0.00000,0.00000,0.00000,58,9,25,-5,55,8,65,-2,ok,4,0,0.000,1,-0.10,-0.89,9.88,12,0.063,8.29
0.6578,-0.03491,-0.05760,0.03316,0.00000,0.00000,0.00000,59,11,21,-3,56,9,64,-3,ok,2,0,0.000,1,-0.10,-0.89,9.88,12,0.076,8.29
0.6703,-0.03491,-0.05760,0.03316,0.00000,0.00000,0.00000,59,11,19,-1,58,7,62,-5,ok,2,0,0.000,1,-0.10,-0.89,9.88,12,0.088,8.29
0.6930,-0.03491,-0.05760,0.03316,0.00000,0.00000,0.00000,60,11,18,0,58,8,60,-6,ok,2,0,0.000,1,-0.10,-0.89,9.88,12,0.101,8.29
0.6962,-0.03491,-0.05760,0.03316,0.00000,0.00000,0.00000,60,11,16,3,59,9,58,-6,ok,2,0,0.000,1,-0.10,-0.89,9.88,12,0.114,8.29
0.7088,-0.03491,-0.05760,0.03316,0.00000,0.00000,0.00000,60,11,15,6,59,9,55,-6,ok,2,0,0.000,1,-0.10,-0.89,9.88,12,0.127,8.29
0.7290,-0.03491,-0.05760,0.03316,0.00000,0.00000,0.00000,60,12,13,10,59,10,53,-7,ok,2,0,0.000,1,-0.10,-0.89,9.88,12,0.139,8.29
0.7340,-0.03491,-0.05760,0.03316,0.00000,0.00000,0.00000,60,12,12,12,60,10,50,-6,ok,2,0,0.000,1,-0.10,-0.89,9.88,12,0.152,8.29
0.7463,-0.03491,-0.05760,0.03316,0.00000,0.00000,0.00000,60,13,14,12,60,10,47,-6,ok,2,0,0.000,1,-0.10,-0.89,9.88,12,0.164,8.29
0.7692,-0.03491,-0.05760,0.03316,0.00000,0.00000,0.00000,60,14,15,12,60,11,45,-6,ok,2,0,0.000,1,-0.10,-0.89,9.88,12,0.177,8.29
0.7727,-0.03491,-0.05760,0.03316,0.00000,0.00000,0.00000,60,14,17,10,60,11,42,-5,ok,2,0,0.000,1,-0.10,-0.89,9.88,12,0.191,8.29
0.7857,0.00175,0.07505,-0.01745,0.00000,0.00000,0.00000,60,15,19,9,61,12,40,-5,ok,2,0,0.000,1,0.84,0.39,10.80,13,0.000,8.29
0.8091,0.00175,0.07505,-0.01745,0.00000,0.00000,0.00000,60,16,20,9,60,13,37,-4,ok,2,0,0.000,1,0.84,0.39,10.80,13,0.012,8.29
0.8123,0.00175,0.07505,-0.01745,0.00000,0.00000,0.00000,61,17,22,8,61,13,34,-3,ok,2,0,0.000,1,0.84,0.39,10.80,13,0.027,8.29
0.8256,0.00175,0.07505,-0.01745,0.00000,0.00000,0.00000,61,18,22,7,61,14,30,-1,ok,2,0,0.000,1,0.84,0.39,10.80,13,0.040,8.29
0.8490,0.00175,0.07505,-0.01745,0.00000,0.00000,0.00000,62,19,23,6,62,14,29,0,ok,2,0,0.000,1,0.84,0.39,10.80,13,0.052,8.29
0.8524,0.00175,0.07505,-0.01745,0.00000,0.00000,0.00000,62,20,24,5,62,15,27,1,ok,2,0,0.000,1,0.84,0.39,10.80,13,0.067,8.29
0.8654,0.00175,0.07505,-0.01745,0.00000,0.00000,0.00000,62,21,24,4,62,16,25,4,ok,2,0,0.000,1,0.84,0.39,10.80,13,0.080,8.29
0.8850,0.00175,0.07505,-0.01745,0.00000,0.00000,0.00000,62,22,25,4,63,17,24,7,ok,2,0,0.000,1,0.84,0.39,10.80,13,0.092,8.29
0.8900,0.00175,0.07505,-0.01745,0.00000,0.00000,0.00000,62,23,26,3,64,18,23,11,ok,2,0,0.000,1,0.84,0.39,10.80,13,0.105,8.29
0.9027,0.00175,0.07505,-0.01745,0.00000,0.00000,0.00000,61,26,27,3,64,19,22,12,ok,2,0,0.000,1,0.84,0.39,10.80,13,0.117,8.29
0.9250,0.00175,0.07505,-0.01745,0.00000,0.00000,0.00000,61,26,27,2,64,20,25,12,ok,2,0,0.000,1,0.84,0.39,10.80,13,0.130,8.29
0.9282,0.00175,0.07505,-0.01745,0.00000,0.00000,0.00000,62,25,29,2,64,21,25,11,ok,2,0,0.000,1,0.84,0.39,10.80,13,0.143,8.29
0.9410,0.00175,0.07505,-0.01745,0.00000,0.00000,0.00000,64,21,30,2,65,22,26,9,ok,2,0,0.000,1,0.84,0.39,10.80,13,0.156,8.29
0.9610,0.00175,0.07505,-0.01745,0.00000,0.00000,0.00000,65,18,31,1,64,23,27,9,ok,2,0,0.000,1,0.84,0.39,10.80,13,0.168,8.29
0.9658,0.00175,0.07505,-0.01745,0.00000,0.00000,0.00000,66,13,33,2,64,25,28,9,ok,2,0,0.000,1,0.84,0.39,10.80,13,0.181,8.29
0.9783,0.00175,0.07505,-0.01745,0.00000,0.00000,0.00000,67,11,34,1,65,26,29,9,ok,2,0,0.000,1,0.84,0.39,10.80,13,0.193,8.29
1.0010,-0.04363,0.04887,0.07505,0.00000,0.00000,0.00000,66,11,35,2,64,28,31,8,ok,2,0,0.000,1,1.05,-0.33,9.86,14,0.000,8.29
1.0043,-0.04363,0.04887,0.07505,0.00000,0.00000,0.00000,66,7,37,2,64,29,33,8,ok,2,0,0.000,1,1.05,-0.33,9.86,14,0.013,8.29
1.0171,-0.04363,0.04887,0.07505,0.00000,0.00000,0.00000,65,5,39,3,64,30,33,8,ok,2,0,0.000,1,1.05,-0.33,9.86,14,0.026,8.29
1.0370,-0.04363,0.04887,0.07505,0.00000,0.00000,0.00000,65,2,40,3,64,32,35,8,ok,2,0,0.000,1,1.05,-0.33,9.86,14,0.038,8.29
1.0418,-0.04363,0.04887,0.07505,0.00000,0.00000,0.00000,64,-1,41,3,63,34,36,8,ok,2,0,0.000,1,1.05,-0.33,9.86,14,0.051,8.29
1.0546,-0.04363,0.04887,0.07505,0.00000,0.00000,0.00000,64,-3,42,2,63,35,37,8,ok,2,0,0.000,1,1.05,-0.33,9.86,14,0.064,8.29
1.0770,-0.04363,0.04887,0.07505,0.00000,0.00000,0.00000,62,-4,44,3,64,35,38,7,ok,2,0,0.000,1,1.05,-0.33,9.86,14,0.076,8.29
1.0802,-0.04363,0.04887,0.07505,0.00000,0.00000,0.00000,60,-5,44,3,65,35,40,7,ok,2,0,0.000,1,1.05,-0.33,9.86,14,0.089,8.29
1.0928,-0.04363,0.04887,0.07505,0.00000,0.00000,0.00000,60,-7,45,3,67,33,41,6,ok,2,0,0.000,1,1.05,-0.33,9.86,14,0.102,8.29
1.1130,-0.04363,0.04887,0.07505,0.00000,0.00000,0.00000,59,-9,47,3,69,29,42,6,ok,2,0,0.000,1,1.05,-0.33,9.86,14,0.115,8.29
1.1178,-0.04363,0.04887,0.07505,0.00000,0.00000,0.00000,57,-9,48,4,71,24,43,7,ok,2,0,0.000,1,1.05,-0.33,9.86,14,0.127,8.29
1.1306,-0.04363,0.04887,0.07505,0.00000,0.00000,0.00000,55,-10,49,4,72,22,44,7,ok,2,0,0.000,1,1.05,-0.33,9.86,14,0.140,8.29
1.1530,-0.04363,0.04887,0.07505,0.00000,0.00000,0.00000,53,-10,50,4,73,21,45,7,ok,2,0,0.000,1,1.05,-0.33,9.86,14,0.152,8.29
1.1562,-0.04363,0.04887,0.07505,0.00000,0.00000,0.00000,52,-11,50,6,73,19,46,7,ok,2,0,0.000,1,1.05,-0.33,9.86,14,0.165,8.29
1.1690,-0.04363,0.04887,0.07505,0.00000,0.00000,0.00000,49,-11,51,6,73,15,47,8,ok,2,0,0.000,1,1.05,-0.33,9.86,14,0.178,8.29
1.1890,-0.04363,0.04887,0.07505,0.00000,0.00000,0.00000,48,-11,52,6,73,12,48,8,ok,2,0,0.000,1,1.05,-0.33,9.86,14,0.191,8.29
1.1940,0.07330,0.00524,0.06981,0.00000,0.00000,0.00000,45,-10,53,6,72,10,49,8,ok,2,0,0.000,1,-0.72,0.83,9.87,15,0.000,8.29
1.2064,0.07330,0.00524,0.06981,0.00000,0.00000,0.00000,43,-11,53,6,72,7,49,8,ok,2,0,0.000,1,-0.72,0.83,9.87,15,0.013,8.29
1.2290,0.07330,0.00524,0.06981,0.00000,0.00000,0.00000,40,-11,55,6,72,6,50,7,ok,2,0,0.000,1,-0.72,0.83,9.87,15,0.025,8.29
1.2323,0.07330,0.00524,0.06981,0.00000,0.00000,0.00000,39,-9,56,6,71,4,51,8,ok,2,0,0.000,1,-0.72,0.83,9.87,15,0.038,8.29
1.2450,0.07330,0.00524,0.06981,0.00000,0.00000,0.00000,36,-8,57,6,69,2,52,7,ok,2,0,0.000,1,-0.72,0.83,9.87,15,0.051,8.29
1.2650,0.07330,0.00524,0.06981,0.00000,0.00000,0.00000,34,-6,57,7,66,2,52,8,ok,2,0,0.000,1,-0.72,0.83,9.87,15,0.063,8.29
1.2698,0.07330,0.00524,0.06981,0.00000,0.00000,0.00000,32,-5,58,7,65,0,53,8,ok,2,0,0.000,1,-0.72,0.83,9.87,15,0.076,8.29
1.2824,0.07330,0.00524,0.06981,0.00000,0.00000,0.00000,29,-3,58,7,64,-2,54,8,ok,2,0,0.000,1,-0.72,0.83,9.87,15,0.088,8.29
1.3050,0.07330,0.00524,0.06981,0.00000,0.00000,0.00000,26,0,59,8,61,-4,55,8,ok,2,0,0.000,1,-0.72,0.83,9.87,15,0.101,8.29
1.3082,0.07330,0.00524,0.06981,0.00000,0.00000,0.00000,25,0,60,10,60,-5,55,7,ok,2,0,0.000,1,-0.72,0.83,9.87,15,0.114,8.29
1.3208,0.07330,0.00524,0.06981,0.00000,0.00000,0.00000,24,1,61,10,58,-5,57,5,ok,2,0,0.000,1,-0.72,0.83,9.87,15,0.127,8.29
1.3410,0.07330,0.00524,0.06981,0.00000,0.00000,0.00000,23,3,61,11,55,-6,57,6,ok,2,0,0.000,1,-0.72,0.83,9.87,15,0.139,8.29
1.3458,0.07330,0.00524,0.06981,0.00000,0.00000,0.00000,22,5,61,11,53,-7,58,7,ok,2,0,0.000,1,-0.72,0.83,9.87,15,0.152,8.29
1.3584,0.07330,0.00524,0.06981,0.00000,0.00000,0.00000,20,8,61,12,51,-6,58,8,ok,2,0,0.000,1,-0.72,0.83,9.87,15,0.164,8.29
1.3810,0.07330,0.00524,0.06981,0.00000,0.00000,0.00000,20,11,62,12,48,-5,59,8,ok,2,0,0.000,1,-0.72,0.83,9.87,15,0.177,8.29
1.3843,0.07330,0.00524,0.06981,0.00000,0.00000,0.00000,21,11,62,13,45,-5,60,9,ok,4,0,0.000,1,-0.72,0.83,9.87,15,0.190,8.29
1.3971,-0.02269,0.04363,0.10297,0.00000,0.00000,0.00000,21,11,61,13,42,-4,59,9,ok,4,0,0.000,1,0.42,-0.26,10.55,16,0.000,8.29
1.4170,-0.02269,0.04363,0.10297,0.00000,0.00000,0.00000,23,9,62,14,40,-5,61,10,ok,4,0,0.000,1,0.42,-0.26,10.55,16,0.013,8.29
1.4220,-0.02269,0.04363,0.10297,0.00000,0.00000,0.00000,24,9,62,15,37,-4,61,11,ok,4,0,0.000,1,0.42,-0.26,10.55,16,0.025,8.29
1.4344,-0.02269,0.04363,0.10297,0.00000,0.00000,0.00000,24,8,62,15,34,-3,62,12,ok,4,0,0.000,1,0.42,-0.26,10.55,16,0.038,8.29
1.4570,-0.02269,0.04363,0.10297,0.00000,0.00000,0.00000,26,7,63,16,31,-2,62,12,ok,4,0,0.000,1,0.42,-0.26,10.55,16,0.050,8.29
1.4602,-0.02269,0.04363,0.10297,0.00000,0.00000,0.00000,26,6,63,17,29,0,63,13,ok,4,0,0.000,1,0.42,-0.26,10.55,16,0.063,8.29
1.4728,-0.02269,0.04363,0.10297,0.00000,0.00000,0.00000,28,5,64,19,27,1,63,14,ok,4,0,0.000,1,0.42,-0.26,10.55,16,0.076,8.29
1.4930,-0.02269,0.04363,0.10297,0.00000,0.00000,0.00000,28,4,64,20,25,5,64,15,ok,4,0,0.000,1,0.42,-0.26,10.55,16,0.088,8.29
1.4978,-0.02269,0.04363,0.10297,0.00000,0.00000,0.00000,29,4,64,21,24,8,63,16,ok,4,0,0.000,1,0.42,-0.26,10.55,16,0.101,8.29
1.5104,-0.02269,0.04363,0.10297,0.00000,0.00000,0.00000,30,3,64,22,23,11,64,17,ok,4,0,0.000,1,0.42,-0.26,10.55,16,0.113,8.29
1.5330,-0.02269,0.04363,0.10297,0.00000,0.00000,0.00000,31,3,64,23,22,14,64,18,ok,4,0,0.000,1,0.42,-0.26,10.55,16,0.126,8.29
1.5365,-0.02269,0.04363,0.10297,0.00000,0.00000,0.00000,32,3,63,26,24,14,64,18,ok,4,0,0.000,1,0.42,-0.26,10.55,16,0.139,8.29
1.5488,-0.02269,0.04363,0.10297,0.00000,0.00000,0.00000,32,2,63,27,24,14,65,19,ok,4,0,0.000,1,0.42,-0.26,10.55,16,0.152,8.29
1.5690,-0.02269,0.04363,0.10297,0.00000,0.00000,0.00000,33,2,64,25,25,11,65,20,ok,4,0,0.000,2,0.42,-0.26,10.55,16,0.164,8.29
1.5738,-0.02269,0.04363,0.10297,0.00000,0.00000,0.00000,35,2,67,22,26,11,65,21,ok,4,0,0.000,2,0.42,-0.26,10.55,16,0.177,8.29
1.5864,-0.02269,0.04363,0.10297,0.00000,0.00000,0.00000,36,1,69,19,28,11,65,22,ok,4,0,0.000,2,0.42,-0.26,10.55,16,0.189,8.29
1.6090,-0.03491,-0.00000,0.11345,0.00000,0.00000,0.00000,37,1,70,15,29,10,65,23,ok,4,0,0.000,2,-0.44,-0.29,10.57,17,0.000,8.29
1.6124,-0.03491,-0.00000,0.11345,0.00000,0.00000,0.00000,38,1,71,12,30,9,65,25,ok,4,0,0.000,2,-0.44,-0.29,10.57,17,0.013,8.29
1.6248,-0.03491,-0.00000,0.11345,0.00000,0.00000,0.00000,40,2,70,12,33,9,65,26,ok,4,0,0.000,2,-0.44,-0.29,10.57,17,0.026,8.29
1.6450,-0.03491,-0.00000,0.11345,0.00000,0.00000,0.00000,40,2,70,8,33,9,64,28,ok,4,0,0.000,2,-0.44,-0.29,10.57,17,0.038,8.29
1.6499,-0.03491,-0.00000,0.11345,0.00000,0.00000,0.00000,42,3,69,5,35,9,64,29,ok,4,0,0.000,2,-0.44,-0.29,10.57,17,0.051,8.29
1.6626,-0.03491,-0.00000,0.11345,0.00000,0.00000,0.00000,43,3,69,3,36,9,64,31,ok,4,0,0.000,2,-0.44,-0.29,10.57,17,0.064,8.29
1.6850,-0.03491,-0.00000,0.11345,0.00000,0.00000,0.00000,44,2,67,0,37,9,64,32,ok,4,0,0.000,2,-0.44,-0.29,10.57,17,0.076,8.29
1.6882,-0.03491,-0.00000,0.11345,0.00000,0.00000,0.00000,45,2,66,-2,38,8,64,34,ok,4,0,0.000,2,-0.44,-0.29,10.57,17,0.089,8.29
1.7008,-0.03491,-0.00000,0.11345,0.00000,0.00000,0.00000,46,3,65,-3,39,8,63,35,ok,4,0,0.000,2,-0.44,-0.29,10.57,17,0.102,8.29
1.7210,-0.03491,-0.00000,0.11345,0.00000,0.00000,0.00000,46,3,62,-4,40,7,64,35,ok,4,0,0.000,2,-0.44,-0.29,10.57,17,0.114,8.29
1.7258,-0.03491,-0.00000,0.11345,0.00000,0.00000,0.00000,47,3,61,-6,42,7,66,34,ok,4,0,0.000,2,-0.44,-0.29,10.57,17,0.127,8.29
1.7384,-0.03491,-0.00000,0.11345,0.00000,0.00000,0.00000,48,3,60,-8,43,7,67,32,ok,4,0,0.000,2,-0.44,-0.29,10.57,17,0.139,8.29
1.7610,-0.03491,-0.00000,0.11345,0.00000,0.00000,0.00000,49,4,58,-8,43,7,69,27,ok,4,0,0.000,2,-0.44,-0.29,10.57,17,0.152,8.29
1.7642,-0.03491,-0.00000,0.11345,0.00000,0.00000,0.00000,50,3,56,-9,44,7,71,23,ok,4,0,0.000,2,-0.44,-0.29,10.57,17,0.165,8.29
1.7768,-0.03491,-0.00000,0.11345,0.00000,0.00000,0.00000,51,3,54,-9,45,7,72,20,ok,4,0,0.001,2,-0.44,-0.29,10.57,17,0.178,8.29
1.7970,-0.03491,-0.00000,0.11345,0.00000,0.00000,0.00000,51,5,51,-10,47,7,72,20,ok,4,0,0.001,2,-0.44,-0.29,10.57,17,0.190,8.29
1.8020,-0.07679,0.00349,0.15708,0.00000,0.00000,0.00000,52,6,49,-10,47,7,73,18,ok,4,0,0.001,2,-0.03,-0.89,9.41,18,0.000,8.29
1.8143,-0.07679,0.00349,0.15708,0.00000,0.00000,0.00000,52,6,46,-10,48,7,73,15,ok,4,0,0.001,2,-0.03,-0.89,9.41,18,0.013,8.29
1.8370,-0.07679,0.00349,0.15708,0.00000,0.00000,0.00000,53,6,45,-10,49,8,72,12,ok,4,0,0.001,2,-0.03,-0.89,9.41,18,0.025,8.29
1.8403,-0.07679,0.00349,0.15708,0.00000,0.00000,0.00000,53,7,42,-10,49,7,72,10,ok,4,0,0.001,2,-0.03,-0.89,9.41,18,0.038,8.29
1.8530,-0.07679,0.00349,0.15708,0.00000,0.00000,0.00000,55,7,39,-10,50,8,71,7,ok,4,0,0.001,2,-0.03,-0.89,9.41,18,0.051,8.29
1.8730,-0.07679,0.00349,0.15708,0.00000,0.00000,0.00000,55,7,37,-9,51,7,71,5,ok,4,0,0.001,2,-0.03,-0.89,9.41,18,0.064,8.29
1.8778,-0.07679,0.00349,0.15708,0.00000,0.00000,0.00000,56,7,33,-8,52,7,70,4,ok,2,0,0.001,2,-0.03,-0.89,9.41,18,0.076,8.29
1.8906,-0.07679,0.00349,0.15708,0.00000,0.00000,0.00000,56,8,31,-7,52,8,68,2,ok,2,0,0.001,2,-0.03,-0.89,9.41,18,0.089,8.29
1.9130,-0.07679,0.00349,0.15708,0.00000,0.00000,0.00000,56,8,27,-6,53,8,66,1,ok,2,0,0.001,2,-0.03,-0.89,9.41,18,0.101,8.29
1.9162,-0.07679,0.00349,0.15708,0.00000,0.00000,0.00000,57,9,24,-4,54,8,65,0,ok,2,0,0.001,2,-0.03,-0.89,9.41,18,0.114,8.29
1.9288,-0.07679,0.00349,0.15708,0.00000,0.00000,0.00000,58,10,21,-2,55,8,64,-2,ok,2,0,0.001,2,-0.03,-0.89,9.41,18,0.127,8.29
1.9490,-0.07679,0.00349,0.15708,0.00000,0.00000,0.00000,58,10,19,-1,57,6,62,-3,ok,2,0,0.001,2,-0.03,-0.89,9.41,18,0.140,8.29
1.9538,-0.07679,0.00349,0.15708,0.00000,0.00000,0.00000,59,10,18,0,58,7,60,-5,ok,2,0,0.001,2,-0.03,-0.89,9.41,18,0.152,8.29
1.9665,-0.07679,0.00349,0.15708,0.00000,0.00000,0.00000,59,11,16,3,58,8,58,-5,ok,2,0,0.001,2,-0.03,-0.89,9.41,18,0.165,8.29
1.9890,-0.07679,0.00349,0.15708,0.00000,0.00000,0.00000,60,11,15,6,59,8,55,-6,ok,2,0,0.001,2,-0.03,-0.89,9.41,18,0.177,8.29
1.9923,-0.07679,0.00349,0.15708,0.00000,0.00000,0.00000,60,12,13,9,59,9,54,-6,ok,2,0,0.001,2,-0.03,-0.89,9.41,18,0.190,8.29
2.0051,0.04887,0.03142,0.14835,0.00000,0.00000,0.00000,60,12,13,11,60,10,50,-5,ok,2,0,0.001,2,1.08,0.58,9.67,19,0.000,8.29
2.0250,0.04887,0.03142,0.14835,0.00000,0.00000,0.00000,60,13,14,12,60,10,47,-5,ok,2,0,0.001,2,1.08,0.58,9.67,19,0.013,8.29
2.0300,0.04887,0.03142,0.14835,0.00000,0.00000,0.00000,59,14,15,11,61,11,45,-5,ok,2,0,0.001,2,1.08,0.58,9.67,19,0.025,8.29
2.0424,0.04887,0.03142,0.14835,0.00000,0.00000,0.00000,60,14,17,10,61,11,42,-4,ok,2,0,0.001,2,1.08,0.58,9.67,19,0.038,8.29
2.0650,0.04887,0.03142,0.14835,0.00000,0.00000,0.00000,60,16,19,9,62,12,40,-5,ok,2,0,0.001,2,1.08,0.58,9.67,19,0.050,8.29
2.0682,0.04887,0.03142,0.14835,0.00000,0.00000,0.00000,60,16,19,8,61,13,36,-4,ok,2,0,0.001,2,1.08,0.58,9.67,19,0.063,8.29
2.0808,0.04887,0.03142,0.14835,0.00000,0.00000,0.00000,60,17,21,7,62,13,34,-3,ok,2,0,0.001,2,1.08,0.58,9.67,19,0.076,8.29
2.1010,0.04887,0.03142,0.14835,0.00000,0.00000,0.00000,60,18,21,7,62,14,31,-2,ok,2,0,0.001,2,1.08,0.58,9.67,19,0.088,8.29
2.1058,0.04887,0.03142,0.14835,0.00000,0.00000,0.00000,61,20,23,5,63,14,30,-1,ok,2,0,0.001,2,1.08,0.58,9.67,19,0.101,8.29
2.1183,0.04887,0.03142,0.14835,0.00000,0.00000,0.00000,62,21,24,5,62,16,27,1,ok,2,0,0.001,2,1.08,0.58,9.67,19,0.114,8.29
2.1410,0.04887,0.03142,0.14835,0.00000,0.00000,0.00000,62,22,24,4,62,17,25,4,ok,2,0,0.001,2,1.08,0.58,9.67,19,0.126,8.29
2.1442,0.04887,0.03142,0.14835,0.00000,0.00000,0.00000,62,22,25,4,63,17,24,6,ok,2,0,0.001,2,1.08,0.58,9.67,19,0.139,8.29
2.1568,0.04887,0.03142,0.14835,0.00000,0.00000,0.00000,62,23,26,3,64,18,23,10,ok,2,0,0.001,2,1.08,0.58,9.67,19,0.152,8.29
2.1770,0.04887,0.03142,0.14835,0.00000,0.00000,0.00000,61,26,27,3,64,19,22,12,ok,2,0,0.001,2,1.08,0.58,9.67,19,0.165,8.29
2.1818,0.04887,0.03142,0.14835,0.00000,0.00000,0.00000,61,26,28,2,64,20,24,11,ok,2,0,0.001,2,1.08,0.58,9.67,19,0.177,8.29
2.1943,0.04887,0.03142,0.14835,0.00000,0.00000,0.00000,62,25,29,2,64,21,25,11,ok,2,0,0.001,2,1.08,0.58,9.67,19,0.190,8.29
2.2170,-0.00524,0.04538,0.20420,0.00000,0.00000,0.00000,64,21,30,2,65,22,25,10,ok,2,0,0.001,2,0.89,-1.50,10.43,20,0.000,8.29
2.2202,-0.00524,0.04538,0.20420,0.00000,0.00000,0.00000,66,18,31,1,64,23,27,9,ok,2,0,0.001,2,0.89,-1.50,10.43,20,0.013,8.29
2.2330,-0.00524,0.04538,0.20420,0.00000,0.00000,0.00000,66,13,33,2,64,25,28,10,ok,2,0,0.001,2,0.89,-1.50,10.43,20,0.026,8.29
2.2530,-0.00524,0.04538,0.20420,0.00000,0.00000,0.00000,67,11,34,2,64,26,29,9,ok,2,0,0.001,2,0.89,-1.50,10.43,20,0.038,8.29
2.2578,-0.00524,0.04538,0.20420,0.00000,0.00000,0.00000,66,11,36,2,63,28,30,8,ok,2,0,0.001,2,0.89,-1.50,10.43,20,0.051,8.29
2.2704,-0.00524,0.04538,0.20420,0.00000,0.00000,0.00000,66,7,37,2,63,29,32,8,ok,2,0,0.001,2,0.89,-1.50,10.43,20,0.064,8.29
2.2930,-0.00524,0.04538,0.20420,0.00000,0.00000,0.00000,66,4,39,3,64,31,33,9,ok,2,0,0.001,2,0.89,-1.50,10.43,20,0.076,8.29
2.2964,-0.00524,0.04538,0.20420,0.00000,0.00000,0.00000,65,2,40,3,64,32,35,8,ok,2,0,0.001,2,0.89,-1.50,10.43,20,0.089,8.29
2.3089,-0.00524,0.04538,0.20420,0.00000,0.00000,0.00000,64,-1,42,3,63,34,36,8,ok,2,0,0.001,2,0.89,-1.50,10.43,20,0.102,8.29
2.3290,-0.00524,0.04538,0.20420,0.00000,0.00000,0.00000,64,-3,43,2,63,35,37,8,ok,2,0,0.001,2,0.89,-1.50,10.43,20,0.115,8.29
2.3338,-0.00524,0.04538,0.20420,0.00000,0.00000,0.00000,62,-4,44,3,64,36,38,8,ok,2,0,0.001,2,0.89,-1.50,10.43,20,0.127,8.29
2.3463,-0.00524,0.04538,0.20420,0.00000,0.00000,0.00000,60,-5,44,3,65,35,39,7,ok,2,0,0.001,2,0.89,-1.50,10.43,20,0.140,8.29
2.3690,-0.00524,0.04538,0.20420,0.00000,0.00000,0.00000,60,-6,45,3,67,33,41,7,ok,2,0,0.001,2,0.89,-1.50,10.43,20,0.152,8.29
2.3722,-0.00524,0.04538,0.20420,0.00000,0.00000,0.00000,59,-8,47,3,69,29,42,7,ok,2,0,0.001,2,0.89,-1.50,10.43,20,0.165,8.29
2.3850,-0.00524,0.04538,0.20420,0.00000,0.00000,0.00000,57,-9,48,4,71,24,43,7,ok,2,0,0.001,2,0.89,-1.50,10.43,20,0.178,8.29
2.4050,-0.00524,0.04538,0.20420,0.00000,0.00000,0.00000,55,-10,49,4,73,22,44,7,ok,2,0,0.001,2,0.89,-1.50,10.43,20,0.191,8.29
2.4100,0.04887,0.03840,0.20595,0.00000,0.00000,0.00000,53,-10,50,3,73,21,45,7,ok,2,0,0.001,2,-0.24,-0.16,10.06,21,0.000,8.29
2.4224,0.04887,0.03840,0.20595,0.00000,0.00000,0.00000,52,-11,50,5,74,19,46,7,ok,2,0,0.001,2,-0.24,-0.16,10.06,21,0.013,8.29
2.4450,0.04887,0.03840,0.20595,0.00000,0.00000,0.00000,49,-11,51,6,74,15,47,7,ok,2,0,0.001,2,-0.24,-0.16,10.06,21,0.025,8.29
2.4484,0.04887,0.03840,0.20595,0.00000,0.00000,0.00000,48,-11,52,6,73,12,48,7,ok,2,0,0.001,2,-0.24,-0.16,10.06,21,0.038,8.29
2.4608,0.04887,0.03840,0.20595,0.00000,0.00000,0.00000,45,-10,53,6,73,10,49,8,ok,2,0,0.001,2,-0.24,-0.16,10.06,21,0.051,8.29
2.4810,0.04887,0.03840,0.20595,0.00000,0.00000,0.00000,43,-10,53,7,72,7,49,8,ok,2,0,0.001,2,-0.24,-0.16,10.06,21,0.064,8.29
2.4858,0.04887,0.03840,0.20595,0.00000,0.00000,0.00000,41,-11,56,7,72,5,50,7,ok,2,0,0.001,2,-0.24,-0.16,10.06,21,0.076,8.29
2.4983,0.04887,0.03840,0.20595,0.00000,0.00000,0.00000,39,-9,56,7,71,4,51,8,ok,2,0,0.001,2,-0.24,-0.16,10.06,21,0.089,8.29
2.5210,0.04887,0.03840,0.20595,0.00000,0.00000,0.00000,36,-8,57,7,69,1,52,7,ok,2,0,0.001,2,-0.24,-0.16,10.06,21,0.101,8.29
2.5244,0.04887,0.03840,0.20595,0.00000,0.00000,0.00000,34,-7,57,8,66,2,52,8,ok,2,0,0.001,2,-0.24,-0.16,10.06,21,0.114,8.29
2.5368,0.04887,0.03840,0.20595,0.00000,0.00000,0.00000,31,-6,58,7,64,0,53,8,ok,2,0,0.001,2,-0.24,-0.16,10.06,21,0.127,8.29
2.5570,0.04887,0.03840,0.20595,0.00000,0.00000,0.00000,29,-4,58,8,63,-2,54,8,ok,2,0,0.001,2,-0.24,-0.16,10.06,21,0.140,8.29
2.5618,0.04887,0.03840,0.20595,0.00000,0.00000,0.00000,26,-2,59,9,61,-4,55,8,ok,2,0,0.001,3,-0.24,-0.16,10.06,21,0.152,8.29
2.5744,0.04887,0.03840,0.20595,0.00000,0.00000,0.00000,25,-2,60,11,60,-5,55,8,ok,2,0,0.001,3,-0.24,-0.16,10.06,21,0.165,8.29
2.5970,0.04887,0.03840,0.20595,0.00000,0.00000,0.00000,24,-1,61,10,58,-5,57,6,ok,2,0,0.001,3,-0.24,-0.16,10.06,21,0.177,8.29
2.6005,0.04887,0.03840,0.20595,0.00000,0.00000,0.00000,23,2,61,11,55,-6,57,7,ok,2,0,0.001,3,-0.24,-0.16,10.06,21,0.190,8.29
2.6131,0.05061,0.01047,0.23736,0.00000,0.00000,0.00000,21,5,61,11,54,-7,58,7,ok,2,0,0.001,3,-0.18,-0.65,9.95,22,0.000,8.29
2.6330,0.05061,0.01047,0.23736,0.00000,0.00000,0.00000,20,8,61,12,51,-6,59,8,ok,2,0,0.001,3,-0.18,-0.65,9.95,22,0.012,8.29
2.6378,0.05061,0.01047,0.23736,0.00000,0.00000,0.00000,20,10,61,12,48,-5,59,8,ok,2,0,0.001,3,-0.18,-0.65,9.95,22,0.025,8.29
2.6504,0.05061,0.01047,0.23736,0.00000,0.00000,0.00000,21,11,62,13,46,-5,60,9,ok,2,0,0.001,3,-0.18,-0.65,9.95,22,0.038,8.29
2.6730,0.05061,0.01047,0.23736,0.00000,0.00000,0.00000,21,11,61,13,43,-5,60,9,ok,2,0,0.001,3,-0.18,-0.65,9.95,22,0.050,8.29
2.6763,0.05061,0.01047,0.23736,0.00000,0.00000,0.00000,23,10,62,14,40,-4,61,10,ok,2,0,0.001,3,-0.18,-0.65,9.95,22,0.063,8.29
2.6888,0.05061,0.01047,0.23736,0.00000,0.00000,0.00000,24,9,62,14,37,-3,61,11,ok,2,0,0.001,3,-0.18,-0.65,9.95,22,0.076,8.29
2.7090,0.05061,0.01047,0.23736,0.00000,0.00000,0.00000,24,8,63,15,34,-3,61,12,ok,4,0,0.001,3,-0.18,-0.65,9.95,22,0.089,8.29
2.7138,0.05061,0.01047,0.23736,0.00000,0.00000,0.00000,26,7,63,15,31,-1,61,12,ok,4,0,0.001,3,-0.18,-0.65,9.95,22,0.101,8.29
2.7264,0.05061,0.01047,0.23736,0.00000,0.00000,0.00000,27,7,63,17,29,0,62,13,ok,4,0,0.001,3,-0.18,-0.65,9.95,22,0.114,8.29
2.7490,0.05061,0.01047,0.23736,0.00000,0.00000,0.00000,28,6,64,18,28,2,62,14,ok,4,0,0.001,3,-0.18,-0.65,9.95,22,0.126,8.29
2.7522,0.05061,0.01047,0.23736,0.00000,0.00000,0.00000,29,5,64,19,25,5,63,15,ok,4,0,0.001,3,-0.18,-0.65,9.95,22,0.139,8.29
2.7648,0.05061,0.01047,0.23736,0.00000,0.00000,0.00000,29,5,64,20,24,8,63,16,ok,4,0,0.001,3,-0.18,-0.65,9.95,22,0.152,8.29
2.7850,0.05061,0.01047,0.23736,0.00000,0.00000,0.00000,31,4,64,21,23,11,63,17,ok,4,0,0.001,3,-0.18,-0.65,9.95,22,0.164,8.29
2.7898,0.05061,0.01047,0.23736,0.00000,0.00000,0.00000,32,4,64,22,22,14,64,17,ok,4,0,0.001,3,-0.18,-0.65,9.95,22,0.177,8.29
2.8023,0.05061,0.01047,0.23736,0.00000,0.00000,0.00000,32,3,63,25,24,14,64,18,ok,4,0,0.001,3,-0.18,-0.65,9.95,22,0.190,8.29
2.8250,-0.01222,0.05760,0.21991,0.00000,0.00000,0.00000,32,2,63,27,24,14,64,19,ok,4,0,0.001,3,1.23,0.71,10.01,23,0.000,8.29
2.8285,-0.01222,0.05760,0.21991,0.00000,0.00000,0.00000,34,2,65,26,25,11,64,20,ok,4,0,0.001,3,1.23,0.71,10.01,23,0.013,8.29
2.8408,-0.01222,0.05760,0.21991,0.00000,0.00000,0.00000,35,2,67,23,26,11,65,21,ok,4,0,0.001,3,1.23,0.71,10.01,23,0.026,8.29
2.8610,-0.01222,0.05760,0.21991,0.00000,0.00000,0.00000,36,1,69,19,27,11,65,22,ok,4,0,0.001,3,1.23,0.71,10.01,23,0.039,8.29
2.8660,-0.01222,0.05760,0.21991,0.00000,0.00000,0.00000,37,1,70,15,29,10,64,23,ok,4,0,0.001,3,1.23,0.71,10.01,23,0.051,8.29
2.8784,-0.01222,0.05760,0.21991,0.00000,0.00000,0.00000,38,1,71,13,30,9,65,25,ok,4,0,0.001,3,1.23,0.71,10.01,23,0.064,8.29
2.9010,-0.01222,0.05760,0.21991,0.00000,0.00000,0.00000,40,1,70,12,32,9,65,26,ok,4,0,0.001,3,1.23,0.71,10.01,23,0.076,8.29
2.9042,-0.01222,0.05760,0.21991,0.00000,0.00000,0.00000,40,1,70,9,33,9,64,28,ok,4,0,0.001,3,1.23,0.71,10.01,23,0.089,8.29
2.9168,-0.01222,0.05760,0.21991,0.00000,0.00000,0.00000,41,2,69,6,35,9,64,30,ok,4,0,0.001,3,1.23,0.71,10.01,23,0.102,8.29
2.9370,-0.01222,0.05760,0.21991,0.00000,0.00000,0.00000,43,2,69,3,36,9,64,31,ok,4,0,0.001,3,1.23,0.71,10.01,23,0.115,8.29
2.9418,-0.01222,0.05760,0.21991,0.00000,0.00000,0.00000,44,2,67,1,37,9,64,32,ok,4,0,0.001,3,1.23,0.71,10.01,23,0.127,8.29
2.9544,-0.01222,0.05760,0.21991,0.00000,0.00000,0.00000,44,2,66,-1,38,8,64,34,ok,4,0,0.001,3,1.23,0.71,10.01,23,0.140,8.29
2.9770,-0.01222,0.05760,0.21991,0.00000,0.00000,0.00000,45,2,64,-3,39,8,63,35,ok,4,0,0.001,3,1.23,0.71,10.01,23,0.152,8.29
2.9804,-0.01222,0.05760,0.21991,0.00000,0.00000,0.00000,46,2,62,-4,40,7,65,35,ok,4,0,0.001,3,1.23,0.71,10.01,23,0.165,8.29
2.9928,-0.01222,0.05760,0.21991,0.00000,0.00000,0.00000,47,3,61,-6,42,7,66,34,ok,4,0,0.001,3,1.23,0.71,10.01,23,0.178,8.29
3.0130,-0.01222,0.05760,0.21991,0.00000,0.00000,0.00000,48,3,60,-8,43,7,68,32,ok,4,0,0.001,3,1.23,0.71,10.01,23,0.191,8.29
3.0180,-0.01222,0.05760,0.21991,0.00000,0.00000,0.00000,49,3,58,-8,44,7,70,27,ok,4,0,0.001,3,1.23,0.71,10.01,23,0.203,8.29
3.0307,-0.13090,0.05760,0.28449,0.00000,0.00000,0.00000,50,3,55,-9,45,7,71,23,ok,4,0,0.001,3,0.28,-1.37,10.31,24,0.000,8.29
3.0530,-0.13090,0.05760,0.28449,0.00000,0.00000,0.00000,50,3,53,-9,46,7,73,20,ok,4,0,0.001,3,0.28,-1.37,10.31,24,0.013,8.29
3.0562,-0.13090,0.05760,0.28449,0.00000,0.00000,0.00000,51,5,51,-10,47,7,73,20,ok,4,0,0.001,3,0.28,-1.37,10.31,24,0.026,8.29
3.0690,-0.13090,0.05760,0.28449,0.00000,0.00000,0.00000,52,5,49,-10,47,7,73,18,ok,4,0,0.001,3,0.28,-1.37,10.31,24,0.038,8.29
3.0890,-0.13090,0.05760,0.28449,0.00000,0.00000,0.00000,52,5,46,-10,48,7,73,14,ok,2,0,0.001,3,0.28,-1.37,10.31,24,0.051,8.29
3.0938,-0.13090,0.05760,0.28449,0.00000,0.00000,0.00000,52,5,44,-9,49,7,73,12,ok,2,0,0.001,3,0.28,-1.37,10.31,24,0.063,8.29
3.1063,-0.13090,0.05760,0.28449,0.00000,0.00000,0.00000,52,6,41,-9,49,7,72,10,ok,2,0,0.001,3,0.28,-1.37,10.31,24,0.076,8.29
3.1290,-0.13090,0.05760,0.28449,0.00000,0.00000,0.00000,55,6,39,-10,50,8,71,7,ok,2,0,0.001,3,0.28,-1.37,10.31,24,0.088,8.29
3.1322,-0.13090,0.05760,0.28449,0.00000,0.00000,0.00000,55,6,36,-9,52,7,71,5,ok,2,0,0.001,3,0.28,-1.37,10.31,24,0.102,8.29
3.1450,-0.13090,0.05760,0.28449,0.00000,0.00000,0.00000,56,6,33,-8,52,7,70,4,ok,2,0,0.001,3,0.28,-1.37,10.31,24,0.114,8.29
3.1650,-0.13090,0.05760,0.28449,0.00000,0.00000,0.00000,56,7,30,-7,53,8,68,2,ok,2,0,0.001,3,0.28,-1.37,10.31,24,0.127,8.29
3.1698,-0.13090,0.05760,0.28449,0.00000,0.00000,0.00000,56,8,27,-6,54,8,66,1,ok,2,0,0.001,3,0.28,-1.37,10.31,24,0.139,8.29
3.1824,-0.13090,0.05760,0.28449,0.00000,0.00000,0.00000,57,9,24,-5,55,8,65,0,ok,2,0,0.001,3,0.28,-1.37,10.31,24,0.152,8.29
3.2050,-0.13090,0.05760,0.28449,0.00000,0.00000,0.00000,58,10,20,-2,55,8,64,-2,ok,2,0,0.001,3,0.28,-1.37,10.31,24,0.164,8.29
3.2082,-0.13090,0.05760,0.28449,0.00000,0.00000,0.00000,58,10,19,-1,58,6,62,-3,ok,2,0,0.001,3,0.28,-1.37,10.31,24,0.178,8.29
3.2209,-0.13090,0.05760,0.28449,0.00000,0.00000,0.00000,59,10,18,0,58,7,60,-5,ok,2,0,0.001,3,0.28,-1.37,10.31,24,0.190,8.29
3.2410,-0.12566,0.10472,0.30892,0.00000,0.00000,0.00000,59,10,16,3,59,8,58,-5,ok,2,0,0.001,3,1.92,-0.81,10.64,25,0.000,8.29
3.2458,-0.12566,0.10472,0.30892,0.00000,0.00000,0.00000,59,11,14,6,59,8,56,-6,ok,2,0,0.001,3,1.92,-0.81,10.64,25,0.012,8.29
3.2584,-0.12566,0.10472,0.30892,0.00000,0.00000,0.00000,59,12,13,9,59,9,54,-6,ok,2,0,0.001,3,1.92,-0.81,10.64,25,0.025,8.29
3.2810,-0.12566,0.10472,0.30892,0.00000,0.00000,0.00000,60,12,12,12,60,9,51,-5,ok,2,0,0.001,3,1.92,-0.81,10.64,25,0.037,8.29
3.2842,-0.12566,0.10472,0.30892,0.00000,0.00000,0.00000,60,13,14,12,60,9,48,-5,ok,2,0,0.001,3,1.92,-0.81,10.64,25,0.051,8.29
3.2968,-0.12566,0.10472,0.30892,0.00000,0.00000,0.00000,59,13,14,11,61,10,46,-5,ok,2,0,0.001,3,1.92,-0.81,10.64,25,0.064,8.29
3.3170,-0.12566,0.10472,0.30892,0.00000,0.00000,0.00000,60,13,16,10,61,11,43,-4,ok,2,0,0.001,3,1.92,-0.81,10.64,25,0.076,8.29
3.3218,-0.12566,0.10472,0.30892,0.00000,0.00000,0.00000,60,14,18,9,61,12,41,-4,ok,2,0,0.001,3,1.92,-0.81,10.64,25,0.089,8.29
3.3346,-0.12566,0.10472,0.30892,0.00000,0.00000,0.00000,60,15,18,9,61,12,38,-3,ok,2,0,0.001,3,1.92,-0.81,10.64,25,0.101,8.29
3.3570,-0.12566,0.10472,0.30892,0.00000,0.00000,0.00000,60,16,20,8,62,13,35,-3,ok,2,0,0.001,3,1.92,-0.81,10.64,25,0.114,8.29
3.3603,-0.12566,0.10472,0.30892,0.00000,0.00000,0.00000,60,17,21,7,62,14,31,-1,ok,2,0,0.001,3,1.92,-0.81,10.64,25,0.127,8.29
3.3728,-0.12566,0.10472,0.30892,0.00000,0.00000,0.00000,61,18,22,6,63,14,30,0,ok,2,0,0.001,3,1.92,-0.81,10.64,25,0.140,8.29
3.3930,-0.12566,0.10472,0.30892,0.00000,0.00000,0.00000,61,20,23,5,63,15,28,1,ok,2,0,0.001,3,1.92,-0.81,10.64,25,0.152,8.29
3.3980,-0.12566,0.10472,0.30892,0.00000,0.00000,0.00000,61,21,23,5,63,16,26,5,ok,2,0,0.001,3,1.92,-0.81,10.64,25,0.164,8.29
3.4104,-0.12566,0.10472,0.30892,0.00000,0.00000,0.00000,61,22,25,4,63,17,25,7,ok,2,0,0.001,3,1.92,-0.81,10.64,25,0.177,8.29
3.4330,-0.12566,0.10472,0.30892,0.00000,0.00000,0.00000,61,23,25,3,64,17,24,11,ok,2,0,0.001,3,1.92,-0.81,10.64,25,0.190,8.29
3.4365,-0.04887,0.07679,0.35779,0.00000,0.00000,0.00000,60,26,26,3,64,18,23,13,ok,2,0,0.001,3,0.41,-0.88,8.74,26,0.000,8.29
3.4488,-0.04887,0.07679,0.35779,0.00000,0.00000,0.00000,60,26,27,2,65,20,25,12,ok,2,0,0.001,3,0.41,-0.88,8.74,26,0.013,8.29
3.4690,-0.04887,0.07679,0.35779,0.00000,0.00000,0.00000,61,25,28,1,65,21,25,11,ok,2,0,0.001,3,0.41,-0.88,8.74,26,0.025,8.29
3.4739,-0.04887,0.07679,0.35779,0.00000,0.00000,0.00000,64,22,29,1,65,22,26,10,ok,2,0,0.001,3,0.41,-0.88,8.74,26,0.038,8.29
3.4867,-0.04887,0.07679,0.35779,0.00000,0.00000,0.00000,65,18,30,1,65,23,27,9,ok,2,0,0.001,3,0.41,-0.88,8.74,26,0.050,8.29
3.5090,-0.04887,0.07679,0.35779,0.00000,0.00000,0.00000,66,14,32,1,65,25,28,10,ok,2,0,0.001,3,0.41,-0.88,8.74,26,0.063,8.29
3.5123,-0.04887,0.07679,0.35779,0.00000,0.00000,0.00000,66,12,33,1,65,26,29,9,ok,2,0,0.001,3,0.41,-0.88,8.74,26,0.076,8.29
3.5249,-0.04887,0.07679,0.35779,0.00000,0.00000,0.00000,66,11,35,1,64,28,30,9,ok,2,0,0.001,3,0.41,-0.88,8.74,26,0.089,8.29
3.5450,-0.04887,0.07679,0.35779,0.00000,0.00000,0.00000,66,8,36,1,64,29,33,9,ok,2,0,0.001,3,0.41,-0.88,8.74,26,0.101,8.29
3.5500,-0.04887,0.07679,0.35779,0.00000,0.00000,0.00000,65,6,38,2,64,30,33,9,ok,2,0,0.001,3,0.41,-0.88,8.74,26,0.114,8.29
3.5624,-0.04887,0.07679,0.35779,0.00000,0.00000,0.00000,65,3,39,2,64,32,35,8,ok,2,0,0.001,3,0.41,-0.88,8.74,26,0.126,8.29
3.5850,-0.04887,0.07679,0.35779,0.00000,0.00000,0.00000,64,0,41,2,64,34,36,8,ok,2,0,0.001,4,0.41,-0.88,8.74,26,0.139,8.29
3.5882,-0.04887,0.07679,0.35779,0.00000,0.00000,0.00000,64,-2,42,2,64,35,37,8,ok,2,0,0.001,4,0.41,-0.88,8.74,26,0.152,8.29
3.6008,-0.04887,0.07679,0.35779,0.00000,0.00000,0.00000,62,-4,43,2,64,35,38,8,ok,2,0,0.001,4,0.41,-0.88,8.74,26,0.165,8.29
3.6210,-0.04887,0.07679,0.35779,0.00000,0.00000,0.00000,60,-5,44,2,66,35,39,8,ok,2,0,0.001,4,0.41,-0.88,8.74,26,0.177,8.29
3.6259,-0.04887,0.07679,0.35779,0.00000,0.00000,0.00000,60,-6,45,3,67,33,41,7,ok,2,0,0.001,4,0.41,-0.88,8.74,26,0.190,8.29
3.6386,0.05585,0.05934,0.36652,0.00000,0.00000,0.00000,59,-8,46,3,70,29,42,7,ok,2,0,0.001,4,1.02,0.02,10.51,27,0.000,8.29
3.6610,0.05585,0.05934,0.36652,0.00000,0.00000,0.00000,56,-9,47,4,72,25,43,7,ok,2,0,0.001,4,1.02,0.02,10.51,27,0.013,8.29
3.6642,0.05585,0.05934,0.36652,0.00000,0.00000,0.00000,55,-10,49,3,73,22,43,7,ok,2,0,0.001,4,1.02,0.02,10.51,27,0.026,8.29
3.6770,0.05585,0.05934,0.36652,0.00000,0.00000,0.00000,53,-10,49,3,74,21,44,7,ok,2,0,0.001,4,1.02,0.02,10.51,27,0.039,8.29
3.6970,0.05585,0.05934,0.36652,0.00000,0.00000,0.00000,51,-11,49,5,74,19,46,7,ok,2,0,0.001,4,1.02,0.02,10.51,27,0.051,8.29
3.7018,0.05585,0.05934,0.36652,0.00000,0.00000,0.00000,49,-10,51,6,74,15,47,7,ok,2,0,0.001,4,1.02,0.02,10.51,27,0.064,8.29
3.7144,0.05585,0.05934,0.36652,0.00000,0.00000,0.00000,48,-10,52,5,73,12,48,7,ok,2,0,0.001,4,1.02,0.02,10.51,27,0.076,8.29
3.7370,0.05585,0.05934,0.36652,0.00000,0.00000,0.00000,45,-10,53,5,73,10,49,8,ok,2,0,0.001,4,1.02,0.02,10.51,27,0.089,8.29
3.7402,0.05585,0.05934,0.36652,0.00000,0.00000,0.00000,43,-10,53,6,72,7,49,8,ok,2,0,0.001,4,1.02,0.02,10.51,27,0.102,8.29
3.7528,0.05585,0.05934,0.36652,0.00000,0.00000,0.00000,40,-10,55,6,72,5,50,7,ok,2,0,0.001,4,1.02,0.02,10.51,27,0.115,8.29
3.7730,0.05585,0.05934,0.36652,0.00000,0.00000,0.00000,39,-9,55,6,71,4,51,8,ok,2,0,0.001,4,1.02,0.02,10.51,27,0.127,8.29
3.7778,0.05585,0.05934,0.36652,0.00000,0.00000,0.00000,36,-9,56,7,69,1,52,7,ok,2,0,0.001,4,1.02,0.02,10.51,27,0.140,8.29
3.7904,0.05585,0.05934,0.36652,0.00000,0.00000,0.00000,34,-8,57,8,66,2,52,8,ok,2,0,0.001,4,1.02,0.02,10.51,27,0.152,8.29
3.8130,0.05585,0.05934,0.36652,0.00000,0.00000,0.00000,31,-6,57,8,65,-1,53,8,ok,2,0,0.001,4,1.02,0.02,10.51,27,0.165,8.29
3.8162,0.05585,0.05934,0.36652,0.00000,0.00000,0.00000,28,-4,58,8,64,-2,54,8,ok,2,0,0.001,4,1.02,0.02,10.51,27,0.178,8.29
3.8288,0.05585,0.05934,0.36652,0.00000,0.00000,0.00000,26,-2,59,9,62,-4,55,8,ok,2,0,0.001,4,1.02,0.02,10.51,27,0.191,8.29
3.8490,-0.00873,0.00175,0.39270,0.00000,0.00000,0.00000,25,-2,60,11,61,-5,55,8,ok,2,0,0.001,4,0.44,-0.22,9.96,28,0.000,8.29
3.8540,-0.00873,0.00175,0.39270,0.00000,0.00000,0.00000,24,-1,60,10,59,-6,57,6,ok,2,0,0.001,4,0.44,-0.22,9.96,28,0.012,8.29
3.8664,-0.00873,0.00175,0.39270,0.00000,0.00000,0.00000,23,1,61,11,56,-6,57,7,ok,2,0,0.001,4,0.44,-0.22,9.96,28,0.025,8.29
3.8890,-0.00873,0.00175,0.39270,0.00000,0.00000,0.00000,21,4,61,11,54,-7,58,7,ok,2,0,0.001,4,0.44,-0.22,9.96,28,0.038,8.29
3.8923,-0.00873,0.00175,0.39270,0.00000,0.00000,0.00000,20,8,61,12,51,-6,59,8,ok,2,0,0.001,4,0.44,-0.22,9.96,28,0.051,8.29
3.9048,-0.00873,0.00175,0.39270,0.00000,0.00000,0.00000,20,10,61,12,48,-6,59,8,ok,2,0,0.001,4,0.44,-0.22,9.96,28,0.064,8.29
3.9250,-0.00873,0.00175,0.39270,0.00000,0.00000,0.00000,21,11,62,13,46,-6,60,9,ok,2,0,0.001,4,0.44,-0.22,9.96,28,0.076,8.29
3.9300,-0.00873,0.00175,0.39270,0.00000,0.00000,0.00000,21,10,62,14,42,-5,60,10,ok,2,0,0.001,4,0.44,-0.22,9.96,28,0.089,8.29
3.9424,-0.00873,0.00175,0.39270,0.00000,0.00000,0.00000,23,9,62,14,40,-5,61,11,ok,2,0,0.001,4,0.44,-0.22,9.96,28,0.101,8.29
3.9650,-0.00873,0.00175,0.39270,0.00000,0.00000,0.00000,24,8,62,14,37,-4,61,11,ok,2,0,0.001,4,0.44,-0.22,9.96,28,0.114,8.29
3.9682,-0.00873,0.00175,0.39270,0.00000,0.00000,0.00000,24,8,62,15,34,-3,61,13,ok,2,0,0.001,4,0.44,-0.22,9.96,28,0.127,8.29
3.9809,-0.00873,0.00175,0.39270,0.00000,0.00000,0.00000,26,7,63,16,31,-2,61,13,ok,2,0,0.001,4,0.44,-0.22,9.96,28,0.140,8.29
4.0010,-0.00873,0.00175,0.39270,0.00000,0.00000,0.00000,27,7,63,17,29,0,62,14,ok,2,0,0.001,4,0.44,-0.22,9.96,28,0.152,8.29
4.0059,-0.00873,0.00175,0.39270,0.00000,0.00000,0.00000,28,6,64,18,28,1,62,15,ok,2,0,0.001,4,0.44,-0.22,9.96,28,0.165,8.29
4.0184,-0.00873,0.00175,0.39270,0.00000,0.00000,0.00000,29,5,64,19,25,5,63,15,ok,4,0,0.001,4,0.44,-0.22,9.96,28,0.177,8.29
4.0410,-0.00873,0.00175,0.39270,0.00000,0.00000,0.00000,30,5,64,20,24,8,63,16,ok,4,0,0.001,4,0.44,-0.22,9.96,28,0.190,8.29
4.0444,-0.00873,0.00175,0.39270,0.00000,0.00000,0.00000,31,4,64,21,23,11,63,17,ok,4,0,0.001,4,0.44,-0.22,9.96,28,0.203,8.29
4.0571,-0.10472,-0.03840,0.39968,0.00000,0.00000,0.00000,32,4,64,23,22,14,64,18,ok,4,0,0.001,4,0.70,-0.75,10.50,29,0.000,8.29
4.0770,-0.10472,-0.03840,0.39968,0.00000,0.00000,0.00000,32,3,63,26,24,13,64,19,ok,4,0,0.001,4,0.70,-0.75,10.50,29,0.013,8.29
4.0820,-0.10472,-0.03840,0.39968,0.00000,0.00000,0.00000,33,3,63,27,24,13,65,19,ok,4,0,0.001,4,0.70,-0.75,10.50,29,0.025,8.29
4.0944,-0.10472,-0.03840,0.39968,0.00000,0.00000,0.00000,34,2,65,26,25,11,65,21,ok,4,0,0.001,4,0.70,-0.75,10.50,29,0.037,8.29
4.1170,-0.10472,-0.03840,0.39968,0.00000,0.00000,0.00000,35,1,67,23,26,10,65,21,ok,4,0,0.001,4,0.70,-0.75,10.50,29,0.050,8.29
4.1202,-0.10472,-0.03840,0.39968,0.00000,0.00000,0.00000,36,1,70,19,27,10,65,22,ok,2,0,0.001,4,0.70,-0.75,10.50,29,0.063,8.29
4.1331,-0.10472,-0.03840,0.39968,0.00000,0.00000,0.00000,37,1,71,15,29,10,65,24,ok,2,0,0.001,4,0.70,-0.75,10.50,29,0.076,8.29
4.1532,-0.10472,-0.03840,0.39968,0.00000,0.00000,0.00000,39,1,71,13,30,9,65,26,ok,2,0,0.001,4,0.70,-0.75,10.50,29,0.088,8.29
4.1581,-0.10472,-0.03840,0.39968,0.00000,0.00000,0.00000,40,1,71,12,32,9,65,27,ok,4,0,0.001,4,0.70,-0.75,10.50,29,0.101,8.29
4.1704,-0.10472,-0.03840,0.39968,0.00000,0.00000,0.00000,41,1,71,9,33,9,64,29,ok,4,0,0.001,4,0.70,-0.75,10.50,29,0.113,8.29
4.1930,-0.10472,-0.03840,0.39968,0.00000,0.00000,0.00000,42,2,70,6,35,9,64,30,ok,4,0,0.001,4,0.70,-0.75,10.50,29,0.126,8.29
4.1962,-0.10472,-0.03840,0.39968,0.00000,0.00000,0.00000,44,3,69,3,36,8,64,31,ok,4,0,0.001,4,0.70,-0.75,10.50,29,0.139,8.29
4.2088,-0.10472,-0.03840,0.39968,0.00000,0.00000,0.00000,44,3,68,0,37,8,64,33,ok,4,0,0.001,4,0.70,-0.75,10.50,29,0.152,8.29
4.2290,-0.10472,-0.03840,0.39968,0.00000,0.00000,0.00000,45,3,67,-2,38,8,63,34,ok,4,0,0.001,4,0.70,-0.75,10.50,29,0.164,8.29
4.2338,-0.10472,-0.03840,0.39968,0.00000,0.00000,0.00000,47,3,65,-3,39,8,63,36,ok,2,0,0.001,4,0.70,-0.75,10.50,29,0.177,8.29
4.2467,-0.08727,0.06632,0.41364,0.00000,0.00000,0.00000,47,3,63,-4,40,7,64,36,ok,2,0,0.001,4,0.71,-0.92,10.68,30,0.000,8.29
4.2690,-0.08727,0.06632,0.41364,0.00000,0.00000,0.00000,48,4,61,-5,41,7,65,35,ok,2,0,0.001,4,0.71,-0.92,10.68,30,0.013,8.29
4.2722,-0.08727,0.06632,0.41364,0.00000,0.00000,0.00000,48,4,60,-8,43,7,67,33,ok,2,0,0.001,4,0.71,-0.92,10.68,30,0.026,8.29
4.2850,-0.08727,0.06632,0.41364,0.00000,0.00000,0.00000,50,4,58,-8,43,7,69,27,ok,2,0,0.001,4,0.71,-0.92,10.68,30,0.038,8.29
4.3050,-0.08727,0.06632,0.41364,0.00000,0.00000,0.00000,51,4,55,-9,44,7,70,24,ok,2,0,0.001,4,0.71,-0.92,10.68,30,0.051,8.29
4.3098,-0.08727,0.06632,0.41364,0.00000,0.00000,0.00000,51,3,53,-9,46,7,72,21,ok,2,0,0.001,4,0.71,-0.92,10.68,30,0.063,8.29
4.3223,-0.08727,0.06632,0.41364,0.00000,0.00000,0.00000,51,5,51,-10,47,7,72,20,ok,2,0,0.001,4,0.71,-0.92,10.68,30,0.076,8.29
4.3450,-0.08727,0.06632,0.41364,0.00000,0.00000,0.00000,52,6,48,-10,47,7,72,18,ok,2,0,0.001,4,0.71,-0.92,10.68,30,0.088,8.29
4.3484,-0.08727,0.06632,0.41364,0.00000,0.00000,0.00000,52,5,46,-10,49,7,72,15,ok,2,0,0.001,4,0.71,-0.92,10.68,30,0.102,8.29
4.3608,-0.08727,0.06632,0.41364,0.00000,0.00000,0.00000,52,6,44,-9,49,7,72,12,ok,2,0,0.001,4,0.71,-0.92,10.68,30,0.115,8.29
4.3810,-0.08727,0.06632,0.41364,0.00000,0.00000,0.00000,53,7,41,-10,50,7,71,11,ok,2,0,0.001,4,0.71,-0.92,10.68,30,0.127,8.29
4.3858,-0.08727,0.06632,0.41364,0.00000,0.00000,0.00000,55,7,39,-10,51,7,71,7,ok,2,0,0.001,4,0.71,-0.92,10.68,30,0.140,8.29
4.3984,-0.08727,0.06632,0.41364,0.00000,0.00000,0.00000,55,7,36,-9,52,7,71,5,ok,2,0,0.001,4,0.71,-0.92,10.68,30,0.152,8.29
4.4210,-0.08727,0.06632,0.41364,0.00000,0.00000,0.00000,56,7,33,-9,52,7,70,4,ok,2,0,0.001,4,0.71,-0.92,10.68,30,0.165,8.29
4.4243,-0.08727,0.06632,0.41364,0.00000,0.00000,0.00000,56,8,30,-8,53,8,68,2,ok,2,0,0.001,4,0.71,-0.92,10.68,30,0.178,8.29
4.4368,-0.08727,0.06632,0.41364,0.00000,0.00000,0.00000,56,8,27,-6,54,8,66,1,ok,2,0,0.001,4,0.71,-0.92,10.68,30,0.190,8.29
4.4570,-0.08727,0.06632,0.41364,0.00000,0.00000,0.00000,57,8,24,-5,55,8,65,0,ok,2,0,0.001,4,0.71,-0.92,10.68,30,0.203,8.29
4.4620,-0.00873,0.00349,0.43284,0.00000,0.00000,0.00000,58,9,20,-2,56,8,64,-2,ok,2,0,0.001,4,1.21,-0.44,10.28,31,0.000,8.29
4.4744,-0.00873,0.00349,0.43284,0.00000,0.00000,0.00000,58,10,18,-1,58,6,62,-3,ok,2,0,0.001,4,1.21,-0.44,10.28,31,0.013,8.29
4.4970,-0.00873,0.00349,0.43284,0.00000,0.00000,0.00000,58,9,18,0,58,8,60,-5,ok,2,0,0.001,4,1.21,-0.44,10.28,31,0.025,8.29
4.5002,-0.00873,0.00349,0.43284,0.00000,0.00000,0.00000,59,10,16,3,59,8,58,-5,ok,2,0,0.001,4,1.21,-0.44,10.28,31,0.038,8.29
4.5129,-0.00873,0.00349,0.43284,0.00000,0.00000,0.00000,59,11,14,5,59,9,55,-6,ok,2,0,0.001,4,1.21,-0.44,10.28,31,0.051,8.29
4.5330,-0.00873,0.00349,0.43284,0.00000,0.00000,0.00000,59,12,13,9,60,9,53,-6,ok,2,0,0.001,4,1.21,-0.44,10.28,31,0.064,8.29
4.5380,-0.00873,0.00349,0.43284,0.00000,0.00000,0.00000,60,12,13,11,60,10,50,-5,ok,2,0,0.001,4,1.21,-0.44,10.28,31,0.076,8.29
4.5504,-0.00873,0.00349,0.43284,0.00000,0.00000,0.00000,60,14,14,11,60,10,48,-5,ok,2,0,0.001,4,1.21,-0.44,10.28,31,0.089,8.29
4.5731,-0.00873,0.00349,0.43284,0.00000,0.00000,0.00000,60,14,15,11,61,10,46,-5,ok,2,0,0.001,4,1.21,-0.44,10.28,31,0.101,8.29
4.5764,-0.00873,0.00349,0.43284,0.00000,0.00000,0.00000,60,14,17,10,61,11,42,-5,ok,2,0,0.001,4,1.21,-0.44,10.28,31,0.115,8.29
4.5889,-0.00873,0.00349,0.43284,0.00000,0.00000,0.00000,60,15,19,9,61,12,40,-5,ok,2,0,0.001,5,1.21,-0.44,10.28,31,0.127,8.29
4.6090,-0.00873,0.00349,0.43284,0.00000,0.00000,0.00000,60,16,19,8,61,13,37,-3,ok,2,0,0.001,5,1.21,-0.44,10.28,31,0.140,8.29
4.6141,-0.00873,0.00349,0.43284,0.00000,0.00000,0.00000,60,16,21,7,62,13,35,-3,ok,2,0,0.001,5,1.21,-0.44,10.28,31,0.152,8.29
4.6265,-0.00873,0.00349,0.43284,0.00000,0.00000,0.00000,60,17,21,7,62,14,31,-1,ok,2,0,0.001,5,1.21,-0.44,10.28,31,0.165,8.29
4.6490,-0.00873,0.00349,0.43284,0.00000,0.00000,0.00000,62,19,23,6,63,14,30,0,ok,2,0,0.001,5,1.21,-0.44,10.28,31,0.177,8.29
4.6525,-0.01920,0.06807,0.45902,0.00000,0.00000,0.00000,62,20,24,5,63,15,27,1,ok,2,0,0.001,5,1.59,-1.64,10.63,32,0.000,8.29
4.6650,-0.01920,0.06807,0.45902,0.00000,0.00000,0.00000,62,21,24,5,62,16,25,5,ok,2,0,0.001,5,1.59,-1.64,10.63,32,0.013,8.29
4.6850,-0.01920,0.06807,0.45902,0.00000,0.00000,0.00000,62,22,26,4,63,17,24,7,ok,2,0,0.001,5,1.59,-1.64,10.63,32,0.025,8.29
4.6898,-0.01920,0.06807,0.45902,0.00000,0.00000,0.00000,62,23,26,3,64,17,23,11,ok,2,0,0.001,5,1.59,-1.64,10.63,32,0.038,8.29
4.7024,-0.01920,0.06807,0.45902,0.00000,0.00000,0.00000,61,26,27,3,64,19,22,13,ok,2,0,0.001,5,1.59,-1.64,10.63,32,0.050,8.29
4.7250,-0.01920,0.06807,0.45902,0.00000,0.00000,0.00000,61,26,28,2,64,20,24,12,ok,2,0,0.001,5,1.59,-1.64,10.63,32,0.063,8.29
4.7282,-0.01920,0.06807,0.45902,0.00000,0.00000,0.00000,62,25,29,2,64,21,25,12,ok,2,0,0.001,5,1.59,-1.64,10.63,32,0.076,8.29
4.7408,-0.01920,0.06807,0.45902,0.00000,0.00000,0.00000,64,21,30,2,65,22,25,10,ok,2,0,0.001,5,1.59,-1.64,10.63,32,0.089,8.29
4.7610,-0.01920,0.06807,0.45902,0.00000,0.00000,0.00000,66,18,31,1,64,23,27,9,ok,2,0,0.001,5,1.59,-1.64,10.63,32,0.101,8.29
4.7659,-0.01920,0.06807,0.45902,0.00000,0.00000,0.00000,66,13,32,2,64,25,28,10,ok,2,0,0.001,5,1.59,-1.64,10.63,32,0.114,8.29
4.7786,-0.01920,0.06807,0.45902,0.00000,0.00000,0.00000,67,11,33,2,65,26,29,9,ok,2,0,0.001,5,1.59,-1.64,10.63,32,0.126,8.29
4.8010,-0.01920,0.06807,0.45902,0.00000,0.00000,0.00000,66,11,35,2,64,28,30,9,ok,2,0,0.001,5,1.59,-1.64,10.63,32,0.139,8.29
4.8042,-0.01920,0.06807,0.45902,0.00000,0.00000,0.00000,66,7,36,2,64,29,32,9,ok,2,0,0.001,5,1.59,-1.64,10.63,32,0.152,8.29
4.8168,-0.01920,0.06807,0.45902,0.00000,0.00000,0.00000,66,5,38,3,64,30,33,9,ok,2,0,0.001,5,1.59,-1.64,10.63,32,0.165,8.29
4.8370,-0.01920,0.06807,0.45902,0.00000,0.00000,0.00000,65,2,40,3,64,32,35,8,ok,2,0,0.001,5,1.59,-1.64,10.63,32,0.177,8.29
4.8418,-0.01920,0.06807,0.45902,0.00000,0.00000,0.00000,64,0,41,3,64,34,36,8,ok,2,0,0.001,5,1.59,-1.64,10.63,32,0.190,8.29
4.8546,-0.02967,0.02967,0.53233,0.00000,0.00000,0.00000,64,-2,42,2,64,35,37,8,ok,2,0,0.001,5,0.12,1.65,8.46,33,0.000,8.29
4.8770,-0.02967,0.02967,0.53233,0.00000,0.00000,0.00000,62,-4,44,2,65,35,38,8,ok,2,0,0.001,5,0.12,1.65,8.46,33,0.013,8.29
4.8802,-0.02967,0.02967,0.53233,0.00000,0.00000,0.00000,60,-5,44,2,66,35,39,8,ok,2,0,0.001,5,0.12,1.65,8.46,33,0.026,8.29
4.8930,-0.02967,0.02967,0.53233,0.00000,0.00000,0.00000,60,-6,45,3,68,33,41,7,ok,2,0,0.001,5,0.12,1.65,8.46,33,0.039,8.29
4.9130,-0.02967,0.02967,0.53233,0.00000,0.00000,0.00000,59,-8,46,3,69,29,42,7,ok,2,0,0.001,5,0.12,1.65,8.46,33,0.051,8.29
4.9178,-0.02967,0.02967,0.53233,0.00000,0.00000,0.00000,57,-9,48,4,71,24,43,7,ok,2,0,0.001,5,0.12,1.65,8.46,33,0.064,8.29
4.9304,-0.02967,0.02967,0.53233,0.00000,0.00000,0.00000,55,-10,49,4,73,22,44,7,ok,2,0,0.001,5,0.12,1.65,8.46,33,0.076,8.29
4.9530,-0.02967,0.02967,0.53233,0.00000,0.00000,0.00000,53,-10,49,3,74,21,45,7,ok,2,0,0.001,5,0.12,1.65,8.46,33,0.089,8.29
4.9564,-0.02967,0.02967,0.53233,0.00000,0.00000,0.00000,52,-11,50,6,74,18,46,7,ok,2,0,0.001,5,0.12,1.65,8.46,33,0.102,8.29
4.9688,-0.02967,0.02967,0.53233,0.00000,0.00000,0.00000,49,-11,51,6,74,15,47,8,ok,2,0,0.001,5,0.12,1.65,8.46,33,0.115,8.29
4.9890,-0.02967,0.02967,0.53233,0.00000,0.00000,0.00000,48,-11,52,6,73,12,48,8,ok,2,0,0.001,5,0.12,1.65,8.46,33,0.127,8.29
4.9938,-0.02967,0.02967,0.53233,0.00000,0.00000,0.00000,45,-10,53,6,73,10,49,8,ok,2,0,0.001,5,0.12,1.65,8.46,33,0.140,8.29
5.0065,-0.02967,0.02967,0.53233,0.00000,0.00000,0.00000,44,-11,53,7,72,7,49,9,ok,2,0,0.001,5,0.12,1.65,8.46,33,0.152,8.29
5.0330,-0.02967,0.02967,0.53233,0.00000,0.00000,0.00000,41,-11,56,7,72,5,50,8,ok,2,0,0.001,5,0.12,1.65,8.46,33,0.165,8.29
5.0362,-0.02967,0.02967,0.53233,0.00000,0.00000,0.00000,39,-10,56,7,71,4,51,9,ok,2,0,0.001,5,0.12,1.65,8.46,33,0.182,8.29
5.0491,-0.02967,0.02967,0.53233,0.00000,0.00000,0.00000,36,-9,57,7,69,1,52,8,ok,2,0,0.001,5,0.12,1.65,8.46,33,0.194,8.29
5.0690,0.12392,-0.02618,0.52709,0.00000,0.00000,0.00000,34,-7,57,8,66,1,52,8,ok,2,0,0.001,5,-0.24,1.45,10.88,34,0.000,8.29
5.0740,0.12392,-0.02618,0.52709,0.00000,0.00000,0.00000,31,-6,58,7,65,0,52,8,ok,2,0,0.001,5,-0.24,1.45,10.88,34,0.012,8.29
5.0867,0.12392,-0.02618,0.52709,0.00000,0.00000,0.00000,28,-4,58,8,64,-2,54,8,ok,2,0,0.001,5,-0.24,1.45,10.88,34,0.025,8.18
5.1090,0.12392,-0.02618,0.52709,0.00000,0.00000,0.00000,26,-1,59,8,62,-3,54,8,ok,2,0,0.001,5,-0.24,1.45,10.88,34,0.038,8.18
5.1123,0.12392,-0.02618,0.52709,0.00000,0.00000,0.00000,25,-1,60,10,61,-4,54,8,ok,2,0,0.001,5,-0.24,1.45,10.88,34,0.051,8.18
5.1248,0.12392,-0.02618,0.52709,0.00000,0.00000,0.00000,24,1,61,9,59,-5,56,6,ok,2,0,0.001,5,-0.24,1.45,10.88,34,0.064,8.18
5.1450,0.12392,-0.02618,0.52709,0.00000,0.00000,0.00000,23,3,61,10,56,-6,56,7,ok,2,0,0.001,5,-0.24,1.45,10.88,34,0.076,8.18
5.1498,0.12392,-0.02618,0.52709,0.00000,0.00000,0.00000,22,7,61,10,54,-7,57,7,ok,2,0,0.001,5,-0.24,1.45,10.88,34,0.089,8.18
5.1624,0.12392,-0.02618,0.52709,0.00000,0.00000,0.00000,20,10,61,11,51,-6,58,8,ok,2,0,0.001,5,-0.24,1.45,10.88,34,0.101,8.18
5.1850,0.12392,-0.02618,0.52709,0.00000,0.00000,0.00000,20,12,62,11,48,-6,58,8,ok,2,0,0.001,5,-0.24,1.45,10.88,34,0.114,8.18
5.1882,0.12392,-0.02618,0.52709,0.00000,0.00000,0.00000,21,12,62,12,46,-5,59,9,ok,2,0,0.001,5,-0.24,1.45,10.88,34,0.127,8.18
5.2008,0.12392,-0.02618,0.52709,0.00000,0.00000,0.00000,22,11,62,13,43,-5,59,10,ok,2,0,0.001,5,-0.24,1.45,10.88,34,0.140,8.18
5.2210,0.12392,-0.02618,0.52709,0.00000,0.00000,0.00000,23,10,63,14,40,-4,60,10,ok,2,0,0.001,5,-0.24,1.45,10.88,34,0.152,8.18
5.2258,0.12392,-0.02618,0.52709,0.00000,0.00000,0.00000,24,9,62,14,37,-3,60,11,ok,2,0,0.001,5,-0.24,1.45,10.88,34,0.165,8.18
5.2384,0.12392,-0.02618,0.52709,0.00000,0.00000,0.00000,24,8,63,15,34,-3,61,12,ok,2,0,0.001,5,-0.24,1.45,10.88,34,0.177,8.18
5.2610,0.12392,-0.02618,0.52709,0.00000,0.00000,0.00000,26,7,63,16,31,-1,61,13,ok,2,0,0.001,5,-0.24,1.45,10.88,34,0.190,8.18
5.2644,0.06981,0.06632,0.54105,0.00000,0.00000,0.00000,27,7,63,17,29,0,62,13,ok,2,0,0.001,5,0.51,0.71,9.24,35,0.000,8.18
5.2768,0.06981,0.06632,0.54105,0.00000,0.00000,0.00000,28,6,65,18,27,2,62,14,ok,2,0,0.001,5,0.51,0.71,9.24,35,0.013,8.18
5.2970,0.06981,0.06632,0.54105,0.00000,0.00000,0.00000,29,5,65,20,25,5,63,15,ok,2,0,0.001,5,0.51,0.71,9.24,35,0.025,8.18
5.3018,0.06981,0.06632,0.54105,0.00000,0.00000,0.00000,30,4,64,21,24,8,63,16,ok,2,0,0.001,5,0.51,0.71,9.24,35,0.038,8.18
5.3144,0.06981,0.06632,0.54105,0.00000,0.00000,0.00000,31,3,64,22,23,11,63,17,ok,2,0,0.001,5,0.51,0.71,9.24,35,0.050,8.18
5.3370,0.06981,0.06632,0.54105,0.00000,0.00000,0.00000,31,3,64,23,22,14,64,17,ok,2,0,0.001,5,0.51,0.71,9.24,35,0.063,8.18
5.3404,0.06981,0.06632,0.54105,0.00000,0.00000,0.00000,32,2,63,26,24,13,64,18,ok,2,0,0.001,5,0.51,0.71,9.24,35,0.076,8.18
5.3528,0.06981,0.06632,0.54105,0.00000,0.00000,0.00000,32,1,63,28,24,14,64,19,ok,2,0,0.001,5,0.51,0.71,9.24,35,0.089,8.18
5.3730,0.06981,0.06632,0.54105,0.00000,0.00000,0.00000,33,1,64,26,25,12,64,20,ok,2,0,0.001,5,0.51,0.71,9.24,35,0.101,8.18
5.3778,0.06981,0.06632,0.54105,0.00000,0.00000,0.00000,34,1,67,23,26,11,65,21,ok,2,0,0.001,5,0.51,0.71,9.24,35,0.114,8.18
5.3904,0.06981,0.06632,0.54105,0.00000,0.00000,0.00000,35,0,69,19,27,11,65,22,ok,2,0,0.001,5,0.51,0.71,9.24,35,0.126,8.18
5.4130,0.06981,0.06632,0.54105,0.00000,0.00000,0.00000,36,1,70,15,29,10,65,23,ok,2,0,0.001,5,0.51,0.71,9.24,35,0.139,8.18
5.4164,0.06981,0.06632,0.54105,0.00000,0.00000,0.00000,38,1,71,13,30,9,65,25,ok,2,0,0.001,5,0.51,0.71,9.24,35,0.152,8.18
5.4288,0.06981,0.06632,0.54105,0.00000,0.00000,0.00000,39,1,70,12,33,9,65,26,ok,2,0,0.001,5,0.51,0.71,9.24,35,0.165,8.18
5.4490,0.06981,0.06632,0.54105,0.00000,0.00000,0.00000,40,1,70,8,33,9,64,28,ok,2,0,0.001,5,0.51,0.71,9.24,35,0.177,8.18
5.4538,0.06981,0.06632,0.54105,0.00000,0.00000,0.00000,41,2,69,6,35,9,64,29,ok,2,0,0.001,5,0.51,0.71,9.24,35,0.190,8.18
5.4667,-0.12915,0.01745,0.54454,0.00000,0.00000,0.00000,42,2,69,3,36,9,64,30,ok,2,0,0.001,5,0.59,-2.67,11.30,36,0.000,8.18
5.4890,-0.12915,0.01745,0.54454,0.00000,0.00000,0.00000,44,2,67,1,37,8,65,32,ok,2,0,0.001,5,0.59,-2.67,11.30,36,0.013,8.18
5.4922,-0.12915,0.01745,0.54454,0.00000,0.00000,0.00000,44,1,66,-1,38,7,65,34,ok,2,0,0.001,5,0.59,-2.67,11.30,36,0.026,8.18
5.5048,-0.12915,0.01745,0.54454,0.00000,0.00000,0.00000,46,1,64,-3,39,8,64,35,ok,2,0,0.001,5,0.59,-2.67,11.30,36,0.038,8.18
5.5250,-0.12915,0.01745,0.54454,0.00000,0.00000,0.00000,46,1,62,-4,40,7,66,35,ok,2,0,0.001,5,0.59,-2.67,11.30,36,0.051,8.18
5.5298,-0.12915,0.01745,0.54454,0.00000,0.00000,0.00000,47,1,61,-5,41,7,67,35,ok,2,0,0.001,5,0.59,-2.67,11.30,36,0.063,8.18
5.5423,-0.12915,0.01745,0.54454,0.00000,0.00000,0.00000,48,1,60,-7,43,7,68,32,ok,2,0,0.001,5,0.59,-2.67,11.30,36,0.076,8.18
5.5650,-0.12915,0.01745,0.54454,0.00000,0.00000,0.00000,49,2,58,-7,44,7,70,27,ok,2,0,0.001,5,0.59,-2.67,11.30,36,0.088,8.18
5.5682,-0.12915,0.01745,0.54454,0.00000,0.00000,0.00000,50,2,56,-8,44,7,71,24,ok,2,0,0.001,5,0.59,-2.67,11.30,36,0.102,8.18
5.5808,-0.12915,0.01745,0.54454,0.00000,0.00000,0.00000,50,1,54,-8,46,7,73,21,ok,2,0,0.001,5,0.59,-2.67,11.30,36,0.115,8.18
5.6010,-0.12915,0.01745,0.54454,0.00000,0.00000,0.00000,51,4,51,-10,47,7,73,20,ok,2,0,0.001,5,0.59,-2.67,11.30,36,0.127,8.18
5.6058,-0.12915,0.01745,0.54454,0.00000,0.00000,0.00000,52,5,49,-10,47,7,73,18,ok,2,0,0.001,6,0.59,-2.67,11.30,36,0.139,8.18
5.6184,-0.12915,0.01745,0.54454,0.00000,0.00000,0.00000,52,5,46,-10,48,7,73,15,ok,2,0,0.001,6,0.59,-2.67,11.30,36,0.152,8.18
5.6410,-0.12915,0.01745,0.54454,0.00000,0.00000,0.00000,52,6,44,-10,49,7,72,12,ok,2,0,0.002,6,0.59,-2.67,11.30,36,0.165,8.18
5.6442,-0.12915,0.01745,0.54454,0.00000,0.00000,0.00000,53,7,41,-10,49,7,72,11,ok,2,0,0.002,6,0.59,-2.67,11.30,36,0.178,8.18
5.6571,-0.12915,0.01745,0.54454,0.00000,0.00000,0.00000,55,7,39,-10,50,7,71,7,ok,2,0,0.002,6,0.59,-2.67,11.30,36,0.191,8.18
5.6770,-0.07330,-0.04538,0.56200,0.00000,0.00000,0.00000,56,7,37,-9,51,7,71,5,ok,2,0,0.002,6,-0.86,-0.73,9.73,37,0.000,8.18
5.6818,-0.07330,-0.04538,0.56200,0.00000,0.00000,0.00000,56,7,33,-9,52,7,70,4,ok,2,0,0.002,6,-0.86,-0.73,9.73,37,0.012,8.18
5.6945,-0.07330,-0.04538,0.56200,0.00000,0.00000,0.00000,56,8,31,-8,53,8,68,2,ok,2,0,0.002,6,-0.86,-0.73,9.73,37,0.025,8.18
5.7170,-0.07330,-0.04538,0.56200,0.00000,0.00000,0.00000,56,8,27,-7,54,8,66,2,ok,2,0,0.002,6,-0.86,-0.73,9.73,37,0.038,8.18
5.7203,-0.07330,-0.04538,0.56200,0.00000,0.00000,0.00000,57,9,25,-5,55,8,65,0,ok,2,0,0.002,6,-0.86,-0.73,9.73,37,0.051,8.18
5.7328,-0.07330,-0.04538,0.56200,0.00000,0.00000,0.00000,58,10,21,-3,56,8,64,-2,ok,2,0,0.002,6,-0.86,-0.73,9.73,37,0.063,8.18
5.7530,-0.07330,-0.04538,0.56200,0.00000,0.00000,0.00000,59,11,19,-1,58,6,62,-3,ok,2,0,0.002,6,-0.86,-0.73,9.73,37,0.076,8.18
5.7578,-0.07330,-0.04538,0.56200,0.00000,0.00000,0.00000,59,11,19,0,58,7,60,-4,ok,2,0,0.002,6,-0.86,-0.73,9.73,37,0.088,8.18
5.7704,-0.07330,-0.04538,0.56200,0.00000,0.00000,0.00000,60,11,17,2,58,8,58,-5,ok,2,0,0.002,6,-0.86,-0.73,9.73,37,0.101,8.18
5.7930,-0.07330,-0.04538,0.56200,0.00000,0.00000,0.00000,60,12,15,6,59,8,55,-6,ok,2,0,0.002,6,-0.86,-0.73,9.73,37,0.113,8.18
5.7962,-0.07330,-0.04538,0.56200,0.00000,0.00000,0.00000,60,13,14,9,59,9,53,-6,ok,2,0,0.002,6,-0.86,-0.73,9.73,37,0.127,8.18
5.8088,-0.07330,-0.04538,0.56200,0.00000,0.00000,0.00000,60,12,13,11,60,9,50,-5,ok,2,0,0.002,6,-0.86,-0.73,9.73,37,0.139,8.18
5.8290,-0.07330,-0.04538,0.56200,0.00000,0.00000,0.00000,60,13,15,12,60,10,47,-5,ok,2,0,0.002,6,-0.86,-0.73,9.73,37,0.152,8.18
5.8340,-0.07330,-0.04538,0.56200,0.00000,0.00000,0.00000,60,14,16,11,60,11,45,-5,ok,2,0,0.002,6,-0.86,-0.73,9.73,37,0.164,8.18
5.8464,-0.07330,-0.04538,0.56200,0.00000,0.00000,0.00000,60,14,17,10,61,11,42,-4,ok,2,0,0.002,6,-0.86,-0.73,9.73,37,0.177,8.18
5.8690,-0.07330,-0.04538,0.56200,0.00000,0.00000,0.00000,60,15,19,9,61,12,40,-4,ok,2,0,0.002,6,-0.86,-0.73,9.73,37,0.189,8.18
5.8726,-0.07330,-0.04538,0.56200,0.00000,0.00000,0.00000,60,16,20,9,61,12,37,-3,ok,2,0,0.002,6,-0.86,-0.73,9.73,37,0.203,8.18
5.8852,0.06981,0.08552,0.56549,0.00000,0.00000,0.00000,61,17,21,8,61,13,35,-3,ok,2,0,0.002,6,0.77,1.10,10.54,38,0.000,8.18
5.9050,0.06981,0.08552,0.56549,0.00000,0.00000,0.00000,60,18,22,7,61,15,30,-1,ok,2,0,0.002,6,0.77,1.10,10.54,38,0.012,8.18
5.9100,0.06981,0.08552,0.56549,0.00000,0.00000,0.00000,62,20,23,6,62,15,29,0,ok,2,0,0.002,6,0.77,1.10,10.54,38,0.025,8.18
5.9224,0.06981,0.08552,0.56549,0.00000,0.00000,0.00000,62,21,24,5,62,16,26,1,ok,2,0,0.002,6,0.77,1.10,10.54,38,0.038,8.18
5.9450,0.06981,0.08552,0.56549,0.00000,0.00000,0.00000,62,22,24,5,63,16,24,5,ok,2,0,0.002,6,0.77,1.10,10.54,38,0.050,8.18
5.9482,0.06981,0.08552,0.56549,0.00000,0.00000,0.00000,62,23,25,4,63,17,23,7,ok,2,0,0.002,6,0.77,1.10,10.54,38,0.063,8.18
5.9608,0.06981,0.08552,0.56549,0.00000,0.00000,0.00000,62,24,26,3,64,18,22,11,ok,2,0,0.002,6,0.77,1.10,10.54,38,0.076,8.18
5.9810,0.06981,0.08552,0.56549,0.00000,0.00000,0.00000,61,27,27,2,64,19,22,13,ok,2,0,0.002,6,0.77,1.10,10.54,38,0.088,8.18
5.9860,0.06981,0.08552,0.56549,0.00000,0.00000,0.00000,61,27,27,1,64,20,24,12,ok,2,0,0.002,6,0.77,1.10,10.54,38,0.101,8.18
5.9984,0.06981,0.08552,0.56549,0.00000,0.00000,0.00000,62,26,28,1,64,21,25,11,ok,2,0,0.002,6,0.77,1.10,10.54,38,0.113,8.18
6.0210,0.06981,0.08552,0.56549,0.00000,0.00000,0.00000,64,22,29,2,65,22,25,10,ok,2,0,0.002,6,0.77,1.10,10.54,38,0.126,8.18
6.0242,0.06981,0.08552,0.56549,0.00000,0.00000,0.00000,65,18,31,1,64,24,27,9,ok,2,0,0.002,6,0.77,1.10,10.54,38,0.139,8.18
6.0369,0.06981,0.08552,0.56549,0.00000,0.00000,0.00000,66,13,32,2,64,25,28,10,ok,2,0,0.002,6,0.77,1.10,10.54,38,0.152,8.18
6.0570,0.06981,0.08552,0.56549,0.00000,0.00000,0.00000,66,11,33,2,65,26,29,9,ok,2,0,0.002,6,0.77,1.10,10.54,38,0.165,8.18
6.0618,0.06981,0.08552,0.56549,0.00000,0.00000,0.00000,66,10,35,2,64,28,30,8,ok,2,0,0.002,6,0.77,1.10,10.54,38,0.177,8.18
6.0746,0.06981,0.08552,0.56549,0.00000,0.00000,0.00000,66,7,36,2,64,29,32,8,ok,2,0,0.002,6,0.77,1.10,10.54,38,0.190,8.18
6.0970,-0.02094,0.05236,0.59516,0.00000,0.00000,0.00000,65,4,38,3,64,31,33,8,ok,2,0,0.002,6,-1.21,-0.22,8.51,39,0.000,8.18
6.1002,-0.02094,0.05236,0.59516,0.00000,0.00000,0.00000,64,1,40,3,64,32,35,8,ok,2,0,0.002,6,-1.21,-0.22,8.51,39,0.013,8.18
6.1130,-0.02094,0.05236,0.59516,0.00000,0.00000,0.00000,64,-1,41,3,63,34,36,8,ok,2,0,0.002,6,-1.21,-0.22,8.51,39,0.026,8.18
6.1330,-0.02094,0.05236,0.59516,0.00000,0.00000,0.00000,63,-3,43,3,63,35,37,8,ok,2,0,0.002,6,-1.21,-0.22,8.51,39,0.038,8.18
6.1378,-0.02094,0.05236,0.59516,0.00000,0.00000,0.00000,62,-5,44,3,64,36,38,8,ok,2,0,0.002,6,-1.21,-0.22,8.51,39,0.051,8.18
6.1504,-0.02094,0.05236,0.59516,0.00000,0.00000,0.00000,60,-6,44,3,65,35,40,7,ok,2,0,0.002,6,-1.21,-0.22,8.51,39,0.063,8.18
6.1730,-0.02094,0.05236,0.59516,0.00000,0.00000,0.00000,60,-7,45,3,67,33,41,7,ok,2,0,0.002,6,-1.21,-0.22,8.51,39,0.076,8.18
6.1762,-0.02094,0.05236,0.59516,0.00000,0.00000,0.00000,59,-9,46,3,69,29,42,7,ok,2,0,0.002,6,-1.21,-0.22,8.51,39,0.089,8.18
6.1889,-0.02094,0.05236,0.59516,0.00000,0.00000,0.00000,57,-10,48,4,71,24,44,7,ok,2,0,0.002,6,-1.21,-0.22,8.51,39,0.102,8.18
6.2090,-0.02094,0.05236,0.59516,0.00000,0.00000,0.00000,55,-11,49,4,72,22,44,7,ok,2,0,0.002,6,-1.21,-0.22,8.51,39,0.114,8.18
6.2138,-0.02094,0.05236,0.59516,0.00000,0.00000,0.00000,53,-11,49,4,74,21,45,7,ok,2,0,0.002,6,-1.21,-0.22,8.51,39,0.127,8.18
6.2264,-0.02094,0.05236,0.59516,0.00000,0.00000,0.00000,52,-12,50,6,73,19,46,7,ok,2,0,0.002,6,-1.21,-0.22,8.51,39,0.139,8.18
6.2490,-0.02094,0.05236,0.59516,0.00000,0.00000,0.00000,49,-11,51,6,73,15,47,8,ok,2,0,0.002,6,-1.21,-0.22,8.51,39,0.152,8.18
6.2524,-0.02094,0.05236,0.59516,0.00000,0.00000,0.00000,48,-11,52,6,73,12,48,8,ok,2,0,0.002,6,-1.21,-0.22,8.51,39,0.165,8.18
6.2648,-0.02094,0.05236,0.59516,0.00000,0.00000,0.00000,45,-10,53,6,73,10,49,8,ok,2,0,0.002,6,-1.21,-0.22,8.51,39,0.178,8.18
6.2850,-0.02094,0.05236,0.59516,0.00000,0.00000,0.00000,43,-11,53,7,72,7,50,9,ok,2,0,0.002,6,-1.21,-0.22,8.51,39,0.190,8.18
6.2900,0.08552,-0.00524,0.58643,0.00000,0.00000,0.00000,40,-11,55,7,72,5,50,8,ok,2,0,0.002,6,-0.55,0.69,9.78,40,0.000,8.18
6.3024,0.08552,-0.00524,0.58643,0.00000,0.00000,0.00000,39,-10,56,7,71,4,51,8,ok,2,0,0.002,6,-0.55,0.69,9.78,40,0.013,8.18
6.3250,0.08552,-0.00524,0.58643,0.00000,0.00000,0.00000,36,-8,57,7,69,2,52,7,ok,2,0,0.002,6,-0.55,0.69,9.78,40,0.025,8.18
6.3282,0.08552,-0.00524,0.58643,0.00000,0.00000,0.00000,34,-7,57,7,66,2,52,8,ok,2,0,0.002,6,-0.55,0.69,9.78,40,0.038,8.18
6.3408,0.08552,-0.00524,0.58643,0.00000,0.00000,0.00000,31,-5,58,7,65,0,52,8,ok,2,0,0.002,6,-0.55,0.69,9.78,40,0.051,8.18
6.3610,0.08552,-0.00524,0.58643,0.00000,0.00000,0.00000,29,-3,59,7,64,-2,54,8,ok,2,0,0.002,6,-0.55,0.69,9.78,40,0.064,8.18
6.3660,0.08552,-0.00524,0.58643,0.00000,0.00000,0.00000,26,-1,59,8,62,-3,55,8,ok,2,0,0.002,6,-0.55,0.69,9.78,40,0.076,8.18
6.3784,0.08552,-0.00524,0.58643,0.00000,0.00000,0.00000,25,0,60,10,60,-5,54,8,ok,2,0,0.002,6,-0.55,0.69,9.78,40,0.089,8.18
6.4010,0.08552,-0.00524,0.58643,0.00000,0.00000,0.00000,24,1,61,9,58,-5,56,5,ok,2,0,0.002,6,-0.55,0.69,9.78,40,0.101,8.18
6.4042,0.08552,-0.00524,0.58643,0.00000,0.00000,0.00000,23,3,61,10,56,-6,57,6,ok,2,0,0.002,6,-0.55,0.69,9.78,40,0.114,8.18
6.4168,0.08552,-0.00524,0.58643,0.00000,0.00000,0.00000,22,6,61,10,54,-7,58,7,ok,2,0,0.002,6,-0.55,0.69,9.78,40,0.127,8.18
6.4370,0.08552,-0.00524,0.58643,0.00000,0.00000,0.00000,20,9,61,11,51,-6,58,8,ok,2,0,0.002,6,-0.55,0.69,9.78,40,0.140,8.18
6.4418,0.08552,-0.00524,0.58643,0.00000,0.00000,0.00000,20,11,62,12,48,-5,59,8,ok,2,0,0.002,6,-0.55,0.69,9.78,40,0.152,8.18
6.4544,0.08552,-0.00524,0.58643,0.00000,0.00000,0.00000,21,11,62,13,45,-5,60,9,ok,2,0,0.002,6,-0.55,0.69,9.78,40,0.165,8.18
6.4770,0.08552,-0.00524,0.58643,0.00000,0.00000,0.00000,21,11,62,13,42,-5,59,9,ok,2,0,0.002,6,-0.55,0.69,9.78,40,0.177,8.18
6.4805,0.08552,-0.00524,0.58643,0.00000,0.00000,0.00000,23,10,62,14,40,-4,60,10,ok,2,0,0.002,6,-0.55,0.69,9.78,40,0.190,8.18
6.4932,0.03665,0.03840,0.63006,0.00000,0.00000,0.00000,24,9,62,14,37,-3,60,11,ok,2,0,0.002,6,1.03,-0.35,10.83,41,0.000,8.18
6.5130,0.03665,0.03840,0.63006,0.00000,0.00000,0.00000,24,8,63,15,34,-3,61,12,ok,2,0,0.002,6,1.03,-0.35,10.83,41,0.012,8.18
6.5178,0.03665,0.03840,0.63006,0.00000,0.00000,0.00000,26,7,63,16,31,-2,61,13,ok,2,0,0.002,6,1.03,-0.35,10.83,41,0.025,8.18
6.5304,0.03665,0.03840,0.63006,0.00000,0.00000,0.00000,27,7,63,17,29,0,62,14,ok,2,0,0.002,6,1.03,-0.35,10.83,41,0.038,8.18
6.5530,0.03665,0.03840,0.63006,0.00000,0.00000,0.00000,28,6,64,18,27,1,62,14,ok,2,0,0.002,6,1.03,-0.35,10.83,41,0.050,8.18
6.5564,0.03665,0.03840,0.63006,0.00000,0.00000,0.00000,29,5,64,20,25,5,63,15,ok,2,0,0.002,6,1.03,-0.35,10.83,41,0.063,8.18
6.5688,0.03665,0.03840,0.63006,0.00000,0.00000,0.00000,29,4,64,21,24,8,63,16,ok,2,0,0.002,6,1.03,-0.35,10.83,41,0.076,8.18
6.5890,0.03665,0.03840,0.63006,0.00000,0.00000,0.00000,30,3,64,22,23,11,63,17,ok,2,0,0.002,6,1.03,-0.35,10.83,41,0.089,8.18
6.5938,0.03665,0.03840,0.63006,0.00000,0.00000,0.00000,31,3,64,23,22,14,64,18,ok,2,0,0.002,6,1.03,-0.35,10.83,41,0.101,8.18
6.6064,0.03665,0.03840,0.63006,0.00000,0.00000,0.00000,32,3,63,26,24,14,64,18,ok,2,0,0.002,6,1.03,-0.35,10.83,41,0.113,8.18
6.6290,0.03665,0.03840,0.63006,0.00000,0.00000,0.00000,32,2,63,27,24,14,64,19,ok,2,0,0.002,7,1.03,-0.35,10.83,41,0.126,8.18
6.6322,0.03665,0.03840,0.63006,0.00000,0.00000,0.00000,33,2,65,26,25,12,64,20,ok,2,0,0.002,7,1.03,-0.35,10.83,41,0.139,8.18
6.6450,0.03665,0.03840,0.63006,0.00000,0.00000,0.00000,34,1,67,22,26,11,65,21,ok,2,0,0.002,7,1.03,-0.35,10.83,41,0.152,8.18
6.6650,0.03665,0.03840,0.63006,0.00000,0.00000,0.00000,36,1,69,19,28,11,65,22,ok,2,0,0.002,7,1.03,-0.35,10.83,41,0.164,8.18
6.6698,0.03665,0.03840,0.63006,0.00000,0.00000,0.00000,37,1,70,15,29,10,64,23,ok,2,0,0.002,7,1.03,-0.35,10.83,41,0.177,8.18
6.6824,0.03665,0.03840,0.63006,0.00000,0.00000,0.00000,38,1,71,12,30,9,64,25,ok,2,0,0.002,7,1.03,-0.35,10.83,41,0.189,8.18
6.7050,-0.03316,0.00698,0.63530,0.00000,0.00000,0.00000,40,1,70,12,32,9,65,26,ok,2,0,0.002,7,-0.85,-1.10,10.13,42,0.000,8.18
6.7083,-0.03316,0.00698,0.63530,0.00000,0.00000,0.00000,40,1,70,9,32,9,64,28,ok,2,0,0.002,7,-0.85,-1.10,10.13,42,0.013,8.18
6.7210,-0.03316,0.00698,0.63530,0.00000,0.00000,0.00000,42,2,69,6,35,9,64,29,ok,2,0,0.002,7,-0.85,-1.10,10.13,42,0.026,8.18
6.7410,-0.03316,0.00698,0.63530,0.00000,0.00000,0.00000,43,2,69,3,36,8,65,31,ok,2,0,0.002,7,-0.85,-1.10,10.13,42,0.039,8.18
6.7459,-0.03316,0.00698,0.63530,0.00000,0.00000,0.00000,44,2,67,0,37,9,64,32,ok,2,0,0.002,7,-0.85,-1.10,10.13,42,0.051,8.18
6.7586,-0.03316,0.00698,0.63530,0.00000,0.00000,0.00000,44,1,66,-1,38,8,64,34,ok,2,0,0.002,7,-0.85,-1.10,10.13,42,0.064,8.18
6.7810,-0.03316,0.00698,0.63530,0.00000,0.00000,0.00000,46,2,65,-3,39,8,64,35,ok,2,0,0.002,7,-0.85,-1.10,10.13,42,0.076,8.18
6.7842,-0.03316,0.00698,0.63530,0.00000,0.00000,0.00000,46,2,63,-4,40,7,65,35,ok,2,0,0.002,7,-0.85,-1.10,10.13,42,0.089,8.18
6.7968,-0.03316,0.00698,0.63530,0.00000,0.00000,0.00000,47,2,61,-5,42,7,66,34,ok,2,0,0.002,7,-0.85,-1.10,10.13,42,0.102,8.18
6.8170,-0.03316,0.00698,0.63530,0.00000,0.00000,0.00000,48,2,60,-8,43,7,67,32,ok,2,0,0.002,7,-0.85,-1.10,10.13,42,0.114,8.18
6.8218,-0.03316,0.00698,0.63530,0.00000,0.00000,0.00000,49,3,58,-8,44,7,69,27,ok,2,0,0.002,7,-0.85,-1.10,10.13,42,0.127,8.18
6.8346,-0.03316,0.00698,0.63530,0.00000,0.00000,0.00000,50,3,56,-9,44,7,71,23,ok,2,0,0.002,7,-0.85,-1.10,10.13,42,0.140,8.18
6.8570,-0.03316,0.00698,0.63530,0.00000,0.00000,0.00000,51,3,54,-9,45,7,72,21,ok,2,0,0.002,7,-0.85,-1.10,10.13,42,0.152,8.18
6.8602,-0.03316,0.00698,0.63530,0.00000,0.00000,0.00000,51,5,51,-10,46,7,72,20,ok,2,0,0.002,7,-0.85,-1.10,10.13,42,0.165,8.18
6.8730,-0.03316,0.00698,0.63530,0.00000,0.00000,0.00000,52,6,49,-10,47,7,72,18,ok,2,0,0.002,7,-0.85,-1.10,10.13,42,0.178,8.18
6.8930,-0.03316,0.00698,0.63530,0.00000,0.00000,0.00000,52,6,46,-10,48,7,72,14,ok,2,0,0.002,7,-0.85,-1.10,10.13,42,0.191,8.18
6.8980,-0.07505,-0.03665,0.68591,0.00000,0.00000,0.00000,52,6,44,-10,49,8,72,12,ok,2,0,0.002,7,-0.95,-0.49,9.47,43,0.000,8.18
6.9104,-0.07505,-0.03665,0.68591,0.00000,0.00000,0.00000,53,7,42,-10,49,7,72,10,ok,2,0,0.002,7,-0.95,-0.49,9.47,43,0.013,8.18
6.9330,-0.07505,-0.03665,0.68591,0.00000,0.00000,0.00000,55,7,39,-10,50,8,71,7,ok,2,0,0.002,7,-0.95,-0.49,9.47,43,0.025,8.18
6.9362,-0.07505,-0.03665,0.68591,0.00000,0.00000,0.00000,56,7,37,-9,51,7,71,5,ok,2,0,0.002,7,-0.95,-0.49,9.47,43,0.038,8.18
6.9490,-0.07505,-0.03665,0.68591,0.00000,0.00000,0.00000,56,7,34,-8,51,7,70,4,ok,2,0,0.002,7,-0.95,-0.49,9.47,43,0.051,8.18
6.9690,-0.07505,-0.03665,0.68591,0.00000,0.00000,0.00000,56,8,31,-7,52,8,68,2,ok,2,0,0.002,7,-0.95,-0.49,9.47,43,0.064,8.18
6.9738,-0.07505,-0.03665,0.68591,0.00000,0.00000,0.00000,57,8,27,-6,53,8,66,1,ok,2,0,0.002,7,-0.95,-0.49,9.47,43,0.076,8.18
6.9865,-0.07505,-0.03665,0.68591,0.00000,0.00000,0.00000,57,9,25,-4,54,8,65,0,ok,2,0,0.002,7,-0.95,-0.49,9.47,43,0.089,8.18
7.0090,-0.07505,-0.03665,0.68591,0.00000,0.00000,0.00000,58,10,21,-2,55,8,64,-2,ok,2,0,0.002,7,-0.95,-0.49,9.47,43,0.101,8.18
7.0122,-0.07505,-0.03665,0.68591,0.00000,0.00000,0.00000,59,10,20,-1,57,6,62,-3,ok,2,0,0.002,7,-0.95,-0.49,9.47,43,0.114,8.18
7.0248,-0.07505,-0.03665,0.68591,0.00000,0.00000,0.00000,59,10,19,1,58,7,60,-5,ok,2,0,0.002,7,-0.95,-0.49,9.47,43,0.127,8.18
7.0450,-0.07505,-0.03665,0.68591,0.00000,0.00000,0.00000,60,11,17,3,58,8,58,-5,ok,2,0,0.002,7,-0.95,-0.49,9.47,43,0.140,8.18
7.0498,-0.07505,-0.03665,0.68591,0.00000,0.00000,0.00000,60,11,15,6,59,8,55,-6,ok,2,0,0.002,7,-0.95,-0.49,9.47,43,0.152,8.18
7.0623,-0.07505,-0.03665,0.68591,0.00000,0.00000,0.00000,60,12,14,9,59,9,53,-6,ok,2,0,0.002,7,-0.95,-0.49,9.47,43,0.164,8.18
7.0850,-0.07505,-0.03665,0.68591,0.00000,0.00000,0.00000,60,12,13,11,60,10,50,-5,ok,2,0,0.002,7,-0.95,-0.49,9.47,43,0.177,8.18
7.0882,-0.07505,-0.03665,0.68591,0.00000,0.00000,0.00000,60,13,15,12,60,10,48,-5,ok,2,0,0.002,7,-0.95,-0.49,9.47,43,0.190,8.18
7.1011,-0.07505,-0.03665,0.68591,0.00000,0.00000,0.00000,60,14,16,11,60,11,45,-5,ok,2,0,0.002,7,-0.95,-0.49,9.47,43,0.203,8.18
7.1210,0.05236,0.06632,0.65275,0.00000,0.00000,0.00000,60,14,17,10,61,11,42,-4,ok,2,0,0.002,7,1.23,0.62,10.47,44,0.000,8.18
7.1260,0.05236,0.06632,0.65275,0.00000,0.00000,0.00000,60,15,19,9,61,12,40,-5,ok,2,0,0.002,7,1.23,0.62,10.47,44,0.012,8.18
7.1385,0.05236,0.06632,0.65275,0.00000,0.00000,0.00000,60,16,20,9,61,13,36,-3,ok,2,0,0.002,7,1.23,0.62,10.47,44,0.025,8.18
7.1610,0.05236,0.06632,0.65275,0.00000,0.00000,0.00000,60,17,21,8,61,13,34,-3,ok,2,0,0.002,7,1.23,0.62,10.47,44,0.038,8.18
7.1642,0.05236,0.06632,0.65275,0.00000,0.00000,0.00000,60,18,22,7,62,14,30,-1,ok,2,0,0.002,7,1.23,0.62,10.47,44,0.051,8.18
7.1768,0.05236,0.06632,0.65275,0.00000,0.00000,0.00000,62,20,23,6,63,14,29,0,ok,2,0,0.002,7,1.23,0.62,10.47,44,0.063,8.18
7.1970,0.05236,0.06632,0.65275,0.00000,0.00000,0.00000,62,21,24,5,63,15,27,1,ok,2,0,0.002,7,1.23,0.62,10.47,44,0.076,8.18
7.2020,0.05236,0.06632,0.65275,0.00000,0.00000,0.00000,62,22,24,4,63,16,25,4,ok,2,0,0.002,7,1.23,0.62,10.47,44,0.088,8.18
7.2144,0.05236,0.06632,0.65275,0.00000,0.00000,0.00000,62,23,25,4,63,17,24,7,ok,2,0,0.002,7,1.23,0.62,10.47,44,0.101,8.18
7.2370,0.05236,0.06632,0.65275,0.00000,0.00000,0.00000,62,24,25,3,64,18,23,10,ok,2,0,0.002,7,1.23,0.62,10.47,44,0.113,8.18
7.2402,0.05236,0.06632,0.65275,0.00000,0.00000,0.00000,61,26,27,3,64,19,22,12,ok,2,0,0.002,7,1.23,0.62,10.47,44,0.127,8.18
7.2528,0.05236,0.06632,0.65275,0.00000,0.00000,0.00000,61,27,27,2,64,20,24,12,ok,2,0,0.002,7,1.23,0.62,10.47,44,0.140,8.18
7.2730,0.05236,0.06632,0.65275,0.00000,0.00000,0.00000,62,25,29,2,64,21,25,11,ok,2,0,0.002,7,1.23,0.62,10.47,44,0.152,8.18
7.2780,0.05236,0.06632,0.65275,0.00000,0.00000,0.00000,64,21,30,2,65,22,26,10,ok,2,0,0.002,7,1.23,0.62,10.47,44,0.164,8.18
7.2904,0.05236,0.06632,0.65275,0.00000,0.00000,0.00000,65,18,31,1,64,24,27,9,ok,2,0,0.002,7,1.23,0.62,10.47,44,0.177,8.18
7.3130,-0.03142,0.04712,0.73478,0.00000,0.00000,0.00000,66,13,32,2,64,25,28,10,ok,2,0,0.002,7,-1.02,-0.60,8.68,45,0.000,8.18
7.3164,-0.03142,0.04712,0.73478,0.00000,0.00000,0.00000,67,11,34,2,65,26,29,9,ok,2,0,0.002,7,-1.02,-0.60,8.68,45,0.013,8.18
7.3290,-0.03142,0.04712,0.73478,0.00000,0.00000,0.00000,66,10,36,2,64,28,31,8,ok,2,0,0.002,7,-1.02,-0.60,8.68,45,0.026,8.18
7.3490,-0.03142,0.04712,0.73478,0.00000,0.00000,0.00000,66,7,37,2,63,29,33,8,ok,2,0,0.002,7,-1.02,-0.60,8.68,45,0.039,8.18
7.3539,-0.03142,0.04712,0.73478,0.00000,0.00000,0.00000,65,4,39,3,63,30,34,9,ok,2,0,0.002,7,-1.02,-0.60,8.68,45,0.051,8.18
7.3664,-0.03142,0.04712,0.73478,0.00000,0.00000,0.00000,65,1,40,3,64,32,35,8,ok,2,0,0.002,7,-1.02,-0.60,8.68,45,0.064,8.18
7.3890,-0.03142,0.04712,0.73478,0.00000,0.00000,0.00000,64,-1,42,3,63,34,36,8,ok,2,0,0.002,7,-1.02,-0.60,8.68,45,0.076,8.18
7.3922,-0.03142,0.04712,0.73478,0.00000,0.00000,0.00000,64,-3,43,3,63,35,37,8,ok,2,0,0.002,7,-1.02,-0.60,8.68,45,0.089,8.18
7.4049,-0.03142,0.04712,0.73478,0.00000,0.00000,0.00000,62,-4,44,3,64,36,38,8,ok,2,0,0.002,7,-1.02,-0.60,8.68,45,0.102,8.18
7.4250,-0.03142,0.04712,0.73478,0.00000,0.00000,0.00000,60,-5,44,3,65,35,39,8,ok,2,0,0.002,7,-1.02,-0.60,8.68,45,0.114,8.18
7.4298,-0.03142,0.04712,0.73478,0.00000,0.00000,0.00000,60,-7,45,3,67,33,41,7,ok,2,0,0.002,7,-1.02,-0.60,8.68,45,0.127,8.18
7.4423,-0.03142,0.04712,0.73478,0.00000,0.00000,0.00000,59,-8,47,3,69,29,42,7,ok,2,0,0.002,7,-1.02,-0.60,8.68,45,0.140,8.18
7.4650,-0.03142,0.04712,0.73478,0.00000,0.00000,0.00000,57,-9,48,4,71,24,43,7,ok,2,0,0.002,7,-1.02,-0.60,8.68,45,0.152,8.18
7.4684,-0.03142,0.04712,0.73478,0.00000,0.00000,0.00000,55,-10,49,4,73,22,44,7,ok,2,0,0.002,7,-1.02,-0.60,8.68,45,0.165,8.18
7.4808,-0.03142,0.04712,0.73478,0.00000,0.00000,0.00000,53,-10,49,4,73,21,45,7,ok,2,0,0.002,7,-1.02,-0.60,8.68,45,0.178,8.18
7.5010,-0.03142,0.04712,0.73478,0.00000,0.00000,0.00000,52,-11,50,6,73,18,46,7,ok,2,0,0.002,7,-1.02,-0.60,8.68,45,0.191,8.18
7.5061,0.11519,0.02793,0.72431,0.00000,0.00000,0.00000,49,-11,51,6,74,15,47,8,ok,2,0,0.002,7,0.25,1.28,10.14,46,0.000,8.18
7.5183,0.11519,0.02793,0.72431,0.00000,0.00000,0.00000,47,-11,52,6,73,12,48,7,ok,2,0,0.002,7,0.25,1.28,10.14,46,0.013,8.18
7.5410,0.11519,0.02793,0.72431,0.00000,0.00000,0.00000,45,-10,53,6,73,11,49,8,ok,2,0,0.002,7,0.25,1.28,10.14,46,0.025,8.18
7.5442,0.11519,0.02793,0.72431,0.00000,0.00000,0.00000,43,-10,53,7,72,7,49,8,ok,2,0,0.002,7,0.25,1.28,10.14,46,0.038,8.18
7.5568,0.11519,0.02793,0.72431,0.00000,0.00000,0.00000,40,-10,56,6,72,6,49,7,ok,2,0,0.002,7,0.25,1.28,10.14,46,0.051,8.18
7.5770,0.11519,0.02793,0.72431,0.00000,0.00000,0.00000,39,-9,56,6,71,4,50,8,ok,2,0,0.002,7,0.25,1.28,10.14,46,0.063,8.18
7.5818,0.11519,0.02793,0.72431,0.00000,0.00000,0.00000,36,-8,57,6,69,1,51,7,ok,2,0,0.002,7,0.25,1.28,10.14,46,0.076,8.18
7.5945,0.11519,0.02793,0.72431,0.00000,0.00000,0.00000,34,-6,57,7,66,2,52,8,ok,2,0,0.002,7,0.25,1.28,10.14,46,0.089,8.18
7.6170,0.11519,0.02793,0.72431,0.00000,0.00000,0.00000,31,-5,58,6,65,-1,53,7,ok,2,0,0.002,7,0.25,1.28,10.14,46,0.101,8.18
7.6202,0.11519,0.02793,0.72431,0.00000,0.00000,0.00000,29,-3,58,7,63,-2,54,8,ok,2,0,0.002,7,0.25,1.28,10.14,46,0.114,8.18
7.6328,0.11519,0.02793,0.72431,0.00000,0.00000,0.00000,26,-1,59,9,61,-3,55,8,ok,2,0,0.002,8,0.25,1.28,10.14,46,0.127,8.18
7.6530,0.11519,0.02793,0.72431,0.00000,0.00000,0.00000,25,-1,60,10,60,-5,54,7,ok,2,0,0.002,8,0.25,1.28,10.14,46,0.139,8.18
7.6579,0.11519,0.02793,0.72431,0.00000,0.00000,0.00000,24,-1,61,10,58,-5,57,5,ok,2,0,0.002,8,0.25,1.28,10.14,46,0.152,8.18
7.6704,0.11519,0.02793,0.72431,0.00000,0.00000,0.00000,23,2,61,11,55,-6,57,6,ok,2,0,0.002,8,0.25,1.28,10.14,46,0.165,8.18
7.6930,0.11519,0.02793,0.72431,0.00000,0.00000,0.00000,21,5,61,11,54,-7,58,7,ok,2,0,0.002,8,0.25,1.28,10.14,46,0.177,8.18
7.6962,0.11519,0.02793,0.72431,0.00000,0.00000,0.00000,20,8,61,12,51,-6,58,8,ok,2,0,0.002,8,0.25,1.28,10.14,46,0.190,8.18
7.7091,0.07505,0.06283,0.74002,0.00000,0.00000,0.00000,20,10,62,12,48,-5,59,8,ok,2,0,0.002,8,1.41,2.06,8.98,47,0.000,8.18
7.7290,0.07505,0.06283,0.74002,0.00000,0.00000,0.00000,21,11,62,13,45,-6,60,9,ok,2,0,0.002,8,1.41,2.06,8.98,47,0.012,8.18
7.7338,0.07505,0.06283,0.74002,0.00000,0.00000,0.00000,21,10,61,14,42,-5,60,9,ok,2,0,0.002,8,1.41,2.06,8.98,47,0.025,8.18
7.7464,0.07505,0.06283,0.74002,0.00000,0.00000,0.00000,23,9,62,14,40,-4,61,10,ok,2,0,0.002,8,1.41,2.06,8.98,47,0.038,8.18
7.7690,0.07505,0.06283,0.74002,0.00000,0.00000,0.00000,24,8,62,15,37,-4,61,11,ok,2,0,0.002,8,1.41,2.06,8.98,47,0.050,8.18
7.7722,0.07505,0.06283,0.74002,0.00000,0.00000,0.00000,24,8,62,15,34,-3,61,12,ok,2,0,0.002,8,1.41,2.06,8.98,47,0.063,8.18
7.7848,0.07505,0.06283,0.74002,0.00000,0.00000,0.00000,26,7,63,16,31,-1,61,12,ok,2,0,0.002,8,1.41,2.06,8.98,47,0.076,8.18
7.8050,0.07505,0.06283,0.74002,0.00000,0.00000,0.00000,26,6,63,17,29,0,62,13,ok,2,0,0.002,8,1.41,2.06,8.98,47,0.088,8.18
7.8098,0.07505,0.06283,0.74002,0.00000,0.00000,0.00000,28,5,64,18,28,2,62,14,ok,2,0,0.002,8,1.41,2.06,8.98,47,0.101,8.18
7.8223,0.07505,0.06283,0.74002,0.00000,0.00000,0.00000,28,4,64,19,25,5,63,15,ok,2,0,0.002,8,1.41,2.06,8.98,47,0.113,8.18
7.8450,0.07505,0.06283,0.74002,0.00000,0.00000,0.00000,29,4,64,21,24,8,63,16,ok,2,0,0.002,8,1.41,2.06,8.98,47,0.126,8.18
7.8482,0.07505,0.06283,0.74002,0.00000,0.00000,0.00000,30,3,64,22,23,11,63,17,ok,2,0,0.002,8,1.41,2.06,8.98,47,0.139,8.18
7.8608,0.07505,0.06283,0.74002,0.00000,0.00000,0.00000,31,3,64,23,22,14,64,17,ok,2,0,0.002,8,1.41,2.06,8.98,47,0.152,8.18
7.8810,0.07505,0.06283,0.74002,0.00000,0.00000,0.00000,32,3,63,25,24,14,64,18,ok,2,0,0.002,8,1.41,2.06,8.98,47,0.165,8.18
7.8860,0.07505,0.06283,0.74002,0.00000,0.00000,0.00000,32,2,63,27,24,14,64,19,ok,2,0,0.002,8,1.41,2.06,8.98,47,0.177,8.18
7.8984,0.07505,0.06283,0.74002,0.00000,0.00000,0.00000,33,2,64,25,25,12,64,20,ok,2,0,0.002,8,1.41,2.06,8.98,47,0.190,8.18
7.9210,-0.01222,0.03491,0.70337,0.00000,0.00000,0.00000,34,1,67,22,26,11,65,21,ok,2,0,0.002,8,-0.64,-0.89,10.00,48,0.000,8.18
7.9242,-0.01222,0.03491,0.70337,0.00000,0.00000,0.00000,36,1,69,19,28,11,65,22,ok,2,0,0.002,8,-0.64,-0.89,10.00,48,0.013,8.18
7.9368,-0.01222,0.03491,0.70337,0.00000,0.00000,0.00000,37,1,70,15,29,10,65,23,ok,2,0,0.002,8,-0.64,-0.89,10.00,48,0.026,8.18
7.9570,-0.01222,0.03491,0.70337,0.00000,0.00000,0.00000,38,1,71,13,30,9,65,25,ok,2,0,0.002,8,-0.64,-0.89,10.00,48,0.038,8.18
7.9618,-0.01222,0.03491,0.70337,0.00000,0.00000,0.00000,40,1,70,12,32,9,66,26,ok,2,0,0.002,8,-0.64,-0.89,10.00,48,0.051,8.18
7.9743,-0.01222,0.03491,0.70337,0.00000,0.00000,0.00000,40,1,70,9,32,9,65,28,ok,2,0,0.002,8,-0.64,-0.89,10.00,48,0.063,8.18
7.9970,-0.01222,0.03491,0.70337,0.00000,0.00000,0.00000,41,1,69,6,35,9,64,29,ok,2,0,0.002,8,-0.64,-0.89,10.00,48,0.076,8.18
8.0002,-0.01222,0.03491,0.70337,0.00000,0.00000,0.00000,43,1,69,3,36,9,65,31,ok,2,0,0.002,8,-0.64,-0.89,10.00,48,0.089,8.18
8.0128,-0.01222,0.03491,0.70337,0.00000,0.00000,0.00000,44,1,67,1,37,9,64,32,ok,2,0,0.002,8,-0.64,-0.89,10.00,48,0.102,8.18
8.0330,-0.01222,0.03491,0.70337,0.00000,0.00000,0.00000,44,1,66,-1,38,8,64,34,ok,2,0,0.002,8,-0.64,-0.89,10.00,48,0.115,8.18
8.0378,-0.01222,0.03491,0.70337,0.00000,0.00000,0.00000,45,2,65,-3,39,8,63,35,ok,2,0,0.002,8,-0.64,-0.89,10.00,48,0.127,8.18
8.0506,-0.01222,0.03491,0.70337,0.00000,0.00000,0.00000,46,2,62,-4,40,7,65,35,ok,2,0,0.002,8,-0.64,-0.89,10.00,48,0.140,8.18
8.0730,-0.01222,0.03491,0.70337,0.00000,0.00000,0.00000,47,3,61,-6,42,7,66,34,ok,2,0,0.002,8,-0.64,-0.89,10.00,48,0.152,8.18
8.0762,-0.01222,0.03491,0.70337,0.00000,0.00000,0.00000,48,3,60,-8,43,7,67,32,ok,2,0,0.002,8,-0.64,-0.89,10.00,48,0.165,8.18
8.0888,-0.01222,0.03491,0.70337,0.00000,0.00000,0.00000,49,3,58,-8,44,7,69,27,ok,2,0,0.002,8,-0.64,-0.89,10.00,48,0.178,8.18
8.1090,-0.01222,0.03491,0.70337,0.00000,0.00000,0.00000,50,3,56,-9,44,7,71,23,ok,2,0,0.002,8,-0.64,-0.89,10.00,48,0.190,8.18
8.1141,-0.01222,0.03491,0.70337,0.00000,0.00000,0.00000,50,3,53,-9,46,7,72,20,ok,2,0,0.002,8,-0.64,-0.89,10.00,48,0.203,8.18
8.1266,-0.10123,0.00175,0.80111,0.00000,0.00000,0.00000,50,5,51,-10,47,7,73,20,ok,2,0,0.002,8,-1.51,-0.25,10.73,49,0.000,8.18
8.1490,-0.10123,0.00175,0.80111,0.00000,0.00000,0.00000,52,6,49,-10,47,7,73,18,ok,2,0,0.002,8,-1.51,-0.25,10.73,49,0.013,8.18
8.1522,-0.10123,0.00175,0.80111,0.00000,0.00000,0.00000,52,5,46,-10,48,7,73,14,ok,2,0,0.002,8,-1.51,-0.25,10.73,49,0.026,8.18
8.1650,-0.10123,0.00175,0.80111,0.00000,0.00000,0.00000,52,6,44,-10,49,7,73,12,ok,2,0,0.002,8,-1.51,-0.25,10.73,49,0.039,8.18
8.1850,-0.10123,0.00175,0.80111,0.00000,0.00000,0.00000,53,6,41,-10,49,7,72,10,ok,2,0,0.002,8,-1.51,-0.25,10.73,49,0.051,8.18
8.1898,-0.10123,0.00175,0.80111,0.00000,0.00000,0.00000,55,6,39,-10,50,8,71,7,ok,2,0,0.002,8,-1.51,-0.25,10.73,49,0.064,8.18
8.2024,-0.10123,0.00175,0.80111,0.00000,0.00000,0.00000,55,6,37,-9,51,7,71,5,ok,2,0,0.002,8,-1.51,-0.25,10.73,49,0.076,8.18
8.2250,-0.10123,0.00175,0.80111,0.00000,0.00000,0.00000,56,7,33,-8,52,7,70,4,ok,2,0,0.002,8,-1.51,-0.25,10.73,49,0.089,8.18
8.2284,-0.10123,0.00175,0.80111,0.00000,0.00000,0.00000,56,7,31,-7,52,8,68,2,ok,2,0,0.002,8,-1.51,-0.25,10.73,49,0.102,8.18
8.2407,-0.10123,0.00175,0.80111,0.00000,0.00000,0.00000,56,7,27,-6,54,8,66,1,ok,2,0,0.002,8,-1.51,-0.25,10.73,49,0.115,8.18
8.2610,-0.10123,0.00175,0.80111,0.00000,0.00000,0.00000,57,8,25,-4,55,8,65,0,ok,2,0,0.002,8,-1.51,-0.25,10.73,49,0.127,8.18
8.2658,-0.10123,0.00175,0.80111,0.00000,0.00000,0.00000,58,10,21,-2,55,8,64,-2,ok,2,0,0.002,8,-1.51,-0.25,10.73,49,0.139,8.18
8.2783,-0.10123,0.00175,0.80111,0.00000,0.00000,0.00000,58,10,19,-1,57,6,62,-3,ok,2,0,0.002,8,-1.51,-0.25,10.73,49,0.152,8.18
8.3010,-0.10123,0.00175,0.80111,0.00000,0.00000,0.00000,59,10,18,0,58,7,60,-5,ok,2,0,0.002,8,-1.51,-0.25,10.73,49,0.165,8.18
8.3044,-0.10123,0.00175,0.80111,0.00000,0.00000,0.00000,59,11,16,3,58,8,58,-5,ok,2,0,0.002,8,-1.51,-0.25,10.73,49,0.178,8.18
8.3171,-0.00175,0.09599,0.79063,0.00000,0.00000,0.00000,60,11,15,6,59,8,55,-6,ok,2,0,0.002,8,1.00,1.02,10.07,50,0.000,8.18
8.3370,-0.00175,0.09599,0.79063,0.00000,0.00000,0.00000,59,12,13,9,59,9,53,-7,ok,2,0,0.002,8,1.00,1.02,10.07,50,0.012,8.18
8.3418,-0.00175,0.09599,0.79063,0.00000,0.00000,0.00000,60,12,13,12,60,10,50,-5,ok,2,0,0.002,8,1.00,1.02,10.07,50,0.025,8.18
8.3543,-0.00175,0.09599,0.79063,0.00000,0.00000,0.00000,60,13,14,12,60,10,47,-5,ok,2,0,0.002,8,1.00,1.02,10.07,50,0.038,8.18
8.3770,-0.00175,0.09599,0.79063,0.00000,0.00000,0.00000,59,14,15,11,61,11,45,-5,ok,2,0,0.002,8,1.00,1.02,10.07,50,0.050,8.18
8.3802,-0.00175,0.09599,0.79063,0.00000,0.00000,0.00000,60,14,16,10,61,11,42,-4,ok,2,0,0.002,8,1.00,1.02,10.07,50,0.063,8.18
8.3930,-0.00175,0.09599,0.79063,0.00000,0.00000,0.00000,60,15,18,9,61,12,40,-5,ok,2,0,0.002,8,1.00,1.02,10.07,50,0.076,8.18
8.4130,-0.00175,0.09599,0.79063,0.00000,0.00000,0.00000,60,16,19,8,61,13,37,-3,ok,2,0,0.002,8,1.00,1.02,10.07,50,0.089,8.18
8.4178,-0.00175,0.09599,0.79063,0.00000,0.00000,0.00000,60,17,20,7,62,13,35,-3,ok,2,0,0.002,8,1.00,1.02,10.07,50,0.101,8.18
8.4303,-0.00175,0.09599,0.79063,0.00000,0.00000,0.00000,60,18,21,7,62,14,31,-2,ok,2,0,0.002,8,1.00,1.02,10.07,50,0.113,8.18
8.4530,-0.00175,0.09599,0.79063,0.00000,0.00000,0.00000,61,19,22,6,63,14,30,-1,ok,2,0,0.002,8,1.00,1.02,10.07,50,0.126,8.18
8.4564,-0.00175,0.09599,0.79063,0.00000,0.00000,0.00000,61,20,23,5,63,16,28,1,ok,2,0,0.002,8,1.00,1.02,10.07,50,0.139,8.18
8.4688,-0.00175,0.09599,0.79063,0.00000,0.00000,0.00000,61,20,24,5,63,16,26,4,ok,2,0,0.002,8,1.00,1.02,10.07,50,0.152,8.18
8.4890,-0.00175,0.09599,0.79063,0.00000,0.00000,0.00000,61,22,25,4,63,17,25,6,ok,2,0,0.002,8,1.00,1.02,10.07,50,0.165,8.18
8.4938,-0.00175,0.09599,0.79063,0.00000,0.00000,0.00000,61,22,25,3,64,18,23,10,ok,2,0,0.002,8,1.00,1.02,10.07,50,0.177,8.18
8.5064,-0.00175,0.09599,0.79063,0.00000,0.00000,0.00000,60,25,26,3,64,19,23,12,ok,2,0,0.002,8,1.00,1.02,10.07,50,0.190,8.18
8.5290,-0.07156,0.07330,0.87441,0.00000,0.00000,0.00000,60,26,27,2,64,20,25,12,ok,2,0,0.002,8,1.17,-1.95,9.70,51,0.000,8.18
8.5322,-0.07156,0.07330,0.87441,0.00000,0.00000,0.00000,62,24,28,2,64,21,25,11,ok,2,0,0.002,8,1.17,-1.95,9.70,51,0.013,8.18
8.5450,-0.07156,0.07330,0.87441,0.00000,0.00000,0.00000,64,21,29,2,65,22,26,10,ok,2,0,0.002,8,1.17,-1.95,9.70,51,0.026,8.18
8.5650,-0.07156,0.07330,0.87441,0.00000,0.00000,0.00000,65,17,31,1,64,23,27,9,ok,2,0,0.002,8,1.17,-1.95,9.70,51,0.038,8.18
8.5698,-0.07156,0.07330,0.87441,0.00000,0.00000,0.00000,66,13,32,2,64,25,29,10,ok,2,0,0.002,8,1.17,-1.95,9.70,51,0.051,8.18
8.5824,-0.07156,0.07330,0.87441,0.00000,0.00000,0.00000,66,10,33,2,65,26,30,9,ok,2,0,0.002,8,1.17,-1.95,9.70,51,0.063,8.18
8.6050,-0.07156,0.07330,0.87441,0.00000,0.00000,0.00000,66,10,35,2,64,28,31,9,ok,2,0,0.002,8,1.17,-1.95,9.70,51,0.076,8.18
8.6084,-0.07156,0.07330,0.87441,0.00000,0.00000,0.00000,66,7,37,2,64,29,33,9,ok,2,0,0.002,8,1.17,-1.95,9.70,51,0.089,8.18
8.6208,-0.07156,0.07330,0.87441,0.00000,0.00000,0.00000,65,4,38,3,64,30,33,9,ok,2,0,0.002,8,1.17,-1.95,9.70,51,0.102,8.18
8.6410,-0.07156,0.07330,0.87441,0.00000,0.00000,0.00000,65,1,40,3,64,32,35,8,ok,2,0,0.002,8,1.17,-1.95,9.70,51,0.114,8.18
8.6460,-0.07156,0.07330,0.87441,0.00000,0.00000,0.00000,64,-1,41,3,64,34,36,8,ok,2,0,0.002,9,1.17,-1.95,9.70,51,0.127,8.18
8.6584,-0.07156,0.07330,0.87441,0.00000,0.00000,0.00000,63,-3,42,2,64,35,37,8,ok,2,0,0.002,9,1.17,-1.95,9.70,51,0.139,8.18
8.6810,-0.07156,0.07330,0.87441,0.00000,0.00000,0.00000,62,-4,44,3,64,35,38,8,ok,2,0,0.002,9,1.17,-1.95,9.70,51,0.152,8.18
8.6842,-0.07156,0.07330,0.87441,0.00000,0.00000,0.00000,60,-5,44,3,66,35,40,8,ok,2,0,0.002,9,1.17,-1.95,9.70,51,0.165,8.18
8.6968,-0.07156,0.07330,0.87441,0.00000,0.00000,0.00000,60,-6,45,3,67,33,41,7,ok,2,0,0.002,9,1.17,-1.95,9.70,51,0.178,8.18
8.7210,-0.07156,0.07330,0.87441,0.00000,0.00000,0.00000,59,-8,46,3,70,28,42,7,ok,2,0,0.002,9,1.17,-1.95,9.70,51,0.190,8.18
8.7243,-0.07156,0.07330,0.87441,0.00000,0.00000,0.00000,56,-9,48,4,71,24,44,7,ok,2,0,0.002,9,1.17,-1.95,9.70,51,0.205,8.18
8.7371,0.07679,0.06109,0.88488,0.00000,0.00000,0.00000,55,-10,49,3,73,22,44,7,ok,2,0,0.002,9,0.23,0.94,10.58,52,0.000,8.18
8.7570,0.07679,0.06109,0.88488,0.00000,0.00000,0.00000,53,-10,49,3,74,21,45,7,ok,2,0,0.002,9,0.23,0.94,10.58,52,0.013,8.18
8.7620,0.07679,0.06109,0.88488,0.00000,0.00000,0.00000,51,-11,49,5,74,19,46,7,ok,2,0,0.002,9,0.23,0.94,10.58,52,0.025,8.18
8.7743,0.07679,0.06109,0.88488,0.00000,0.00000,0.00000,49,-11,51,6,74,15,47,8,ok,2,0,0.002,9,0.23,0.94,10.58,52,0.038,8.18
8.7970,0.07679,0.06109,0.88488,0.00000,0.00000,0.00000,47,-10,52,5,74,12,48,8,ok,2,0,0.002,9,0.23,0.94,10.58,52,0.050,8.18
8.8001,0.07679,0.06109,0.88488,0.00000,0.00000,0.00000,45,-10,53,5,73,10,49,8,ok,2,0,0.002,9,0.23,0.94,10.58,52,0.063,8.18
8.8129,0.07679,0.06109,0.88488,0.00000,0.00000,0.00000,43,-10,53,6,72,7,49,8,ok,2,0,0.002,9,0.23,0.94,10.58,52,0.076,8.18
8.8330,0.07679,0.06109,0.88488,0.00000,0.00000,0.00000,40,-10,55,6,72,5,50,7,ok,2,0,0.002,9,0.23,0.94,10.58,52,0.089,8.18
8.8381,0.07679,0.06109,0.88488,0.00000,0.00000,0.00000,39,-9,56,6,71,4,51,8,ok,2,0,0.002,9,0.23,0.94,10.58,52,0.101,8.18
8.8503,0.07679,0.06109,0.88488,0.00000,0.00000,0.00000,36,-8,57,6,69,1,52,7,ok,2,0,0.002,9,0.23,0.94,10.58,52,0.114,8.18
8.8730,0.07679,0.06109,0.88488,0.00000,0.00000,0.00000,34,-7,57,7,66,2,52,8,ok,2,0,0.002,9,0.23,0.94,10.58,52,0.126,8.18
8.8761,0.07679,0.06109,0.88488,0.00000,0.00000,0.00000,31,-6,57,7,65,0,53,8,ok,2,0,0.002,9,0.23,0.94,10.58,52,0.139,8.18
8.8890,0.07679,0.06109,0.88488,0.00000,0.00000,0.00000,28,-4,58,8,64,-2,54,8,ok,2,0,0.002,9,0.23,0.94,10.58,52,0.152,8.18
8.9090,0.07679,0.06109,0.88488,0.00000,0.00000,0.00000,25,-2,59,9,61,-4,55,8,ok,2,0,0.002,9,0.23,0.94,10.58,52,0.164,8.18
8.9138,0.07679,0.06109,0.88488,0.00000,0.00000,0.00000,25,-2,60,11,60,-5,55,7,ok,2,0,0.002,9,0.23,0.94,10.58,52,0.177,8.18
8.9265,0.07679,0.06109,0.88488,0.00000,0.00000,0.00000,24,-1,60,10,59,-5,57,6,ok,2,0,0.002,9,0.23,0.94,10.58,52,0.189,8.18
8.9490,0.09076,0.02618,0.90757,0.00000,0.00000,0.00000,23,2,61,11,56,-6,57,7,ok,2,0,0.002,9,1.06,0.19,11.92,53,0.000,8.18
8.9521,0.09076,0.02618,0.90757,0.00000,0.00000,0.00000,21,5,61,11,54,-7,58,7,ok,2,0,0.002,9,1.06,0.19,11.92,53,0.013,8.18
8.9649,0.09076,0.02618,0.90757,0.00000,0.00000,0.00000,20,8,61,12,51,-6,59,8,ok,2,0,0.002,9,1.06,0.19,11.92,53,0.026,8.18
8.9850,0.09076,0.02618,0.90757,0.00000,0.00000,0.00000,19,10,61,12,48,-5,59,8,ok,2,0,0.002,9,1.06,0.19,11.92,53,0.039,8.18
8.9899,0.09076,0.02618,0.90757,0.00000,0.00000,0.00000,20,11,62,13,46,-5,60,9,ok,2,0,0.002,9,1.06,0.19,11.92,53,0.051,8.18
9.0023,0.09076,0.02618,0.90757,0.00000,0.00000,0.00000,21,11,61,13,43,-5,60,9,ok,2,0,0.002,9,1.06,0.19,11.92,53,0.064,8.18
9.0250,0.09076,0.02618,0.90757,0.00000,0.00000,0.00000,22,9,62,14,40,-4,61,10,ok,2,0,0.002,9,1.06,0.19,11.92,53,0.076,8.18
9.0281,0.09076,0.02618,0.90757,0.00000,0.00000,0.00000,24,9,62,14,37,-3,61,11,ok,2,0,0.002,9,1.06,0.19,11.92,53,0.089,8.18
9.0408,0.09076,0.02618,0.90757,0.00000,0.00000,0.00000,24,8,62,15,34,-3,61,12,ok,2,0,0.002,9,1.06,0.19,11.92,53,0.102,8.18
9.0610,0.09076,0.02618,0.90757,0.00000,0.00000,0.00000,26,7,63,15,31,-1,61,12,ok,2,0,0.002,9,1.06,0.19,11.92,53,0.115,8.18
9.0659,0.09076,0.02618,0.90757,0.00000,0.00000,0.00000,26,7,63,17,29,0,62,13,ok,2,0,0.002,9,1.06,0.19,11.92,53,0.127,8.18
9.0783,0.09076,0.02618,0.90757,0.00000,0.00000,0.00000,28,6,64,18,28,2,62,14,ok,2,0,0.002,9,1.06,0.19,11.92,53,0.140,8.18
9.1010,0.09076,0.02618,0.90757,0.00000,0.00000,0.00000,28,5,64,19,25,5,63,14,ok,2,0,0.002,9,1.06,0.19,11.92,53,0.152,8.18
9.1041,0.09076,0.02618,0.90757,0.00000,0.00000,0.00000,29,4,64,20,24,8,63,16,ok,2,0,0.002,9,1.06,0.19,11.92,53,0.165,8.18
9.1168,0.09076,0.02618,0.90757,0.00000,0.00000,0.00000,30,4,64,21,23,12,63,17,ok,2,0,0.002,9,1.06,0.19,11.92,53,0.178,8.18
9.1370,0.09076,0.02618,0.90757,0.00000,0.00000,0.00000,31,3,64,22,22,14,64,17,ok,2,0,0.002,9,1.06,0.19,11.92,53,0.191,8.18
9.1421,0.05760,0.12217,0.88488,0.00000,0.00000,0.00000,32,3,63,25,24,14,64,18,ok,2,0,0.002,9,1.35,0.94,11.06,54,0.000,8.18
9.1543,0.05760,0.12217,0.88488,0.00000,0.00000,0.00000,32,2,63,27,24,14,64,19,ok,2,0,0.002,9,1.35,0.94,11.06,54,0.013,8.18
9.1771,0.05760,0.12217,0.88488,0.00000,0.00000,0.00000,33,2,65,26,25,12,64,20,ok,2,0,0.002,9,1.35,0.94,11.06,54,0.025,8.18
9.1803,0.05760,0.12217,0.88488,0.00000,0.00000,0.00000,35,1,67,23,26,11,65,21,ok,2,0,0.002,9,1.35,0.94,11.06,54,0.039,8.18
9.1931,0.05760,0.12217,0.88488,0.00000,0.00000,0.00000,36,1,69,19,27,11,65,22,ok,2,0,0.002,9,1.35,0.94,11.06,54,0.051,8.18
9.2130,0.05760,0.12217,0.88488,0.00000,0.00000,0.00000,36,1,70,15,29,10,64,23,ok,2,0,0.002,9,1.35,0.94,11.06,54,0.064,8.18
9.2179,0.05760,0.12217,0.88488,0.00000,0.00000,0.00000,37,1,70,13,30,9,64,25,ok,2,0,0.002,9,1.35,0.94,11.06,54,0.076,8.18
9.2304,0.05760,0.12217,0.88488,0.00000,0.00000,0.00000,39,0,70,12,33,9,65,26,ok,2,0,0.002,9,1.35,0.94,11.06,54,0.089,8.18
9.2530,0.05760,0.12217,0.88488,0.00000,0.00000,0.00000,40,1,70,9,33,9,64,28,ok,2,0,0.002,9,1.35,0.94,11.06,54,0.101,8.18
9.2562,0.05760,0.12217,0.88488,0.00000,0.00000,0.00000,41,1,69,6,35,9,64,29,ok,2,0,0.002,9,1.35,0.94,11.06,54,0.114,8.18
9.2691,0.05760,0.12217,0.88488,0.00000,0.00000,0.00000,42,1,68,3,36,9,64,30,ok,2,0,0.002,9,1.35,0.94,11.06,54,0.127,8.18
9.2890,0.05760,0.12217,0.88488,0.00000,0.00000,0.00000,43,1,67,1,37,9,64,32,ok,2,0,0.002,9,1.35,0.94,11.06,54,0.140,8.18
9.2939,0.05760,0.12217,0.88488,0.00000,0.00000,0.00000,44,1,66,-2,39,8,64,34,ok,2,0,0.002,9,1.35,0.94,11.06,54,0.152,8.18
9.3063,0.05760,0.12217,0.88488,0.00000,0.00000,0.00000,45,2,64,-3,39,8,64,35,ok,2,0,0.002,9,1.35,0.94,11.06,54,0.165,8.18
9.3290,0.05760,0.12217,0.88488,0.00000,0.00000,0.00000,45,2,62,-4,41,7,65,35,ok,2,0,0.002,9,1.35,0.94,11.06,54,0.177,8.18
9.3322,0.05760,0.12217,0.88488,0.00000,0.00000,0.00000,46,2,61,-6,42,7,66,34,ok,2,0,0.002,9,1.35,0.94,11.06,54,0.190,8.18
9.3451,-0.13090,0.05760,0.95470,0.00000,0.00000,0.00000,47,2,60,-8,43,7,68,32,ok,2,0,0.002,9,-0.19,-0.92,8.81,55,0.000,8.18
9.3650,-0.13090,0.05760,0.95470,0.00000,0.00000,0.00000,48,2,57,-8,44,7,70,27,ok,2,0,0.002,9,-0.19,-0.92,8.81,55,0.013,8.18
9.3699,-0.13090,0.05760,0.95470,0.00000,0.00000,0.00000,50,2,55,-9,45,7,72,23,ok,2,0,0.002,9,-0.19,-0.92,8.81,55,0.025,8.18
9.3823,-0.13090,0.05760,0.95470,0.00000,0.00000,0.00000,50,2,53,-9,45,7,74,20,ok,2,0,0.002,9,-0.19,-0.92,8.81,55,0.038,8.18
9.4050,-0.13090,0.05760,0.95470,0.00000,0.00000,0.00000,50,3,51,-10,46,7,74,20,ok,2,0,0.002,9,-0.19,-0.92,8.81,55,0.050,8.18
9.4082,-0.13090,0.05760,0.95470,0.00000,0.00000,0.00000,51,4,48,-9,47,7,74,18,ok,2,0,0.002,9,-0.19,-0.92,8.81,55,0.063,8.18
9.4209,-0.13090,0.05760,0.95470,0.00000,0.00000,0.00000,52,4,46,-9,48,7,74,14,ok,2,0,0.002,9,-0.19,-0.92,8.81,55,0.076,8.18
9.4410,-0.13090,0.05760,0.95470,0.00000,0.00000,0.00000,52,4,44,-9,49,8,73,12,ok,2,0,0.002,9,-0.19,-0.92,8.81,55,0.089,8.18
9.4459,-0.13090,0.05760,0.95470,0.00000,0.00000,0.00000,52,5,41,-9,50,8,72,10,ok,2,0,0.002,9,-0.19,-0.92,8.81,55,0.101,8.18
9.4583,-0.13090,0.05760,0.95470,0.00000,0.00000,0.00000,55,5,39,-10,51,8,71,7,ok,2,0,0.002,9,-0.19,-0.92,8.81,55,0.114,8.18
9.4810,-0.13090,0.05760,0.95470,0.00000,0.00000,0.00000,55,6,36,-9,52,7,71,5,ok,2,0,0.002,9,-0.19,-0.92,8.81,55,0.126,8.18
9.4842,-0.13090,0.05760,0.95470,0.00000,0.00000,0.00000,56,7,33,-8,52,7,70,4,ok,2,0,0.002,9,-0.19,-0.92,8.81,55,0.139,8.18
9.4969,-0.13090,0.05760,0.95470,0.00000,0.00000,0.00000,56,8,30,-7,53,8,68,2,ok,2,0,0.002,9,-0.19,-0.92,8.81,55,0.152,8.18
9.5210,-0.13090,0.05760,0.95470,0.00000,0.00000,0.00000,56,8,27,-6,54,8,66,1,ok,2,0,0.003,9,-0.19,-0.92,8.81,55,0.165,8.18
9.5242,-0.13090,0.05760,0.95470,0.00000,0.00000,0.00000,57,9,24,-5,55,8,65,0,ok,2,0,0.003,9,-0.19,-0.92,8.81,55,0.179,8.18
9.5369,-0.13090,0.05760,0.95470,0.00000,0.00000,0.00000,58,10,20,-2,55,8,64,-2,ok,2,0,0.003,9,-0.19,-0.92,8.81,55,0.192,8.18
9.5570,-0.13090,0.05760,0.95470,0.00000,0.00000,0.00000,58,10,19,-1,58,6,62,-3,ok,2,0,0.003,9,-0.19,-0.92,8.81,55,0.205,8.18
9.5621,-0.03665,0.02269,0.97215,0.00000,0.00000,0.00000,59,10,18,1,58,7,60,-5,ok,2,0,0.003,9,0.68,-0.25,10.96,56,0.000,8.18
9.5744,-0.03665,0.02269,0.97215,0.00000,0.00000,0.00000,59,10,16,3,59,9,58,-5,ok,2,0,0.003,9,0.68,-0.25,10.96,56,0.013,8.18
9.5970,-0.03665,0.02269,0.97215,0.00000,0.00000,0.00000,59,11,14,5,59,9,55,-6,ok,2,0,0.003,9,0.68,-0.25,10.96,56,0.025,8.18
9.6003,-0.03665,0.02269,0.97215,0.00000,0.00000,0.00000,59,12,13,9,60,9,53,-6,ok,2,0,0.003,9,0.68,-0.25,10.96,56,0.038,8.18
9.6128,-0.03665,0.02269,0.97215,0.00000,0.00000,0.00000,59,12,12,11,60,10,50,-6,ok,2,0,0.003,9,0.68,-0.25,10.96,56,0.051,8.18
9.6330,-0.03665,0.02269,0.97215,0.00000,0.00000,0.00000,60,13,14,11,60,10,48,-5,ok,2,0,0.003,9,0.68,-0.25,10.96,56,0.064,8.18
9.6378,-0.03665,0.02269,0.97215,0.00000,0.00000,0.00000,59,14,15,11,61,11,46,-5,ok,2,0,0.003,9,0.68,-0.25,10.96,56,0.076,8.18
9.6506,-0.03665,0.02269,0.97215,0.00000,0.00000,0.00000,60,14,17,10,61,11,42,-5,ok,2,0,0.003,9,0.68,-0.25,10.96,56,0.089,8.18
9.6730,-0.03665,0.02269,0.97215,0.00000,0.00000,0.00000,60,15,19,9,61,12,41,-5,ok,2,0,0.003,9,0.68,-0.25,10.96,56,0.101,8.18
9.6763,-0.03665,0.02269,0.97215,0.00000,0.00000,0.00000,60,16,19,8,61,13,37,-4,ok,2,0,0.003,10,0.68,-0.25,10.96,56,0.114,8.18
9.6904,-0.03665,0.02269,0.97215,0.00000,0.00000,0.00000,60,17,21,7,62,13,35,-3,ok,2,0,0.003,10,0.68,-0.25,10.96,56,0.127,8.18
9.7090,-0.03665,0.02269,0.97215,0.00000,0.00000,0.00000,60,18,21,7,62,14,31,-2,ok,2,0,0.003,10,0.68,-0.25,10.96,56,0.140,8.18
9.7139,-0.03665,0.02269,0.97215,0.00000,0.00000,0.00000,61,19,23,6,63,14,30,0,ok,2,0,0.003,10,0.68,-0.25,10.96,56,0.152,8.18
9.7264,-0.03665,0.02269,0.97215,0.00000,0.00000,0.00000,61,20,24,5,63,15,28,1,ok,2,0,0.003,10,0.68,-0.25,10.96,56,0.165,8.18
9.7490,-0.03665,0.02269,0.97215,0.00000,0.00000,0.00000,62,21,24,5,62,16,26,4,ok,2,0,0.003,10,0.68,-0.25,10.96,56,0.177,8.18
9.7524,-0.03316,0.09250,1.02102,0.00000,0.00000,0.00000,62,22,26,4,63,17,24,7,ok,2,0,0.003,10,2.15,-0.94,9.75,57,0.000,8.18
9.7648,-0.03316,0.09250,1.02102,0.00000,0.00000,0.00000,62,23,26,3,63,18,23,11,ok,2,0,0.003,10,2.15,-0.94,9.75,57,0.013,8.18
9.7850,-0.03316,0.09250,1.02102,0.00000,0.00000,0.00000,61,26,27,3,63,19,23,13,ok,2,0,0.003,10,2.15,-0.94,9.75,57,0.025,8.18
9.7898,-0.03316,0.09250,1.02102,0.00000,0.00000,0.00000,61,27,27,2,64,20,25,12,ok,2,0,0.003,10,2.15,-0.94,9.75,57,0.038,8.18
9.8026,-0.03316,0.09250,1.02102,0.00000,0.00000,0.00000,62,25,29,2,64,21,25,11,ok,2,0,0.003,10,2.15,-0.94,9.75,57,0.050,8.18
9.8250,-0.03316,0.09250,1.02102,0.00000,0.00000,0.00000,64,21,30,2,65,22,25,10,ok,2,0,0.003,10,2.15,-0.94,9.75,57,0.063,8.18
9.8282,-0.03316,0.09250,1.02102,0.00000,0.00000,0.00000,65,18,31,2,64,23,27,9,ok,2,0,0.003,10,2.15,-0.94,9.75,57,0.076,8.18
9.8408,-0.03316,0.09250,1.02102,0.00000,0.00000,0.00000,66,13,32,2,64,25,28,10,ok,2,0,0.003,10,2.15,-0.94,9.75,57,0.089,8.18
9.8610,-0.03316,0.09250,1.02102,0.00000,0.00000,0.00000,66,11,33,2,65,26,29,9,ok,2,0,0.003,10,2.15,-0.94,9.75,57,0.101,8.18
9.8658,-0.03316,0.09250,1.02102,0.00000,0.00000,0.00000,66,11,35,2,64,28,30,9,ok,2,0,0.003,10,2.15,-0.94,9.75,57,0.114,8.18
9.8784,-0.03316,0.09250,1.02102,0.00000,0.00000,0.00000,66,7,36,2,64,29,33,9,ok,2,0,0.003,10,2.15,-0.94,9.75,57,0.126,8.18
9.9010,-0.03316,0.09250,1.02102,0.00000,0.00000,0.00000,65,5,38,3,64,30,33,9,ok,2,0,0.003,10,2.15,-0.94,9.75,57,0.139,8.18
9.9041,-0.03316,0.09250,1.02102,0.00000,0.00000,0.00000,64,2,40,3,64,32,35,8,ok,2,0,0.003,10,2.15,-0.94,9.75,57,0.152,8.18
9.9170,-0.03316,0.09250,1.02102,0.00000,0.00000,0.00000,64,-1,41,3,64,34,36,8,ok,2,0,0.003,10,2.15,-0.94,9.75,57,0.165,8.18
9.9370,-0.03316,0.09250,1.02102,0.00000,0.00000,0.00000,63,-3,42,2,64,35,37,8,ok,2,0,0.003,10,2.15,-0.94,9.75,57,0.177,8.18
9.9418,-0.03316,0.09250,1.02102,0.00000,0.00000,0.00000,62,-4,44,3,64,36,38,8,ok,2,0,0.003,10,2.15,-0.94,9.75,57,0.190,8.18
9.9547,-0.03316,0.09250,1.02102,0.00000,0.00000,0.00000,60,-5,44,3,66,35,39,8,ok,2,0,0.003,10,2.15,-0.94,9.75,57,0.202,8.18
9.9770,0.02094,0.02094,1.10479,0.00000,0.00000,0.00000,59,-6,45,3,67,33,41,7,ok,2,0,0.003,10,1.67,1.42,10.11,58,0.000,8.18
9.9804,0.02094,0.02094,1.10479,0.00000,0.00000,0.00000,58,-9,46,3,70,29,42,7,ok,2,0,0.003,10,1.67,1.42,10.11,58,0.013,8.18
9.9928,0.02094,0.02094,1.10479,0.00000,0.00000,0.00000,56,-9,47,4,71,25,43,7,ok,2,0,0.003,10,1.67,1.42,10.11,58,0.026,8.18
10.0130,0.02094,0.02094,1.10479,0.00000,0.00000,0.00000,55,-10,49,3,73,22,44,7,ok,2,0,0.003,10,1.67,1.42,10.11,58,0.039,8.18
10.0178,0.02094,0.02094,1.10479,0.00000,0.00000,0.00000,53,-10,49,3,74,21,45,7,ok,2,0,0.003,10,1.67,1.42,10.11,58,0.051,8.18
10.0369,0.02094,0.02094,1.10479,0.00000,0.00000,0.00000,52,-11,49,5,74,19,46,7,ok,2,0,0.003,10,1.67,1.42,10.11,58,0.064,8.18
10.0530,0.02094,0.02094,1.10479,0.00000,0.00000,0.00000,49,-11,51,6,74,15,47,7,ok,2,0,0.003,10,1.67,1.42,10.11,58,0.076,8.18
10.0562,0.02094,0.02094,1.10479,0.00000,0.00000,0.00000,48,-10,52,5,73,12,48,7,ok,2,0,0.003,10,1.67,1.42,10.11,58,0.089,8.18
10.0688,0.02094,0.02094,1.10479,0.00000,0.00000,0.00000,45,-10,53,6,73,10,49,7,ok,2,0,0.003,10,1.67,1.42,10.11,58,0.102,8.18
10.0890,0.02094,0.02094,1.10479,0.00000,0.00000,0.00000,43,-10,53,7,72,7,49,8,ok,2,0,0.003,10,1.67,1.42,10.11,58,0.114,8.18
10.0938,0.02094,0.02094,1.10479,0.00000,0.00000,0.00000,41,-11,55,7,72,5,50,7,ok,2,0,0.003,10,1.67,1.42,10.11,58,0.127,8.18
10.1063,0.02094,0.02094,1.10479,0.00000,0.00000,0.00000,39,-10,56,7,70,4,51,8,ok,2,0,0.003,10,1.67,1.42,10.11,58,0.139,8.18
10.1290,0.02094,0.02094,1.10479,0.00000,0.00000,0.00000,36,-9,57,7,69,1,52,7,ok,2,0,0.003,10,1.67,1.42,10.11,58,0.152,8.18
10.1322,0.02094,0.02094,1.10479,0.00000,0.00000,0.00000,34,-8,57,8,66,2,52,8,ok,2,0,0.003,10,1.67,1.42,10.11,58,0.165,8.18
10.1448,0.02094,0.02094,1.10479,0.00000,0.00000,0.00000,31,-6,58,8,64,-1,53,8,ok,2,0,0.003,10,1.67,1.42,10.11,58,0.178,8.18
10.1690,0.02094,0.02094,1.10479,0.00000,0.00000,0.00000,29,-4,58,8,63,-2,54,9,ok,2,0,0.003,10,1.67,1.42,10.11,58,0.191,8.18
10.1724,0.10647,-0.04538,1.08559,0.00000,0.00000,0.00000,26,-2,59,9,61,-4,55,8,ok,2,0,0.003,10,-0.76,0.96,9.96,59,0.000,8.18
10.1849,0.10647,-0.04538,1.08559,0.00000,0.00000,0.00000,25,-2,60,10,61,-5,55,8,ok,2,0,0.003,10,-0.76,0.96,9.96,59,0.013,8.18
10.2050,0.10647,-0.04538,1.08559,0.00000,0.00000,0.00000,24,0,61,10,59,-5,56,6,ok,2,0,0.003,10,-0.76,0.96,9.96,59,0.025,8.18
10.2101,0.10647,-0.04538,1.08559,0.00000,0.00000,0.00000,23,2,61,11,56,-6,57,7,ok,2,0,0.003,10,-0.76,0.96,9.96,59,0.038,8.18
10.2224,0.10647,-0.04538,1.08559,0.00000,0.00000,0.00000,22,6,61,10,54,-6,58,7,ok,2,0,0.003,10,-0.76,0.96,9.96,59,0.050,8.18
10.2450,0.10647,-0.04538,1.08559,0.00000,0.00000,0.00000,20,9,61,11,51,-6,58,8,ok,2,0,0.003,10,-0.76,0.96,9.96,59,0.063,8.18
10.2481,0.10647,-0.04538,1.08559,0.00000,0.00000,0.00000,20,12,62,11,48,-5,59,8,ok,2,0,0.003,10,-0.76,0.96,9.96,59,0.076,8.18
10.2608,0.10647,-0.04538,1.08559,0.00000,0.00000,0.00000,21,12,62,12,46,-5,60,9,ok,2,0,0.003,10,-0.76,0.96,9.96,59,0.089,8.18
10.2810,0.10647,-0.04538,1.08559,0.00000,0.00000,0.00000,22,12,62,13,42,-5,59,9,ok,2,0,0.003,10,-0.76,0.96,9.96,59,0.101,8.18
10.2861,0.10647,-0.04538,1.08559,0.00000,0.00000,0.00000,23,11,63,13,40,-4,60,10,ok,2,0,0.003,10,-0.76,0.96,9.96,59,0.114,8.18
10.2983,0.10647,-0.04538,1.08559,0.00000,0.00000,0.00000,24,10,62,14,37,-3,60,11,ok,2,0,0.003,10,-0.76,0.96,9.96,59,0.126,8.18
10.3210,0.10647,-0.04538,1.08559,0.00000,0.00000,0.00000,25,9,63,14,34,-3,61,12,ok,2,0,0.003,10,-0.76,0.96,9.96,59,0.139,8.18
10.3241,0.10647,-0.04538,1.08559,0.00000,0.00000,0.00000,27,8,63,16,31,-1,61,13,ok,2,0,0.003,10,-0.76,0.96,9.96,59,0.152,8.18
10.3369,0.10647,-0.04538,1.08559,0.00000,0.00000,0.00000,27,7,63,17,29,0,62,13,ok,2,0,0.003,10,-0.76,0.96,9.96,59,0.165,8.18
10.3570,0.10647,-0.04538,1.08559,0.00000,0.00000,0.00000,28,6,65,18,27,2,62,14,ok,2,0,0.003,10,-0.76,0.96,9.96,59,0.177,8.18
10.3620,0.10647,-0.04538,1.08559,0.00000,0.00000,0.00000,29,5,65,19,25,5,63,15,ok,2,0,0.003,10,-0.76,0.96,9.96,59,0.190,8.18
10.3746,-0.03840,0.06109,1.12574,0.00000,0.00000,0.00000,30,5,65,20,24,8,63,16,ok,2,0,0.003,10,1.88,0.62,8.59,60,0.000,8.18
10.3970,-0.03840,0.06109,1.12574,0.00000,0.00000,0.00000,31,4,65,22,22,11,63,17,ok,2,0,0.003,10,1.88,0.62,8.59,60,0.013,8.18
10.4001,-0.03840,0.06109,1.12574,0.00000,0.00000,0.00000,32,3,65,23,21,14,64,18,ok,2,0,0.003,10,1.88,0.62,8.59,60,0.026,8.18
10.4129,-0.03840,0.06109,1.12574,0.00000,0.00000,0.00000,32,3,64,26,23,13,64,18,ok,2,0,0.003,10,1.88,0.62,8.59,60,0.038,8.18
10.4330,-0.03840,0.06109,1.12574,0.00000,0.00000,0.00000,33,2,63,28,23,13,64,19,ok,2,0,0.003,10,1.88,0.62,8.59,60,0.051,8.18
10.4379,-0.03840,0.06109,1.12574,0.00000,0.00000,0.00000,34,1,64,27,24,11,64,20,ok,2,0,0.003,10,1.88,0.62,8.59,60,0.063,8.18
10.4505,-0.03840,0.06109,1.12574,0.00000,0.00000,0.00000,34,0,67,24,26,10,65,21,ok,2,0,0.003,10,1.88,0.62,8.59,60,0.076,8.18
10.4730,-0.03840,0.06109,1.12574,0.00000,0.00000,0.00000,36,0,69,20,27,11,65,22,ok,2,0,0.003,10,1.88,0.62,8.59,60,0.088,8.18
10.4762,-0.03840,0.06109,1.12574,0.00000,0.00000,0.00000,37,0,70,16,29,10,64,24,ok,2,0,0.003,10,1.88,0.62,8.59,60,0.102,8.18
10.4891,-0.03840,0.06109,1.12574,0.00000,0.00000,0.00000,38,0,71,14,30,9,65,26,ok,2,0,0.003,10,1.88,0.62,8.59,60,0.115,8.18
10.5090,-0.03840,0.06109,1.12574,0.00000,0.00000,0.00000,39,0,70,13,32,9,65,26,ok,2,0,0.003,10,1.88,0.62,8.59,60,0.127,8.18
10.5138,-0.03840,0.06109,1.12574,0.00000,0.00000,0.00000,40,1,70,9,32,9,65,28,ok,2,0,0.003,10,1.88,0.62,8.59,60,0.140,8.18
10.5263,-0.03840,0.06109,1.12574,0.00000,0.00000,0.00000,41,2,69,6,35,9,64,30,ok,2,0,0.003,10,1.88,0.62,8.59,60,0.152,8.18
10.5490,-0.03840,0.06109,1.12574,0.00000,0.00000,0.00000,43,2,69,3,36,8,64,31,ok,2,0,0.003,10,1.88,0.62,8.59,60,0.165,8.18
10.5523,-0.03840,0.06109,1.12574,0.00000,0.00000,0.00000,44,2,67,0,37,9,64,32,ok,2,0,0.003,10,1.88,0.62,8.59,60,0.178,8.18
10.5649,-0.03840,0.06109,1.12574,0.00000,0.00000,0.00000,44,2,66,-2,38,8,64,34,ok,2,0,0.003,10,1.88,0.62,8.59,60,0.191,8.18
10.5850,-0.03840,0.06109,1.12574,0.00000,0.00000,0.00000,46,2,64,-3,39,8,64,35,ok,2,0,0.003,10,1.88,0.62,8.59,60,0.203,8.18
10.5901,-0.13788,0.02967,1.15017,0.00000,0.00000,0.00000,46,2,62,-4,41,7,65,35,ok,2,0,0.003,10,1.22,-1.77,10.65,61,0.000,8.18
10.6025,-0.13788,0.02967,1.15017,0.00000,0.00000,0.00000,47,3,61,-6,42,7,66,35,ok,2,0,0.003,10,1.22,-1.77,10.65,61,0.013,8.18
10.6250,-0.13788,0.02967,1.15017,0.00000,0.00000,0.00000,48,3,60,-8,43,7,68,32,ok,2,0,0.003,10,1.22,-1.77,10.65,61,0.025,8.18
10.6282,-0.13788,0.02967,1.15017,0.00000,0.00000,0.00000,49,3,58,-8,44,7,70,27,ok,2,0,0.003,10,1.22,-1.77,10.65,61,0.038,8.18
10.6408,-0.13788,0.02967,1.15017,0.00000,0.00000,0.00000,50,3,55,-9,44,7,71,23,ok,2,0,0.003,10,1.22,-1.77,10.65,61,0.051,8.18
10.6610,-0.13788,0.02967,1.15017,0.00000,0.00000,0.00000,50,2,53,-9,46,7,73,21,ok,2,0,0.003,10,1.22,-1.77,10.65,61,0.064,8.18
10.6658,-0.13788,0.02967,1.15017,0.00000,0.00000,0.00000,51,4,51,-10,47,7,73,20,ok,2,0,0.003,10,1.22,-1.77,10.65,61,0.076,8.18
10.6783,-0.13788,0.02967,1.15017,0.00000,0.00000,0.00000,52,5,49,-10,47,7,73,18,ok,2,0,0.003,10,1.22,-1.77,10.65,61,0.089,8.18
10.7012,-0.13788,0.02967,1.15017,0.00000,0.00000,0.00000,52,5,46,-10,49,7,73,15,ok,2,0,0.003,11,1.22,-1.77,10.65,61,0.101,8.18
10.7046,-0.13788,0.02967,1.15017,0.00000,0.00000,0.00000,52,5,44,-9,49,7,72,12,ok,2,0,0.003,11,1.22,-1.77,10.65,61,0.115,8.18
10.7174,-0.13788,0.02967,1.15017,0.00000,0.00000,0.00000,53,6,41,-10,50,7,72,11,ok,2,0,0.003,11,1.22,-1.77,10.65,61,0.127,8.18
10.7370,-0.13788,0.02967,1.15017,0.00000,0.00000,0.00000,55,7,39,-10,50,8,71,7,ok,2,0,0.003,11,1.22,-1.77,10.65,61,0.140,8.18
10.7423,-0.13788,0.02967,1.15017,0.00000,0.00000,0.00000,55,7,37,-9,52,7,71,6,ok,2,0,0.003,11,1.22,-1.77,10.65,61,0.152,8.18
10.7547,-0.13788,0.02967,1.15017,0.00000,0.00000,0.00000,56,7,33,-9,52,7,70,4,ok,2,0,0.003,11,1.22,-1.77,10.65,61,0.165,8.18
10.7810,-0.13788,0.02967,1.15017,0.00000,0.00000,0.00000,56,8,30,-7,52,7,68,2,ok,2,0,0.003,11,1.22,-1.77,10.65,61,0.177,8.18
10.7844,-0.14661,0.03142,1.18159,0.00000,0.00000,0.00000,56,8,27,-6,53,8,66,2,ok,2,0,0.003,11,1.02,-1.68,12.18,62,0.000,8.18
10.7969,-0.14661,0.03142,1.18159,0.00000,0.00000,0.00000,57,9,24,-4,54,8,65,0,ok,2,0,0.003,11,1.02,-1.68,12.18,62,0.013,8.18
10.8170,-0.14661,0.03142,1.18159,0.00000,0.00000,0.00000,58,10,20,-2,55,8,64,-2,ok,2,0,0.003,11,1.02,-1.68,12.18,62,0.025,8.18
10.8219,-0.14661,0.03142,1.18159,0.00000,0.00000,0.00000,58,10,19,-1,58,6,62,-3,ok,2,0,0.003,11,1.02,-1.68,12.18,62,0.038,8.18
10.8343,-0.14661,0.03142,1.18159,0.00000,0.00000,0.00000,59,10,18,0,58,7,60,-4,ok,2,0,0.003,11,1.02,-1.68,12.18,62,0.050,8.18
10.8570,-0.14661,0.03142,1.18159,0.00000,0.00000,0.00000,59,11,16,3,59,8,58,-5,ok,2,0,0.003,11,1.02,-1.68,12.18,62,0.063,8.18
10.8601,-0.14661,0.03142,1.18159,0.00000,0.00000,0.00000,59,11,15,6,59,8,56,-6,ok,2,0,0.003,11,1.02,-1.68,12.18,62,0.076,8.18
10.8728,-0.14661,0.03142,1.18159,0.00000,0.00000,0.00000,59,12,13,9,60,9,54,-6,ok,2,0,0.003,11,1.02,-1.68,12.18,62,0.089,8.18
10.8930,-0.14661,0.03142,1.18159,0.00000,0.00000,0.00000,60,12,12,12,60,9,50,-5,ok,2,0,0.003,11,1.02,-1.68,12.18,62,0.101,8.18
10.8978,-0.14661,0.03142,1.18159,0.00000,0.00000,0.00000,60,13,14,12,60,9,48,-5,ok,2,0,0.003,11,1.02,-1.68,12.18,62,0.114,8.18
10.9103,-0.14661,0.03142,1.18159,0.00000,0.00000,0.00000,60,14,15,11,61,10,46,-5,ok,2,0,0.003,11,1.02,-1.68,12.18,62,0.126,8.18
10.9330,-0.14661,0.03142,1.18159,0.00000,0.00000,0.00000,60,14,16,10,61,11,43,-4,ok,2,0,0.003,11,1.02,-1.68,12.18,62,0.139,8.18
10.9362,-0.14661,0.03142,1.18159,0.00000,0.00000,0.00000,60,15,18,9,61,12,41,-4,ok,2,0,0.003,11,1.02,-1.68,12.18,62,0.152,8.18
10.9491,-0.14661,0.03142,1.18159,0.00000,0.00000,0.00000,60,15,19,9,61,12,37,-3,ok,2,0,0.003,11,1.02,-1.68,12.18,62,0.165,8.18
10.9690,-0.14661,0.03142,1.18159,0.00000,0.00000,0.00000,60,16,21,8,62,13,35,-3,ok,2,0,0.003,11,1.02,-1.68,12.18,62,0.177,8.18
10.9739,-0.14661,0.03142,1.18159,0.00000,0.00000,0.00000,60,18,21,7,62,14,31,-1,ok,2,0,0.003,11,1.02,-1.68,12.18,62,0.190,8.18
10.9866,-0.02618,0.09425,1.24617,0.00000,0.00000,0.00000,62,19,23,6,63,14,30,0,ok,2,0,0.003,11,1.44,-0.45,10.79,63,0.000,8.18
11.0090,-0.02618,0.09425,1.24617,0.00000,0.00000,0.00000,61,20,24,5,63,15,27,2,ok,2,0,0.003,11,1.44,-0.45,10.79,63,0.013,8.18
11.0122,-0.02618,0.09425,1.24617,0.00000,0.00000,0.00000,62,21,24,4,63,16,25,5,ok,2,0,0.003,11,1.44,-0.45,10.79,63,0.026,8.18
11.0249,-0.02618,0.09425,1.24617,0.00000,0.00000,0.00000,62,23,25,4,63,17,24,7,ok,2,0,0.003,11,1.44,-0.45,10.79,63,0.039,8.18
11.0450,-0.02618,0.09425,1.24617,0.00000,0.00000,0.00000,62,24,25,3,64,17,23,11,ok,2,0,0.003,11,1.44,-0.45,10.79,63,0.051,8.18
11.0499,-0.02618,0.09425,1.24617,0.00000,0.00000,0.00000,61,27,26,2,64,19,22,13,ok,2,0,0.003,11,1.44,-0.45,10.79,63,0.063,8.18
11.0623,-0.02618,0.09425,1.24617,0.00000,0.00000,0.00000,61,27,27,1,64,20,24,12,ok,2,0,0.003,11,1.44,-0.45,10.79,63,0.076,8.18
11.0850,-0.02618,0.09425,1.24617,0.00000,0.00000,0.00000,62,26,28,1,64,21,25,12,ok,2,0,0.003,11,1.44,-0.45,10.79,63,0.089,8.18
11.0881,-0.02618,0.09425,1.24617,0.00000,0.00000,0.00000,64,22,29,1,65,22,26,10,ok,2,0,0.003,11,1.44,-0.45,10.79,63,0.102,8.18
11.1011,-0.02618,0.09425,1.24617,0.00000,0.00000,0.00000,66,19,30,1,64,23,27,9,ok,2,0,0.003,11,1.44,-0.45,10.79,63,0.114,8.18
11.1210,-0.02618,0.09425,1.24617,0.00000,0.00000,0.00000,66,14,32,1,64,25,28,10,ok,2,0,0.003,11,1.44,-0.45,10.79,63,0.127,8.18
11.1258,-0.02618,0.09425,1.24617,0.00000,0.00000,0.00000,66,11,33,2,65,25,29,9,ok,2,0,0.003,11,1.44,-0.45,10.79,63,0.139,8.18
11.1384,-0.02618,0.09425,1.24617,0.00000,0.00000,0.00000,66,10,35,2,64,28,30,9,ok,2,0,0.003,11,1.44,-0.45,10.79,63,0.152,8.18
11.1610,-0.02618,0.09425,1.24617,0.00000,0.00000,0.00000,66,7,36,2,64,29,32,9,ok,2,0,0.003,11,1.44,-0.45,10.79,63,0.164,8.18
11.1641,-0.02618,0.09425,1.24617,0.00000,0.00000,0.00000,65,4,38,3,64,30,33,9,ok,2,0,0.003,11,1.44,-0.45,10.79,63,0.178,8.18
11.1768,-0.02618,0.09425,1.24617,0.00000,0.00000,0.00000,64,2,39,3,64,32,35,8,ok,2,0,0.003,11,1.44,-0.45,10.79,63,0.190,8.18
11.1970,-0.04712,0.02269,1.24442,0.00000,0.00000,0.00000,64,-1,41,3,64,34,36,8,ok,2,0,0.003,11,-1.55,0.28,8.70,64,0.000,8.18
11.2020,-0.04712,0.02269,1.24442,0.00000,0.00000,0.00000,63,-3,42,2,64,35,37,8,ok,2,0,0.003,11,-1.55,0.28,8.70,64,0.012,8.18
11.2143,-0.04712,0.02269,1.24442,0.00000,0.00000,0.00000,62,-4,43,2,65,35,38,8,ok,2,0,0.003,11,-1.55,0.28,8.70,64,0.025,8.18
11.2370,-0.04712,0.02269,1.24442,0.00000,0.00000,0.00000,60,-5,44,2,66,35,40,8,ok,2,0,0.003,11,-1.55,0.28,8.70,64,0.038,8.18
11.2402,-0.04712,0.02269,1.24442,0.00000,0.00000,0.00000,60,-6,45,3,68,33,41,7,ok,2,0,0.003,11,-1.55,0.28,8.70,64,0.051,8.18
11.2530,-0.04712,0.02269,1.24442,0.00000,0.00000,0.00000,59,-9,46,3,70,29,42,7,ok,2,0,0.003,11,-1.55,0.28,8.70,64,0.064,8.18
11.2730,-0.04712,0.02269,1.24442,0.00000,0.00000,0.00000,57,-9,48,4,71,24,44,7,ok,2,0,0.003,11,-1.55,0.28,8.70,64,0.076,8.18
11.2778,-0.04712,0.02269,1.24442,0.00000,0.00000,0.00000,55,-10,49,4,73,21,44,7,ok,2,0,0.003,11,-1.55,0.28,8.70,64,0.089,8.18
11.2903,-0.04712,0.02269,1.24442,0.00000,0.00000,0.00000,53,-10,50,3,74,20,45,7,ok,2,0,0.003,11,-1.55,0.28,8.70,64,0.101,8.18
11.3130,-0.04712,0.02269,1.24442,0.00000,0.00000,0.00000,52,-11,50,5,74,18,46,7,ok,2,0,0.003,11,-1.55,0.28,8.70,64,0.114,8.18
11.3163,-0.04712,0.02269,1.24442,0.00000,0.00000,0.00000,50,-11,51,6,74,15,47,8,ok,2,0,0.003,11,-1.55,0.28,8.70,64,0.127,8.18
11.3288,-0.04712,0.02269,1.24442,0.00000,0.00000,0.00000,48,-11,52,6,73,11,48,8,ok,2,0,0.003,11,-1.55,0.28,8.70,64,0.140,8.18
11.3490,-0.04712,0.02269,1.24442,0.00000,0.00000,0.00000,45,-10,53,6,72,10,49,8,ok,2,0,0.003,11,-1.55,0.28,8.70,64,0.152,8.18
11.3539,-0.04712,0.02269,1.24442,0.00000,0.00000,0.00000,44,-11,53,7,72,6,50,9,ok,2,0,0.003,11,-1.55,0.28,8.70,64,0.165,8.18
11.3663,-0.04712,0.02269,1.24442,0.00000,0.00000,0.00000,41,-11,55,7,72,5,50,8,ok,2,0,0.003,11,-1.55,0.28,8.70,64,0.177,8.18
11.3890,-0.04712,0.02269,1.24442,0.00000,0.00000,0.00000,39,-10,56,7,71,4,51,9,ok,2,0,0.003,11,-1.55,0.28,8.70,64,0.190,8.18
11.3924,0.12566,-0.00349,1.22871,0.00000,0.00000,0.00000,36,-8,57,7,69,1,52,8,ok,2,0,0.003,11,-0.43,1.08,8.90,65,0.000,8.18
11.4049,0.12566,-0.00349,1.22871,0.00000,0.00000,0.00000,34,-7,57,7,67,2,52,8,ok,2,0,0.003,11,-0.43,1.08,8.90,65,0.013,8.18
11.4250,0.12566,-0.00349,1.22871,0.00000,0.00000,0.00000,31,-5,57,7,65,0,52,8,ok,2,0,0.003,11,-0.43,1.08,8.90,65,0.025,8.18
11.4299,0.12566,-0.00349,1.22871,0.00000,0.00000,0.00000,28,-3,58,8,64,-2,53,9,ok,2,0,0.003,11,-0.43,1.08,8.90,65,0.038,8.18
11.4423,0.12566,-0.00349,1.22871,0.00000,0.00000,0.00000,26,-1,59,8,62,-3,54,8,ok,2,0,0.003,11,-0.43,1.08,8.90,65,0.050,8.18
11.4650,0.12566,-0.00349,1.22871,0.00000,0.00000,0.00000,25,0,60,10,61,-5,54,8,ok,2,0,0.003,11,-0.43,1.08,8.90,65,0.063,8.18
11.4681,0.12566,-0.00349,1.22871,0.00000,0.00000,0.00000,24,1,61,9,59,-5,56,6,ok,2,0,0.003,11,-0.43,1.08,8.90,65,0.076,8.18
11.4808,0.12566,-0.00349,1.22871,0.00000,0.00000,0.00000,23,4,61,10,56,-6,56,7,ok,2,0,0.003,11,-0.43,1.08,8.90,65,0.089,8.18
11.5010,0.12566,-0.00349,1.22871,0.00000,0.00000,0.00000,22,6,61,9,54,-7,57,7,ok,2,0,0.003,11,-0.43,1.08,8.90,65,0.101,8.18
11.5059,0.12566,-0.00349,1.22871,0.00000,0.00000,0.00000,20,10,61,11,51,-6,58,8,ok,2,0,0.003,11,-0.43,1.08,8.90,65,0.114,8.18
11.5183,0.12566,-0.00349,1.22871,0.00000,0.00000,0.00000,20,12,61,11,48,-5,59,8,ok,2,0,0.003,11,-0.43,1.08,8.90,65,0.126,8.18
11.5410,0.12566,-0.00349,1.22871,0.00000,0.00000,0.00000,21,12,62,12,46,-5,59,9,ok,2,0,0.003,11,-0.43,1.08,8.90,65,0.139,8.18
11.5442,0.12566,-0.00349,1.22871,0.00000,0.00000,0.00000,22,11,61,13,43,-5,59,9,ok,2,0,0.003,11,-0.43,1.08,8.90,65,0.152,8.18
11.5569,0.12566,-0.00349,1.22871,0.00000,0.00000,0.00000,23,10,62,14,40,-4,60,10,ok,2,0,0.003,11,-0.43,1.08,8.90,65,0.165,8.18
11.5770,0.12566,-0.00349,1.22871,0.00000,0.00000,0.00000,24,9,62,14,37,-3,60,11,ok,2,0,0.003,11,-0.43,1.08,8.90,65,0.177,8.18
11.5818,0.12566,-0.00349,1.22871,0.00000,0.00000,0.00000,24,8,62,15,34,-3,61,12,ok,2,0,0.003,11,-0.43,1.08,8.90,65,0.190,8.18
11.5946,0.12566,-0.00349,1.22871,0.00000,0.00000,0.00000,26,7,63,16,31,-1,61,13,ok,2,0,0.003,11,-0.43,1.08,8.90,65,0.202,8.18
11.6170,0.03491,0.10821,1.24093,0.00000,0.00000,0.00000,27,7,63,17,29,0,62,13,ok,2,0,0.003,11,3.57,0.61,10.87,66,0.000,8.18
11.6201,0.03491,0.10821,1.24093,0.00000,0.00000,0.00000,28,6,64,19,27,1,62,14,ok,2,0,0.003,11,3.57,0.61,10.87,66,0.013,8.18
11.6328,0.03491,0.10821,1.24093,0.00000,0.00000,0.00000,29,5,64,20,25,4,63,15,ok,2,0,0.003,11,3.57,0.61,10.87,66,0.026,8.18
11.6530,0.03491,0.10821,1.24093,0.00000,0.00000,0.00000,30,4,64,21,24,7,63,16,ok,2,0,0.003,11,3.57,0.61,10.87,66,0.038,8.18
11.6579,0.03491,0.10821,1.24093,0.00000,0.00000,0.00000,31,3,64,22,23,11,63,17,ok,2,0,0.003,11,3.57,0.61,10.87,66,0.051,8.18
11.6703,0.03491,0.10821,1.24093,0.00000,0.00000,0.00000,31,3,64,23,22,14,64,17,ok,2,0,0.003,11,3.57,0.61,10.87,66,0.063,8.18
11.6930,0.03491,0.10821,1.24093,0.00000,0.00000,0.00000,32,2,63,26,24,13,64,18,ok,2,0,0.003,11,3.57,0.61,10.87,66,0.076,8.18
11.6961,0.03491,0.10821,1.24093,0.00000,0.00000,0.00000,32,1,63,28,24,13,64,19,ok,2,0,0.003,11,3.57,0.61,10.87,66,0.089,8.18
11.7089,0.03491,0.10821,1.24093,0.00000,0.00000,0.00000,33,1,64,26,25,12,64,21,ok,2,0,0.003,12,3.57,0.61,10.87,66,0.102,8.18
11.7290,0.03491,0.10821,1.24093,0.00000,0.00000,0.00000,34,0,66,23,26,11,65,21,ok,2,0,0.003,12,3.57,0.61,10.87,66,0.114,8.18
11.7341,0.03491,0.10821,1.24093,0.00000,0.00000,0.00000,35,0,69,19,28,11,65,22,ok,2,0,0.003,12,3.57,0.61,10.87,66,0.127,8.18
11.7463,0.03491,0.10821,1.24093,0.00000,0.00000,0.00000,36,0,70,15,29,10,65,23,ok,2,0,0.003,12,3.57,0.61,10.87,66,0.139,8.18
11.7690,0.03491,0.10821,1.24093,0.00000,0.00000,0.00000,37,1,70,12,30,9,65,25,ok,2,0,0.003,12,3.57,0.61,10.87,66,0.152,8.18
11.7721,0.03491,0.10821,1.24093,0.00000,0.00000,0.00000,39,1,70,12,33,9,66,26,ok,2,0,0.003,12,3.57,0.61,10.87,66,0.165,8.18
11.7850,0.03491,0.10821,1.24093,0.00000,0.00000,0.00000,40,1,70,8,33,9,65,28,ok,2,0,0.003,12,3.57,0.61,10.87,66,0.178,8.18
11.8090,0.03491,0.10821,1.24093,0.00000,0.00000,0.00000,41,2,69,6,35,9,64,29,ok,2,0,0.003,12,3.57,0.61,10.87,66,0.190,8.18
11.8125,-0.11519,-0.00698,1.26536,0.00000,0.00000,0.00000,42,2,68,3,37,8,64,31,ok,2,0,0.003,12,0.51,-1.90,10.78,67,0.000,8.18
11.8248,-0.11519,-0.00698,1.26536,0.00000,0.00000,0.00000,44,1,67,0,38,8,65,32,ok,2,0,0.003,12,0.51,-1.90,10.78,67,0.013,8.18
11.8450,-0.11519,-0.00698,1.26536,0.00000,0.00000,0.00000,44,1,66,-2,39,8,65,34,ok,2,0,0.003,12,0.51,-1.90,10.78,67,0.025,8.18
11.8498,-0.11519,-0.00698,1.26536,0.00000,0.00000,0.00000,46,1,64,-3,40,8,64,35,ok,2,0,0.003,12,0.51,-1.90,10.78,67,0.038,8.18
11.8624,-0.11519,-0.00698,1.26536,0.00000,0.00000,0.00000,46,1,62,-4,40,7,66,35,ok,2,0,0.003,12,0.51,-1.90,10.78,67,0.050,8.18
11.8850,-0.11519,-0.00698,1.26536,0.00000,0.00000,0.00000,47,1,61,-5,42,7,67,35,ok,2,0,0.003,12,0.51,-1.90,10.78,67,0.063,8.18
11.8882,-0.11519,-0.00698,1.26536,0.00000,0.00000,0.00000,48,2,60,-7,43,7,68,32,ok,2,0,0.003,12,0.51,-1.90,10.78,67,0.076,8.18
11.9008,-0.11519,-0.00698,1.26536,0.00000,0.00000,0.00000,49,2,58,-7,44,7,70,27,ok,2,0,0.003,12,0.51,-1.90,10.78,67,0.089,8.18
11.9210,-0.11519,-0.00698,1.26536,0.00000,0.00000,0.00000,50,2,56,-9,45,7,71,24,ok,2,0,0.003,12,0.51,-1.90,10.78,67,0.101,8.18
11.9260,-0.11519,-0.00698,1.26536,0.00000,0.00000,0.00000,51,2,54,-9,46,7,73,21,ok,2,0,0.003,12,0.51,-1.90,10.78,67,0.114,8.18
11.9384,-0.11519,-0.00698,1.26536,0.00000,0.00000,0.00000,51,4,51,-10,47,7,73,20,ok,2,0,0.003,12,0.51,-1.90,10.78,67,0.126,8.18
11.9650,-0.11519,-0.00698,1.26536,0.00000,0.00000,0.00000,52,5,49,-10,47,7,73,18,ok,2,0,0.003,12,0.51,-1.90,10.78,67,0.139,8.18
11.9683,-0.11519,-0.00698,1.26536,0.00000,0.00000,0.00000,52,6,46,-10,48,7,72,15,ok,2,0,0.003,12,0.51,-1.90,10.78,67,0.156,8.18
11.9808,-0.11519,-0.00698,1.26536,0.00000,0.00000,0.00000,53,6,44,-10,49,7,72,12,ok,2,0,0.003,12,0.51,-1.90,10.78,67,0.169,8.18
12.0010,-0.11519,-0.00698,1.26536,0.00000,0.00000,0.00000,53,7,42,-10,49,7,71,11,ok,2,0,0.003,12,0.51,-1.90,10.78,67,0.181,8.18
12.0058,-0.11519,-0.00698,1.26536,0.00000,0.00000,0.00000,55,7,39,-10,50,7,71,7,ok,2,0,0.003,12,0.51,-1.90,10.78,67,0.194,8.18
12.0186,-0.11345,-0.01396,1.31947,0.00000,0.00000,0.00000,56,7,37,-9,51,6,71,6,ok,2,0,0.003,12,0.03,-1.26,9.95,68,0.000,8.18
12.0410,-0.11345,-0.01396,1.31947,0.00000,0.00000,0.00000,56,8,33,-9,52,7,70,4,ok,2,0,0.003,12,0.03,-1.26,9.95,68,0.013,8.18
12.0442,-0.11345,-0.01396,1.31947,0.00000,0.00000,0.00000,56,8,31,-7,52,7,68,2,ok,2,0,0.003,12,0.03,-1.26,9.95,68,0.026,8.18
12.0570,-0.11345,-0.01396,1.31947,0.00000,0.00000,0.00000,57,8,27,-6,54,8,66,2,ok,2,0,0.003,12,0.03,-1.26,9.95,68,0.039,8.18
12.0770,-0.11345,-0.01396,1.31947,0.00000,0.00000,0.00000,57,9,24,-4,54,8,65,0,ok,2,0,0.003,12,0.03,-1.26,9.95,68,0.051,8.18
12.0818,-0.11345,-0.01396,1.31947,0.00000,0.00000,0.00000,58,10,21,-2,55,8,64,-2,ok,2,0,0.003,12,0.03,-1.26,9.95,68,0.064,8.18
12.0944,-0.11345,-0.01396,1.31947,0.00000,0.00000,0.00000,59,10,19,-1,58,6,62,-3,ok,2,0,0.003,12,0.03,-1.26,9.95,68,0.076,8.18
12.1170,-0.11345,-0.01396,1.31947,0.00000,0.00000,0.00000,59,10,18,0,58,7,60,-4,ok,2,0,0.003,12,0.03,-1.26,9.95,68,0.089,8.18
12.1202,-0.11345,-0.01396,1.31947,0.00000,0.00000,0.00000,60,11,16,3,59,8,58,-5,ok,2,0,0.003,12,0.03,-1.26,9.95,68,0.102,8.18
12.1328,-0.11345,-0.01396,1.31947,0.00000,0.00000,0.00000,60,11,15,6,59,8,55,-6,ok,2,0,0.003,12,0.03,-1.26,9.95,68,0.115,8.18
12.1530,-0.11345,-0.01396,1.31947,0.00000,0.00000,0.00000,60,12,13,9,59,9,53,-6,ok,2,0,0.003,12,0.03,-1.26,9.95,68,0.127,8.18
12.1578,-0.11345,-0.01396,1.31947,0.00000,0.00000,0.00000,60,12,13,11,60,9,50,-5,ok,2,0,0.003,12,0.03,-1.26,9.95,68,0.139,8.18
12.1704,-0.11345,-0.01396,1.31947,0.00000,0.00000,0.00000,60,13,14,12,60,9,48,-5,ok,2,0,0.003,12,0.03,-1.26,9.95,68,0.152,8.18
12.1930,-0.11345,-0.01396,1.31947,0.00000,0.00000,0.00000,60,14,15,11,61,10,46,-5,ok,2,0,0.003,12,0.03,-1.26,9.95,68,0.165,8.18
12.1964,-0.11345,-0.01396,1.31947,0.00000,0.00000,0.00000,60,14,17,10,61,11,42,-4,ok,2,0,0.003,12,0.03,-1.26,9.95,68,0.178,8.18
12.2089,-0.11345,-0.01396,1.31947,0.00000,0.00000,0.00000,60,15,19,9,61,12,41,-4,ok,2,0,0.003,12,0.03,-1.26,9.95,68,0.191,8.18
12.2290,-0.05411,0.12566,1.35088,0.00000,0.00000,0.00000,60,16,19,9,61,12,37,-3,ok,2,0,0.003,12,1.47,-1.48,11.03,69,0.000,8.18
12.2340,-0.05411,0.12566,1.35088,0.00000,0.00000,0.00000,60,17,21,8,61,13,35,-3,ok,2,0,0.003,12,1.47,-1.48,11.03,69,0.012,8.18
12.2463,-0.05411,0.12566,1.35088,0.00000,0.00000,0.00000,60,18,21,7,61,14,31,-1,ok,2,0,0.003,12,1.47,-1.48,11.03,69,0.025,8.18
12.2690,-0.05411,0.12566,1.35088,0.00000,0.00000,0.00000,62,19,23,6,62,14,29,0,ok,2,0,0.003,12,1.47,-1.48,11.03,69,0.038,8.18
12.2722,-0.05411,0.12566,1.35088,0.00000,0.00000,0.00000,62,20,24,5,63,15,27,2,ok,2,0,0.003,12,1.47,-1.48,11.03,69,0.051,8.18
