# run_gait log  cmd_fwd=0.100 hz=80.0 fw_balance=off policy_yaw_sign=-1
t,roll,pitch,yaw,gx,gy,gz,j0,j1,j2,j3,j4,j5,j6,j7,guard_state,hottest_j,hottest_tier,hottest_frac,duty_s,ax,ay,az,imu_n,imu_age_s,volt
0.0349,-0.01047,0.01222,0.00000,0.00000,0.00000,0.00000,21,-1,59,7,66,-12,61,0,ok,4,0,0.000,0,0.10,-0.09,9.98,8,0.021,nan
0.0383,-0.01047,0.01222,0.00000,0.00000,0.00000,0.00000,19,0,61,8,64,-12,63,-1,ok,4,0,0.000,0,0.10,-0.09,9.98,8,0.047,nan
0.0515,-0.01047,0.01396,0.00000,0.00000,0.00000,0.00000,17,2,61,9,61,-13,64,0,ok,4,0,0.000,0,0.12,-0.11,10.00,9,0.000,8.08
0.0709,-0.01047,0.01396,0.00000,0.00000,0.00000,0.00000,15,6,62,9,59,-13,64,0,ok,4,0,0.000,0,0.12,-0.11,10.00,9,0.013,8.08
0.0758,-0.01047,0.01396,0.00000,0.00000,0.00000,0.00000,13,9,62,11,56,-13,65,1,ok,4,0,0.000,0,0.12,-0.11,10.00,9,0.025,8.08
0.0882,-0.01047,0.01396,0.00000,0.00000,0.00000,0.00000,11,11,63,11,53,-12,65,1,ok,4,0,0.000,0,0.12,-0.11,10.00,9,0.038,8.08
0.1109,-0.01047,0.01396,0.00000,0.00000,0.00000,0.00000,13,12,63,12,51,-12,66,2,ok,4,0,0.000,0,0.12,-0.11,10.00,9,0.050,8.08
0.1152,-0.01047,0.01396,0.00000,0.00000,0.00000,0.00000,13,11,63,13,48,-12,66,2,ok,4,0,0.000,0,0.12,-0.11,10.00,9,0.063,8.08
0.1277,-0.01047,0.01396,0.00000,0.00000,0.00000,0.00000,14,10,64,14,45,-12,66,3,ok,4,0,0.000,0,0.12,-0.11,10.00,9,0.076,8.08
0.1510,-0.01047,0.01396,0.00000,0.00000,0.00000,0.00000,15,9,64,15,42,-11,67,3,ok,4,0,0.000,0,0.12,-0.11,10.00,9,0.089,8.08
0.1552,-0.01047,0.01396,0.00000,0.00000,0.00000,0.00000,16,9,65,15,39,-10,68,4,ok,4,0,0.000,0,0.12,-0.11,10.00,9,0.104,8.08
0.1681,-0.01047,0.01396,0.00000,0.00000,0.00000,0.00000,18,8,65,16,36,-8,68,4,ok,4,0,0.000,0,0.12,-0.11,10.00,9,0.116,8.08
0.1909,-0.01047,0.01396,0.00000,0.00000,0.00000,0.00000,18,7,65,17,34,-7,69,5,ok,4,0,0.000,0,0.12,-0.11,10.00,9,0.129,8.08
0.1951,-0.01047,0.01396,0.00000,0.00000,0.00000,0.00000,21,6,66,18,32,-6,69,6,ok,4,0,0.000,0,0.12,-0.11,10.00,9,0.144,8.08
0.2077,-0.01047,0.01396,0.00000,0.00000,0.00000,0.00000,22,5,66,19,30,-2,70,6,ok,4,0,0.000,0,0.12,-0.11,10.00,9,0.156,8.08
0.2268,-0.01047,0.01396,0.00000,0.00000,0.00000,0.00000,23,5,66,21,28,0,70,8,ok,4,0,0.000,0,0.12,-0.11,10.00,9,0.169,8.08
0.2318,-0.01047,0.01396,0.00000,0.00000,0.00000,0.00000,24,5,66,22,27,4,70,9,ok,4,0,0.000,0,0.12,-0.11,10.00,9,0.181,8.08
0.2442,-0.01047,0.01396,0.00000,0.00000,0.00000,0.00000,26,4,65,23,27,6,71,9,ok,4,0,0.000,0,0.12,-0.11,10.00,9,0.194,8.08
0.2669,-0.05934,-0.11694,0.00349,0.00000,0.00000,0.00000,27,4,65,26,29,6,71,10,ok,4,0,0.000,0,-1.29,-1.22,9.85,10,0.000,8.08
0.2699,-0.05934,-0.11694,0.00349,0.00000,0.00000,0.00000,28,3,65,28,29,5,72,11,ok,4,0,0.000,0,-1.29,-1.22,9.85,10,0.013,8.08
0.2827,-0.05934,-0.11694,0.00349,0.00000,0.00000,0.00000,29,3,66,27,30,3,72,12,ok,4,0,0.000,0,-1.29,-1.22,9.85,10,0.026,8.08
0.3028,-0.05934,-0.11694,0.00349,0.00000,0.00000,0.00000,30,2,69,24,31,3,73,13,ok,4,0,0.000,0,-1.29,-1.22,9.85,10,0.038,8.08
0.3076,-0.05934,-0.11694,0.00349,0.00000,0.00000,0.00000,31,1,72,21,32,3,73,14,ok,4,0,0.000,0,-1.29,-1.22,9.85,10,0.051,8.08
0.3201,-0.05934,-0.11694,0.00349,0.00000,0.00000,0.00000,32,0,73,17,33,3,73,16,ok,4,0,0.000,0,-1.29,-1.22,9.85,10,0.063,8.08
0.3428,-0.05934,-0.11694,0.00349,0.00000,0.00000,0.00000,33,0,74,15,34,1,73,18,ok,4,0,0.000,0,-1.29,-1.22,9.85,10,0.076,8.08
0.3460,-0.05934,-0.11694,0.00349,0.00000,0.00000,0.00000,34,-1,74,15,37,1,74,19,ok,4,0,0.000,0,-1.29,-1.22,9.85,10,0.089,8.08
0.3586,-0.05934,-0.11694,0.00349,0.00000,0.00000,0.00000,35,-1,74,12,37,1,73,21,ok,4,0,0.000,0,-1.29,-1.22,9.85,10,0.102,8.08
0.3788,-0.05934,-0.11694,0.00349,0.00000,0.00000,0.00000,37,-1,73,9,39,1,72,22,ok,4,0,0.000,0,-1.29,-1.22,9.85,10,0.114,8.08
0.3836,-0.05934,-0.11694,0.00349,0.00000,0.00000,0.00000,38,-1,73,6,40,1,73,23,ok,4,0,0.000,0,-1.29,-1.22,9.85,10,0.127,8.08
0.3962,-0.05934,-0.11694,0.00349,0.00000,0.00000,0.00000,39,-2,72,3,41,1,72,25,ok,4,0,0.000,0,-1.29,-1.22,9.85,10,0.139,8.08
0.4188,-0.05934,-0.11694,0.00349,0.00000,0.00000,0.00000,40,-2,71,2,42,0,72,26,ok,4,0,0.000,0,-1.29,-1.22,9.85,10,0.152,8.08
0.4219,-0.05934,-0.11694,0.00349,0.00000,0.00000,0.00000,42,-2,69,0,43,-1,71,28,ok,4,0,0.000,0,-1.29,-1.22,9.85,10,0.165,8.08
0.4347,-0.05934,-0.11694,0.00349,0.00000,0.00000,0.00000,42,-2,67,-2,44,-2,72,28,ok,4,0,0.000,0,-1.29,-1.22,9.85,10,0.178,8.08
0.4548,-0.05934,-0.11694,0.00349,0.00000,0.00000,0.00000,44,-1,66,-4,46,-2,73,28,ok,4,0,0.000,0,-1.29,-1.22,9.85,10,0.190,8.08
0.4599,-0.08552,0.00698,0.02793,0.00000,0.00000,0.00000,45,-1,65,-6,47,-2,75,25,ok,4,0,0.000,0,-0.08,0.26,9.17,11,0.000,8.08
0.4721,-0.08552,0.00698,0.02793,0.00000,0.00000,0.00000,47,0,63,-7,48,-2,76,20,ok,4,0,0.000,0,-0.08,0.26,9.17,11,0.013,8.08
0.4948,-0.08552,0.00698,0.02793,0.00000,0.00000,0.00000,48,0,60,-9,49,-2,77,17,ok,4,0,0.000,0,-0.08,0.26,9.17,11,0.025,8.08
0.4979,-0.08552,0.00698,0.02793,0.00000,0.00000,0.00000,49,1,57,-9,51,-1,79,14,ok,4,0,0.000,0,-0.08,0.26,9.17,11,0.038,8.08
0.5105,-0.08552,0.00698,0.02793,0.00000,0.00000,0.00000,49,3,55,-10,52,-1,79,14,ok,4,0,0.000,0,-0.08,0.26,9.17,11,0.051,8.08
0.5308,-0.08552,0.00698,0.02793,0.00000,0.00000,0.00000,51,4,51,-10,54,0,79,11,ok,4,0,0.000,1,-0.08,0.26,9.17,11,0.063,8.08
0.5356,-0.08552,0.00698,0.02793,0.00000,0.00000,0.00000,52,4,49,-10,55,0,79,7,ok,4,0,0.000,1,-0.08,0.26,9.17,11,0.076,8.08
0.5480,-0.08552,0.00698,0.02793,0.00000,0.00000,0.00000,53,5,46,-10,56,1,79,4,ok,4,0,0.000,1,-0.08,0.26,9.17,11,0.088,8.08
0.5709,-0.08552,0.00698,0.02793,0.00000,0.00000,0.00000,53,6,43,-10,57,0,78,2,ok,4,0,0.000,1,-0.08,0.26,9.17,11,0.101,8.08
0.5739,-0.08552,0.00698,0.02793,0.00000,0.00000,0.00000,55,6,41,-11,58,1,77,-1,ok,4,0,0.000,1,-0.08,0.26,9.17,11,0.114,8.08
0.5867,-0.08552,0.00698,0.02793,0.00000,0.00000,0.00000,55,6,39,-9,59,0,77,-3,ok,4,0,0.000,1,-0.08,0.26,9.17,11,0.127,8.08
0.6068,-0.08552,0.00698,0.02793,0.00000,0.00000,0.00000,57,6,36,-8,59,1,76,-4,ok,4,0,0.000,1,-0.08,0.26,9.17,11,0.139,8.08
0.6116,-0.08552,0.00698,0.02793,0.00000,0.00000,0.00000,57,7,33,-7,60,2,74,-6,ok,4,0,0.000,1,-0.08,0.26,9.17,11,0.152,8.08
0.6240,-0.08552,0.00698,0.02793,0.00000,0.00000,0.00000,58,7,29,-6,60,1,72,-7,ok,2,0,0.000,1,-0.08,0.26,9.17,11,0.164,8.08
0.6468,-0.08552,0.00698,0.02793,0.00000,0.00000,0.00000,59,8,27,-4,61,1,70,-8,ok,2,0,0.000,1,-0.08,0.26,9.17,11,0.177,8.08
0.6500,-0.08552,0.00698,0.02793,0.00000,0.00000,0.00000,60,10,22,-2,62,1,69,-10,ok,2,0,0.000,1,-0.08,0.26,9.17,11,0.190,8.08
0.6629,-0.02618,-0.00524,0.04712,0.00000,0.00000,0.00000,60,10,20,-1,64,-1,67,-11,ok,2,0,0.000,1,-0.47,-0.69,10.87,12,0.000,8.08
0.6829,-0.02618,-0.00524,0.04712,0.00000,0.00000,0.00000,61,10,19,0,65,0,65,-13,ok,2,0,0.000,1,-0.47,-0.69,10.87,12,0.013,8.08
0.6876,-0.02618,-0.00524,0.04712,0.00000,0.00000,0.00000,61,11,17,3,66,1,63,-13,ok,2,0,0.000,1,-0.47,-0.69,10.87,12,0.025,8.08
0.7002,-0.02618,-0.00524,0.04712,0.00000,0.00000,0.00000,62,12,15,6,66,0,60,-14,ok,2,0,0.000,1,-0.47,-0.69,10.87,12,0.038,8.08
0.7228,-0.02618,-0.00524,0.04712,0.00000,0.00000,0.00000,62,13,13,10,67,1,58,-15,ok,2,0,0.000,1,-0.47,-0.69,10.87,12,0.050,8.08
0.7259,-0.02618,-0.00524,0.04712,0.00000,0.00000,0.00000,62,14,12,12,68,0,55,-13,ok,2,0,0.000,1,-0.47,-0.69,10.87,12,0.063,8.08
0.7385,-0.02618,-0.00524,0.04712,0.00000,0.00000,0.00000,62,15,13,13,68,1,53,-13,ok,2,0,0.000,1,-0.47,-0.69,10.87,12,0.076,8.08
0.7588,-0.02618,-0.00524,0.04712,0.00000,0.00000,0.00000,63,16,13,13,69,1,50,-12,ok,2,0,0.000,1,-0.47,-0.69,10.87,12,0.089,8.08
0.7636,-0.02618,-0.00524,0.04712,0.00000,0.00000,0.00000,64,17,14,11,69,1,47,-11,ok,2,0,0.000,1,-0.47,-0.69,10.87,12,0.101,8.08
0.7762,-0.02618,-0.00524,0.04712,0.00000,0.00000,0.00000,64,18,15,10,70,2,45,-10,ok,2,0,0.000,1,-0.47,-0.69,10.87,12,0.114,8.08
0.7988,-0.02618,-0.00524,0.04712,0.00000,0.00000,0.00000,65,18,16,10,69,2,41,-9,ok,2,0,0.000,1,-0.47,-0.69,10.87,12,0.126,8.08
0.8019,-0.02618,-0.00524,0.04712,0.00000,0.00000,0.00000,66,18,17,9,70,3,39,-9,ok,2,0,0.000,1,-0.47,-0.69,10.87,12,0.139,8.08
0.8146,-0.02618,-0.00524,0.04712,0.00000,0.00000,0.00000,66,20,18,8,70,4,35,-7,ok,2,0,0.000,1,-0.47,-0.69,10.87,12,0.152,8.08
0.8348,-0.02618,-0.00524,0.04712,0.00000,0.00000,0.00000,67,21,20,7,71,5,34,-5,ok,2,0,0.000,1,-0.47,-0.69,10.87,12,0.165,8.08
0.8396,-0.02618,-0.00524,0.04712,0.00000,0.00000,0.00000,67,22,21,6,71,6,32,-4,ok,2,0,0.000,1,-0.47,-0.69,10.87,12,0.177,8.08
0.8522,-0.02618,-0.00524,0.04712,0.00000,0.00000,0.00000,66,23,22,6,71,7,30,-1,ok,2,0,0.000,1,-0.47,-0.69,10.87,12,0.189,8.08
0.8748,0.00873,-0.02793,0.08203,0.00000,0.00000,0.00000,66,24,24,6,72,8,28,2,ok,2,0,0.000,1,-0.49,0.66,8.36,13,0.000,8.08
0.8779,0.00873,-0.02793,0.08203,0.00000,0.00000,0.00000,66,25,25,5,72,9,27,5,ok,2,0,0.000,1,-0.49,0.66,8.36,13,0.013,8.08
0.8905,0.00873,-0.02793,0.08203,0.00000,0.00000,0.00000,65,28,26,4,72,10,27,7,ok,2,0,0.000,1,-0.49,0.66,8.36,13,0.026,8.08
0.9108,0.00873,-0.02793,0.08203,0.00000,0.00000,0.00000,64,29,28,3,72,12,29,6,ok,2,0,0.000,1,-0.49,0.66,8.36,13,0.039,8.08
0.9156,0.00873,-0.02793,0.08203,0.00000,0.00000,0.00000,66,28,29,3,72,13,29,5,ok,2,0,0.000,1,-0.49,0.66,8.36,13,0.051,8.08
0.9280,0.00873,-0.02793,0.08203,0.00000,0.00000,0.00000,68,25,30,3,72,14,30,3,ok,2,0,0.000,1,-0.49,0.66,8.36,13,0.064,8.08
0.9508,0.00873,-0.02793,0.08203,0.00000,0.00000,0.00000,70,21,31,2,72,15,31,3,ok,2,0,0.000,1,-0.49,0.66,8.36,13,0.076,8.08
0.9539,0.00873,-0.02793,0.08203,0.00000,0.00000,0.00000,71,17,33,2,71,17,33,3,ok,2,0,0.000,1,-0.49,0.66,8.36,13,0.089,8.08
0.9667,0.00873,-0.02793,0.08203,0.00000,0.00000,0.00000,71,15,34,2,72,18,34,2,ok,2,0,0.000,1,-0.49,0.66,8.36,13,0.102,8.08
0.9868,0.00873,-0.02793,0.08203,0.00000,0.00000,0.00000,71,14,36,1,71,20,36,1,ok,2,0,0.000,1,-0.49,0.66,8.36,13,0.115,8.08
0.9916,0.00873,-0.02793,0.08203,0.00000,0.00000,0.00000,71,11,37,1,71,21,38,1,ok,2,0,0.000,1,-0.49,0.66,8.36,13,0.127,8.08
1.0041,0.00873,-0.02793,0.08203,0.00000,0.00000,0.00000,70,7,38,2,71,23,38,1,ok,2,0,0.000,1,-0.49,0.66,8.36,13,0.140,8.08
1.0269,0.00873,-0.02793,0.08203,0.00000,0.00000,0.00000,69,5,39,2,72,25,40,1,ok,2,0,0.000,1,-0.49,0.66,8.36,13,0.152,8.08
1.0299,0.00873,-0.02793,0.08203,0.00000,0.00000,0.00000,68,1,41,1,71,27,42,1,ok,2,0,0.000,1,-0.49,0.66,8.36,13,0.165,8.08
1.0426,0.00873,-0.02793,0.08203,0.00000,0.00000,0.00000,67,-1,42,1,71,28,42,1,ok,2,0,0.000,1,-0.49,0.66,8.36,13,0.178,8.08
1.0629,0.00873,-0.02793,0.08203,0.00000,0.00000,0.00000,66,-3,44,2,71,28,43,0,ok,2,0,0.000,1,-0.49,0.66,8.36,13,0.191,8.08
1.0678,0.04363,-0.00524,0.14312,0.00000,0.00000,0.00000,64,-4,44,2,72,28,45,0,ok,2,0,0.000,1,-0.31,0.79,9.99,14,0.000,8.08
1.0801,0.04363,-0.00524,0.14312,0.00000,0.00000,0.00000,63,-6,46,2,74,26,46,0,ok,2,0,0.000,1,-0.31,0.79,9.99,14,0.013,8.08
1.1028,0.04363,-0.00524,0.14312,0.00000,0.00000,0.00000,62,-8,47,2,76,21,47,0,ok,2,0,0.000,1,-0.31,0.79,9.99,14,0.025,8.08
1.1059,0.04363,-0.00524,0.14312,0.00000,0.00000,0.00000,60,-9,49,3,77,17,48,0,ok,2,0,0.000,1,-0.31,0.79,9.99,14,0.038,8.08
1.1185,0.04363,-0.00524,0.14312,0.00000,0.00000,0.00000,57,-10,50,3,79,14,49,0,ok,2,0,0.000,1,-0.31,0.79,9.99,14,0.051,8.08
1.1388,0.04363,-0.00524,0.14312,0.00000,0.00000,0.00000,55,-11,50,3,79,13,49,0,ok,2,0,0.000,1,-0.31,0.79,9.99,14,0.063,8.08
1.1438,0.04363,-0.00524,0.14312,0.00000,0.00000,0.00000,53,-12,50,5,79,11,51,0,ok,2,0,0.000,1,-0.31,0.79,9.99,14,0.076,8.08
1.1560,0.04363,-0.00524,0.14312,0.00000,0.00000,0.00000,50,-11,52,5,79,7,51,0,ok,2,0,0.000,1,-0.31,0.79,9.99,14,0.088,8.08
1.1789,0.04363,-0.00524,0.14312,0.00000,0.00000,0.00000,47,-11,53,5,78,4,53,0,ok,2,0,0.000,1,-0.31,0.79,9.99,14,0.101,8.08
1.1821,0.04363,-0.00524,0.14312,0.00000,0.00000,0.00000,45,-11,53,6,77,2,54,0,ok,2,0,0.000,1,-0.31,0.79,9.99,14,0.114,8.08
1.1946,0.04363,-0.00524,0.14312,0.00000,0.00000,0.00000,43,-11,54,7,77,-1,54,0,ok,2,0,0.000,1,-0.31,0.79,9.99,14,0.127,8.08
1.2148,0.04363,-0.00524,0.14312,0.00000,0.00000,0.00000,40,-11,56,7,76,-4,55,-1,ok,2,0,0.000,1,-0.31,0.79,9.99,14,0.140,8.08
1.2197,0.04363,-0.00524,0.14312,0.00000,0.00000,0.00000,38,-10,56,7,75,-5,56,0,ok,2,0,0.000,1,-0.31,0.79,9.99,14,0.152,8.08
1.2321,0.04363,-0.00524,0.14312,0.00000,0.00000,0.00000,35,-9,57,7,74,-8,57,-1,ok,2,0,0.000,1,-0.31,0.79,9.99,14,0.165,8.08
1.2548,0.04363,-0.00524,0.14312,0.00000,0.00000,0.00000,32,-8,58,8,71,-7,57,0,ok,2,0,0.000,1,-0.31,0.79,9.99,14,0.177,8.08
1.2578,0.04363,-0.00524,0.14312,0.00000,0.00000,0.00000,29,-6,58,8,70,-10,58,0,ok,2,0,0.000,1,-0.31,0.79,9.99,14,0.190,8.08
1.2709,0.11694,-0.00698,0.13265,0.00000,0.00000,0.00000,26,-4,59,9,69,-11,59,0,ok,2,0,0.000,1,-0.75,0.81,9.42,15,0.000,8.08
1.2908,0.11694,-0.00698,0.13265,0.00000,0.00000,0.00000,22,-2,60,11,66,-12,60,0,ok,2,0,0.000,1,-0.75,0.81,9.42,15,0.013,8.08
1.2956,0.11694,-0.00698,0.13265,0.00000,0.00000,0.00000,20,-1,61,11,64,-13,61,-1,ok,2,0,0.000,1,-0.75,0.81,9.42,15,0.025,8.08
1.3081,0.11694,-0.00698,0.13265,0.00000,0.00000,0.00000,18,1,62,11,62,-13,63,-3,ok,2,0,0.000,1,-0.75,0.81,9.42,15,0.037,8.08
1.3308,0.11694,-0.00698,0.13265,0.00000,0.00000,0.00000,16,3,63,12,59,-14,63,-2,ok,2,0,0.000,1,-0.75,0.81,9.42,15,0.050,8.08
1.3339,0.11694,-0.00698,0.13265,0.00000,0.00000,0.00000,14,7,63,13,58,-14,64,-2,ok,2,0,0.000,1,-0.75,0.81,9.42,15,0.063,8.08
1.3467,0.11694,-0.00698,0.13265,0.00000,0.00000,0.00000,12,10,63,14,55,-14,65,-1,ok,2,0,0.000,1,-0.75,0.81,9.42,15,0.076,8.08
1.3668,0.11694,-0.00698,0.13265,0.00000,0.00000,0.00000,11,13,64,14,52,-13,65,-2,ok,2,0,0.000,1,-0.75,0.81,9.42,15,0.089,8.08
1.3716,0.11694,-0.00698,0.13265,0.00000,0.00000,0.00000,12,13,64,15,50,-13,66,-1,ok,2,0,0.000,1,-0.75,0.81,9.42,15,0.101,8.08
1.3841,0.11694,-0.00698,0.13265,0.00000,0.00000,0.00000,12,13,64,16,47,-12,67,-1,ok,2,0,0.000,1,-0.75,0.81,9.42,15,0.114,8.08
1.4068,0.11694,-0.00698,0.13265,0.00000,0.00000,0.00000,14,12,65,17,44,-12,68,0,ok,4,0,0.000,1,-0.75,0.81,9.42,15,0.126,8.08
1.4099,0.11694,-0.00698,0.13265,0.00000,0.00000,0.00000,15,12,65,18,41,-10,69,0,ok,4,0,0.000,1,-0.75,0.81,9.42,15,0.139,8.08
1.4226,0.11694,-0.00698,0.13265,0.00000,0.00000,0.00000,16,11,65,18,38,-9,69,1,ok,4,0,0.000,1,-0.75,0.81,9.42,15,0.152,8.08
1.4428,0.11694,-0.00698,0.13265,0.00000,0.00000,0.00000,18,10,66,19,35,-8,70,2,ok,4,0,0.000,1,-0.75,0.81,9.42,15,0.165,8.08
1.4478,0.11694,-0.00698,0.13265,0.00000,0.00000,0.00000,18,10,66,20,33,-6,71,3,ok,4,0,0.000,1,-0.75,0.81,9.42,15,0.177,8.08
1.4600,0.11694,-0.00698,0.13265,0.00000,0.00000,0.00000,20,9,66,21,31,-5,71,4,ok,4,0,0.000,1,-0.75,0.81,9.42,15,0.190,8.08
1.4829,0.11694,-0.00698,0.13265,0.00000,0.00000,0.00000,22,8,66,22,29,-2,72,4,ok,4,0,0.000,1,-0.75,0.81,9.42,15,0.202,8.08
1.4861,0.09599,0.05061,0.15010,0.00000,0.00000,0.00000,23,7,66,23,28,0,72,6,ok,4,0,0.000,1,2.34,1.17,11.65,16,0.000,8.08
1.4986,0.09599,0.05061,0.15010,0.00000,0.00000,0.00000,24,6,65,24,27,4,72,7,ok,4,0,0.000,1,2.34,1.17,11.65,16,0.013,8.08
1.5189,0.09599,0.05061,0.15010,0.00000,0.00000,0.00000,26,6,65,25,26,7,72,8,ok,4,0,0.000,1,2.34,1.17,11.65,16,0.025,8.08
1.5237,0.09599,0.05061,0.15010,0.00000,0.00000,0.00000,27,6,64,27,28,6,72,9,ok,4,0,0.000,1,2.34,1.17,11.65,16,0.038,8.08
1.5360,0.09599,0.05061,0.15010,0.00000,0.00000,0.00000,28,5,64,29,29,6,73,11,ok,4,0,0.000,1,2.34,1.17,11.65,16,0.050,8.08
1.5588,0.09599,0.05061,0.15010,0.00000,0.00000,0.00000,29,4,65,27,30,3,73,12,ok,4,0,0.000,2,2.34,1.17,11.65,16,0.063,8.08
1.5619,0.09599,0.05061,0.15010,0.00000,0.00000,0.00000,30,3,67,24,31,3,73,14,ok,4,0,0.000,2,2.34,1.17,11.65,16,0.076,8.08
1.5745,0.09599,0.05061,0.15010,0.00000,0.00000,0.00000,32,3,70,21,32,3,73,15,ok,4,0,0.000,2,2.34,1.17,11.65,16,0.089,8.08
1.5948,0.09599,0.05061,0.15010,0.00000,0.00000,0.00000,33,2,71,17,33,2,73,17,ok,4,0,0.000,2,2.34,1.17,11.65,16,0.101,8.08
1.5996,0.09599,0.05061,0.15010,0.00000,0.00000,0.00000,34,2,71,15,34,1,73,19,ok,4,0,0.000,2,2.34,1.17,11.65,16,0.114,8.08
1.6123,0.09599,0.05061,0.15010,0.00000,0.00000,0.00000,36,1,71,14,37,2,73,20,ok,4,0,0.000,2,2.34,1.17,11.65,16,0.126,8.08
1.6349,0.09599,0.05061,0.15010,0.00000,0.00000,0.00000,37,1,71,11,37,2,72,22,ok,4,0,0.000,2,2.34,1.17,11.65,16,0.139,8.08
1.6379,0.09599,0.05061,0.15010,0.00000,0.00000,0.00000,39,1,71,8,39,2,72,23,ok,4,0,0.000,2,2.34,1.17,11.65,16,0.152,8.08
1.6505,0.09599,0.05061,0.15010,0.00000,0.00000,0.00000,40,1,70,5,40,1,73,24,ok,4,0,0.000,2,2.34,1.17,11.65,16,0.165,8.08
1.6709,0.09599,0.05061,0.15010,0.00000,0.00000,0.00000,42,0,70,3,41,2,73,26,ok,4,0,0.000,2,2.34,1.17,11.65,16,0.177,8.08
1.6759,-0.05061,-0.05585,0.14661,0.00000,0.00000,0.00000,43,0,69,1,42,1,72,27,ok,4,0,0.000,2,-1.06,-1.61,9.56,17,0.000,8.08
1.6880,-0.05061,-0.05585,0.14661,0.00000,0.00000,0.00000,45,0,68,-1,43,0,72,29,ok,4,0,0.000,2,-1.06,-1.61,9.56,17,0.013,8.08
1.7108,-0.05061,-0.05585,0.14661,0.00000,0.00000,0.00000,45,0,65,-2,45,-1,73,29,ok,4,0,0.001,2,-1.06,-1.61,9.56,17,0.025,8.08
1.7139,-0.05061,-0.05585,0.14661,0.00000,0.00000,0.00000,47,0,65,-4,46,-1,74,29,ok,4,0,0.001,2,-1.06,-1.61,9.56,17,0.038,8.08
1.7265,-0.05061,-0.05585,0.14661,0.00000,0.00000,0.00000,48,0,64,-6,47,-1,76,26,ok,4,0,0.001,2,-1.06,-1.61,9.56,17,0.051,8.08
1.7468,-0.05061,-0.05585,0.14661,0.00000,0.00000,0.00000,49,1,62,-7,48,0,78,20,ok,4,0,0.001,2,-1.06,-1.61,9.56,17,0.063,8.08
1.7518,-0.05061,-0.05585,0.14661,0.00000,0.00000,0.00000,50,1,59,-8,49,0,79,17,ok,4,0,0.001,2,-1.06,-1.61,9.56,17,0.076,8.08
1.7640,-0.05061,-0.05585,0.14661,0.00000,0.00000,0.00000,50,1,57,-8,50,0,81,14,ok,4,0,0.001,2,-1.06,-1.61,9.56,17,0.088,8.08
1.7868,-0.05061,-0.05585,0.14661,0.00000,0.00000,0.00000,50,3,55,-9,51,0,81,13,ok,4,0,0.001,2,-1.06,-1.61,9.56,17,0.101,8.08
1.7899,-0.05061,-0.05585,0.14661,0.00000,0.00000,0.00000,51,4,52,-9,53,0,81,10,ok,4,0,0.001,2,-1.06,-1.61,9.56,17,0.114,8.08
1.8025,-0.05061,-0.05585,0.14661,0.00000,0.00000,0.00000,52,4,49,-9,54,0,80,7,ok,4,0,0.001,2,-1.06,-1.61,9.56,17,0.127,8.08
1.8228,-0.05061,-0.05585,0.14661,0.00000,0.00000,0.00000,53,5,47,-9,55,1,80,3,ok,4,0,0.001,2,-1.06,-1.61,9.56,17,0.139,8.08
1.8277,-0.05061,-0.05585,0.14661,0.00000,0.00000,0.00000,53,6,44,-9,56,0,79,2,ok,2,0,0.001,2,-1.06,-1.61,9.56,17,0.152,8.08
1.8400,-0.05061,-0.05585,0.14661,0.00000,0.00000,0.00000,55,6,41,-9,57,1,78,-2,ok,2,0,0.001,2,-1.06,-1.61,9.56,17,0.164,8.08
1.8628,-0.05061,-0.05585,0.14661,0.00000,0.00000,0.00000,55,6,39,-8,58,0,78,-4,ok,2,0,0.001,2,-1.06,-1.61,9.56,17,0.177,8.08
1.8659,-0.05061,-0.05585,0.14661,0.00000,0.00000,0.00000,57,7,36,-7,58,0,76,-5,ok,2,0,0.001,2,-1.06,-1.61,9.56,17,0.190,8.08
1.8786,-0.05061,-0.05585,0.14661,0.00000,0.00000,0.00000,57,8,33,-6,59,1,74,-7,ok,2,0,0.001,2,-1.06,-1.61,9.56,17,0.203,8.08
1.8988,-0.10821,-0.03840,0.21817,0.00000,0.00000,0.00000,58,8,29,-5,60,1,72,-8,ok,2,0,0.001,2,-0.24,-0.96,10.75,18,0.000,8.08
1.9037,-0.10821,-0.03840,0.21817,0.00000,0.00000,0.00000,59,9,26,-3,61,1,70,-9,ok,2,0,0.001,2,-0.24,-0.96,10.75,18,0.012,8.08
1.9160,-0.10821,-0.03840,0.21817,0.00000,0.00000,0.00000,61,10,22,-1,62,0,69,-11,ok,2,0,0.001,2,-0.24,-0.96,10.75,18,0.025,8.08
1.9389,-0.10821,-0.03840,0.21817,0.00000,0.00000,0.00000,61,10,20,0,64,-2,67,-12,ok,2,0,0.001,2,-0.24,-0.96,10.75,18,0.038,8.08
1.9419,-0.10821,-0.03840,0.21817,0.00000,0.00000,0.00000,62,11,18,1,64,-1,65,-13,ok,2,0,0.001,2,-0.24,-0.96,10.75,18,0.051,8.08
1.9546,-0.10821,-0.03840,0.21817,0.00000,0.00000,0.00000,62,12,16,3,65,0,63,-14,ok,2,0,0.001,2,-0.24,-0.96,10.75,18,0.064,8.08
1.9748,-0.10821,-0.03840,0.21817,0.00000,0.00000,0.00000,63,12,15,7,66,-1,60,-14,ok,2,0,0.001,2,-0.24,-0.96,10.75,18,0.076,8.08
1.9796,-0.10821,-0.03840,0.21817,0.00000,0.00000,0.00000,63,14,13,10,66,0,58,-15,ok,2,0,0.001,2,-0.24,-0.96,10.75,18,0.089,8.08
1.9923,-0.10821,-0.03840,0.21817,0.00000,0.00000,0.00000,64,14,11,12,67,0,55,-13,ok,2,0,0.001,2,-0.24,-0.96,10.75,18,0.101,8.08
2.0148,-0.10821,-0.03840,0.21817,0.00000,0.00000,0.00000,64,15,13,13,67,0,53,-13,ok,2,0,0.001,2,-0.24,-0.96,10.75,18,0.114,8.08
2.0179,-0.10821,-0.03840,0.21817,0.00000,0.00000,0.00000,64,16,13,13,68,1,50,-12,ok,2,0,0.001,2,-0.24,-0.96,10.75,18,0.127,8.08
2.0305,-0.10821,-0.03840,0.21817,0.00000,0.00000,0.00000,65,17,14,11,69,1,47,-11,ok,2,0,0.001,2,-0.24,-0.96,10.75,18,0.140,8.08
2.0508,-0.10821,-0.03840,0.21817,0.00000,0.00000,0.00000,65,18,15,11,69,2,45,-11,ok,2,0,0.001,2,-0.24,-0.96,10.75,18,0.152,8.08
2.0556,-0.10821,-0.03840,0.21817,0.00000,0.00000,0.00000,65,18,16,10,69,2,41,-10,ok,2,0,0.001,2,-0.24,-0.96,10.75,18,0.164,8.08
2.0680,-0.10821,-0.03840,0.21817,0.00000,0.00000,0.00000,66,18,18,9,70,3,39,-9,ok,2,0,0.001,2,-0.24,-0.96,10.75,18,0.177,8.08
2.0909,-0.10821,-0.03840,0.21817,0.00000,0.00000,0.00000,66,20,18,9,70,4,35,-7,ok,2,0,0.001,2,-0.24,-0.96,10.75,18,0.189,8.08
2.0942,0.00524,0.03316,0.23213,0.00000,0.00000,0.00000,67,21,20,8,71,4,34,-6,ok,2,0,0.001,2,-0.00,0.07,11.73,19,0.000,8.08
2.1067,0.00524,0.03316,0.23213,0.00000,0.00000,0.00000,67,22,21,7,71,6,32,-4,ok,2,0,0.001,2,-0.00,0.07,11.73,19,0.013,8.08
2.1268,0.00524,0.03316,0.23213,0.00000,0.00000,0.00000,66,23,23,6,71,8,30,-1,ok,2,0,0.001,2,-0.00,0.07,11.73,19,0.025,8.08
2.1317,0.00524,0.03316,0.23213,0.00000,0.00000,0.00000,66,24,24,6,71,8,28,1,ok,2,0,0.001,2,-0.00,0.07,11.73,19,0.038,8.08
2.1441,0.00524,0.03316,0.23213,0.00000,0.00000,0.00000,65,25,25,5,71,9,27,5,ok,2,0,0.001,2,-0.00,0.07,11.73,19,0.050,8.08
2.1668,0.00524,0.03316,0.23213,0.00000,0.00000,0.00000,65,28,26,5,71,10,26,7,ok,2,0,0.001,2,-0.00,0.07,11.73,19,0.063,8.08
2.1701,0.00524,0.03316,0.23213,0.00000,0.00000,0.00000,64,29,27,3,71,12,28,6,ok,2,0,0.001,2,-0.00,0.07,11.73,19,0.076,8.08
2.1826,0.00524,0.03316,0.23213,0.00000,0.00000,0.00000,65,28,28,3,72,13,29,5,ok,2,0,0.001,2,-0.00,0.07,11.73,19,0.089,8.08
2.2028,0.00524,0.03316,0.23213,0.00000,0.00000,0.00000,68,25,30,2,72,14,30,3,ok,2,0,0.001,2,-0.00,0.07,11.73,19,0.101,8.08
2.2076,0.00524,0.03316,0.23213,0.00000,0.00000,0.00000,70,21,31,2,71,16,31,3,ok,2,0,0.001,2,-0.00,0.07,11.73,19,0.114,8.08
2.2204,0.00524,0.03316,0.23213,0.00000,0.00000,0.00000,71,17,32,2,71,18,33,3,ok,2,0,0.001,2,-0.00,0.07,11.73,19,0.126,8.08
2.2429,0.00524,0.03316,0.23213,0.00000,0.00000,0.00000,71,15,34,2,72,18,34,2,ok,2,0,0.001,2,-0.00,0.07,11.73,19,0.139,8.08
2.2462,0.00524,0.03316,0.23213,0.00000,0.00000,0.00000,71,14,35,1,71,21,36,1,ok,2,0,0.001,2,-0.00,0.07,11.73,19,0.152,8.08
2.2588,0.00524,0.03316,0.23213,0.00000,0.00000,0.00000,71,11,36,1,71,22,38,1,ok,2,0,0.001,2,-0.00,0.07,11.73,19,0.165,8.08
2.2788,0.00524,0.03316,0.23213,0.00000,0.00000,0.00000,70,7,38,2,71,24,39,2,ok,2,0,0.001,2,-0.00,0.07,11.73,19,0.177,8.08
2.2839,0.00524,-0.01047,0.36477,0.00000,0.00000,0.00000,70,5,39,2,72,25,40,1,ok,2,0,0.001,2,-1.42,0.92,8.93,20,0.000,8.08
2.2961,0.00524,-0.01047,0.36477,0.00000,0.00000,0.00000,69,1,41,1,71,27,42,1,ok,2,0,0.001,2,-1.42,0.92,8.93,20,0.013,8.08
2.3228,0.00524,-0.01047,0.36477,0.00000,0.00000,0.00000,68,-1,42,1,71,28,43,1,ok,2,0,0.001,2,-1.42,0.92,8.93,20,0.025,8.08
2.3261,0.00524,-0.01047,0.36477,0.00000,0.00000,0.00000,66,-3,44,2,71,29,44,1,ok,2,0,0.001,2,-1.42,0.92,8.93,20,0.042,8.08
2.3386,0.00524,-0.01047,0.36477,0.00000,0.00000,0.00000,64,-4,44,2,72,28,45,0,ok,2,0,0.001,2,-1.42,0.92,8.93,20,0.055,8.08
2.3588,0.00524,-0.01047,0.36477,0.00000,0.00000,0.00000,63,-6,46,2,74,26,46,0,ok,2,0,0.001,2,-1.42,0.92,8.93,20,0.067,8.08
2.3636,0.00524,-0.01047,0.36477,0.00000,0.00000,0.00000,62,-8,47,2,76,21,47,0,ok,2,0,0.001,2,-1.42,0.92,8.93,20,0.080,8.08
2.3760,0.00524,-0.01047,0.36477,0.00000,0.00000,0.00000,60,-9,48,3,77,17,49,0,ok,2,0,0.001,2,-1.42,0.92,8.93,20,0.092,8.08
2.3988,0.00524,-0.01047,0.36477,0.00000,0.00000,0.00000,58,-10,49,3,79,14,49,0,ok,2,0,0.001,2,-1.42,0.92,8.93,20,0.105,8.08
2.4019,0.00524,-0.01047,0.36477,0.00000,0.00000,0.00000,55,-11,50,3,79,13,50,0,ok,2,0,0.001,2,-1.42,0.92,8.93,20,0.118,8.08
2.4146,0.00524,-0.01047,0.36477,0.00000,0.00000,0.00000,53,-12,50,5,79,11,51,0,ok,2,0,0.001,2,-1.42,0.92,8.93,20,0.131,8.08
2.4348,0.00524,-0.01047,0.36477,0.00000,0.00000,0.00000,50,-11,52,6,79,7,52,0,ok,2,0,0.001,2,-1.42,0.92,8.93,20,0.143,8.08
2.4396,0.00524,-0.01047,0.36477,0.00000,0.00000,0.00000,48,-11,53,5,78,4,53,0,ok,2,0,0.001,2,-1.42,0.92,8.93,20,0.156,8.08
2.4521,0.00524,-0.01047,0.36477,0.00000,0.00000,0.00000,46,-11,53,6,77,2,54,0,ok,2,0,0.001,2,-1.42,0.92,8.93,20,0.168,8.08
2.4748,0.00524,-0.01047,0.36477,0.00000,0.00000,0.00000,43,-11,54,7,77,-1,54,0,ok,2,0,0.001,2,-1.42,0.92,8.93,20,0.181,8.08
2.4779,0.00524,-0.01047,0.36477,0.00000,0.00000,0.00000,41,-11,56,7,76,-4,55,-1,ok,2,0,0.001,2,-1.42,0.92,8.93,20,0.194,8.08
2.4909,0.05760,-0.04538,0.37176,0.00000,0.00000,0.00000,38,-10,56,7,75,-5,56,0,ok,2,0,0.001,2,-0.52,0.37,9.86,21,0.000,8.08
2.5108,0.05760,-0.04538,0.37176,0.00000,0.00000,0.00000,35,-9,57,7,73,-8,57,-1,ok,2,0,0.001,2,-0.52,0.37,9.86,21,0.013,8.08
2.5156,0.05760,-0.04538,0.37176,0.00000,0.00000,0.00000,33,-8,58,8,71,-7,57,-1,ok,2,0,0.001,2,-0.52,0.37,9.86,21,0.025,8.08
2.5280,0.05760,-0.04538,0.37176,0.00000,0.00000,0.00000,29,-6,58,8,69,-10,58,0,ok,2,0,0.001,2,-0.52,0.37,9.86,21,0.038,8.08
2.5509,0.05760,-0.04538,0.37176,0.00000,0.00000,0.00000,26,-4,59,9,68,-11,59,0,ok,2,0,0.001,2,-0.52,0.37,9.86,21,0.050,8.08
2.5539,0.05760,-0.04538,0.37176,0.00000,0.00000,0.00000,22,-2,60,11,66,-13,60,0,ok,2,0,0.001,3,-0.52,0.37,9.86,21,0.063,8.08
2.5666,0.05760,-0.04538,0.37176,0.00000,0.00000,0.00000,20,-1,61,11,64,-13,61,0,ok,2,0,0.001,3,-0.52,0.37,9.86,21,0.076,8.08
2.5868,0.05760,-0.04538,0.37176,0.00000,0.00000,0.00000,19,1,62,11,62,-14,63,-3,ok,2,0,0.001,3,-0.52,0.37,9.86,21,0.089,8.08
2.5917,0.05760,-0.04538,0.37176,0.00000,0.00000,0.00000,17,3,62,12,59,-14,63,-2,ok,2,0,0.001,3,-0.52,0.37,9.86,21,0.101,8.08
2.6041,0.05760,-0.04538,0.37176,0.00000,0.00000,0.00000,14,7,63,13,57,-15,64,-2,ok,2,0,0.001,3,-0.52,0.37,9.86,21,0.113,8.08
2.6269,0.05760,-0.04538,0.37176,0.00000,0.00000,0.00000,13,10,63,14,54,-14,65,-1,ok,2,0,0.001,3,-0.52,0.37,9.86,21,0.126,8.08
2.6299,0.05760,-0.04538,0.37176,0.00000,0.00000,0.00000,11,13,64,15,52,-13,65,-1,ok,2,0,0.001,3,-0.52,0.37,9.86,21,0.139,8.08
2.6425,0.05760,-0.04538,0.37176,0.00000,0.00000,0.00000,13,13,64,16,49,-13,66,0,ok,2,0,0.001,3,-0.52,0.37,9.86,21,0.152,8.08
2.6628,0.05760,-0.04538,0.37176,0.00000,0.00000,0.00000,13,13,64,17,46,-12,67,-1,ok,2,0,0.001,3,-0.52,0.37,9.86,21,0.164,8.08
2.6676,0.05760,-0.04538,0.37176,0.00000,0.00000,0.00000,14,12,65,17,44,-12,68,0,ok,2,0,0.001,3,-0.52,0.37,9.86,21,0.177,8.08
2.6803,0.05760,-0.04538,0.37176,0.00000,0.00000,0.00000,16,12,65,18,41,-10,69,0,ok,2,0,0.001,3,-0.52,0.37,9.86,21,0.189,8.08
2.7028,0.00000,0.00524,0.38572,0.00000,0.00000,0.00000,16,11,65,19,38,-10,69,1,ok,2,0,0.001,3,-0.45,-0.04,8.08,22,0.000,8.08
2.7059,0.00000,0.00524,0.38572,0.00000,0.00000,0.00000,18,10,66,19,35,-8,69,2,ok,0,0,0.001,3,-0.45,-0.04,8.08,22,0.013,8.08
2.7186,0.00000,0.00524,0.38572,0.00000,0.00000,0.00000,19,10,65,21,33,-7,70,3,ok,0,0,0.001,3,-0.45,-0.04,8.08,22,0.026,8.08
2.7388,0.00000,0.00524,0.38572,0.00000,0.00000,0.00000,21,8,66,21,31,-5,71,5,ok,0,0,0.001,3,-0.45,-0.04,8.08,22,0.038,8.08
2.7435,0.00000,0.00524,0.38572,0.00000,0.00000,0.00000,22,8,66,22,29,-2,72,5,ok,0,0,0.001,3,-0.45,-0.04,8.08,22,0.051,8.08
2.7561,0.00000,0.00524,0.38572,0.00000,0.00000,0.00000,24,7,65,23,28,0,71,6,ok,0,0,0.001,3,-0.45,-0.04,8.08,22,0.063,8.08
2.7788,0.00000,0.00524,0.38572,0.00000,0.00000,0.00000,25,6,65,24,27,4,72,7,ok,0,0,0.001,3,-0.45,-0.04,8.08,22,0.076,8.08
2.7821,0.00000,0.00524,0.38572,0.00000,0.00000,0.00000,26,6,65,25,26,6,72,8,ok,0,0,0.001,3,-0.45,-0.04,8.08,22,0.089,8.08
2.7945,0.00000,0.00524,0.38572,0.00000,0.00000,0.00000,27,5,64,28,28,6,72,9,ok,0,0,0.001,3,-0.45,-0.04,8.08,22,0.102,8.08
2.8148,0.00000,0.00524,0.38572,0.00000,0.00000,0.00000,28,4,64,29,28,5,72,11,ok,0,0,0.001,3,-0.45,-0.04,8.08,22,0.114,8.08
2.8196,0.00000,0.00524,0.38572,0.00000,0.00000,0.00000,29,4,65,28,30,3,72,12,ok,0,0,0.001,3,-0.45,-0.04,8.08,22,0.127,8.08
2.8321,0.00000,0.00524,0.38572,0.00000,0.00000,0.00000,31,3,68,25,31,2,73,14,ok,0,0,0.001,3,-0.45,-0.04,8.08,22,0.139,8.08
2.8549,0.00000,0.00524,0.38572,0.00000,0.00000,0.00000,32,3,70,21,32,2,73,15,ok,0,0,0.001,3,-0.45,-0.04,8.08,22,0.152,8.08
2.8581,0.00000,0.00524,0.38572,0.00000,0.00000,0.00000,33,2,71,17,33,2,72,17,ok,0,0,0.001,3,-0.45,-0.04,8.08,22,0.165,8.08
2.8706,0.00000,0.00524,0.38572,0.00000,0.00000,0.00000,35,2,71,15,34,1,72,19,ok,0,0,0.001,3,-0.45,-0.04,8.08,22,0.178,8.08
2.8908,-0.00000,-0.02443,0.38746,0.00000,0.00000,0.00000,36,1,71,14,37,1,73,20,ok,0,0,0.001,3,-0.36,0.34,9.66,23,0.000,8.08
2.8956,-0.00000,-0.02443,0.38746,0.00000,0.00000,0.00000,38,1,71,11,37,1,72,22,ok,0,0,0.001,3,-0.36,0.34,9.66,23,0.013,8.08
2.9081,-0.00000,-0.02443,0.38746,0.00000,0.00000,0.00000,39,1,71,8,39,1,72,23,ok,0,0,0.001,3,-0.36,0.34,9.66,23,0.025,8.08
2.9308,-0.00000,-0.02443,0.38746,0.00000,0.00000,0.00000,40,1,70,5,40,1,73,24,ok,0,0,0.001,3,-0.36,0.34,9.66,23,0.038,8.08
2.9339,-0.00000,-0.02443,0.38746,0.00000,0.00000,0.00000,42,0,70,3,41,1,72,26,ok,0,0,0.001,3,-0.36,0.34,9.66,23,0.051,8.08
2.9467,-0.00000,-0.02443,0.38746,0.00000,0.00000,0.00000,43,0,69,1,42,1,72,27,ok,0,0,0.001,3,-0.36,0.34,9.66,23,0.063,8.08
2.9668,-0.00000,-0.02443,0.38746,0.00000,0.00000,0.00000,45,0,68,-1,44,0,72,29,ok,0,0,0.001,3,-0.36,0.34,9.66,23,0.076,8.08
2.9716,-0.00000,-0.02443,0.38746,0.00000,0.00000,0.00000,45,0,65,-2,45,-1,73,29,ok,0,0,0.001,3,-0.36,0.34,9.66,23,0.088,8.08
2.9840,-0.00000,-0.02443,0.38746,0.00000,0.00000,0.00000,47,0,64,-4,46,0,74,28,ok,0,0,0.001,3,-0.36,0.34,9.66,23,0.101,8.08
3.0069,-0.00000,-0.02443,0.38746,0.00000,0.00000,0.00000,48,1,64,-6,47,0,76,26,ok,0,0,0.001,3,-0.36,0.34,9.66,23,0.113,8.08
3.0099,-0.00000,-0.02443,0.38746,0.00000,0.00000,0.00000,49,2,61,-7,48,0,78,20,ok,0,0,0.001,3,-0.36,0.34,9.66,23,0.127,8.08
3.0229,-0.00000,-0.02443,0.38746,0.00000,0.00000,0.00000,50,1,59,-8,49,0,79,17,ok,0,0,0.001,3,-0.36,0.34,9.66,23,0.140,8.08
3.0428,-0.00000,-0.02443,0.38746,0.00000,0.00000,0.00000,51,1,56,-8,50,0,80,13,ok,2,0,0.001,3,-0.36,0.34,9.66,23,0.152,8.08
3.0477,-0.00000,-0.02443,0.38746,0.00000,0.00000,0.00000,51,3,54,-9,51,0,81,13,ok,2,0,0.001,3,-0.36,0.34,9.66,23,0.165,8.08
3.0600,-0.00000,-0.02443,0.38746,0.00000,0.00000,0.00000,52,5,51,-9,53,0,80,10,ok,2,0,0.001,3,-0.36,0.34,9.66,23,0.177,8.08
3.0829,-0.00000,-0.02443,0.38746,0.00000,0.00000,0.00000,53,4,49,-9,54,0,80,7,ok,2,0,0.001,3,-0.36,0.34,9.66,23,0.190,8.08
3.0862,-0.04712,0.00873,0.44157,0.00000,0.00000,0.00000,53,5,46,-9,55,1,80,3,ok,2,0,0.001,3,-0.21,-0.02,10.54,24,0.000,8.08
3.0988,-0.04712,0.00873,0.44157,0.00000,0.00000,0.00000,54,6,43,-9,55,0,79,2,ok,2,0,0.001,3,-0.21,-0.02,10.54,24,0.013,8.08
3.1188,-0.04712,0.00873,0.44157,0.00000,0.00000,0.00000,56,6,41,-9,57,1,78,-2,ok,2,0,0.001,3,-0.21,-0.02,10.54,24,0.025,8.08
3.1236,-0.04712,0.00873,0.44157,0.00000,0.00000,0.00000,56,6,39,-8,58,0,78,-3,ok,2,0,0.001,3,-0.21,-0.02,10.54,24,0.038,8.08
3.1361,-0.04712,0.00873,0.44157,0.00000,0.00000,0.00000,57,7,35,-7,58,1,77,-5,ok,2,0,0.001,3,-0.21,-0.02,10.54,24,0.050,8.08
3.1589,-0.04712,0.00873,0.44157,0.00000,0.00000,0.00000,58,8,33,-6,59,1,75,-7,ok,2,0,0.001,3,-0.21,-0.02,10.54,24,0.063,8.08
3.1619,-0.04712,0.00873,0.44157,0.00000,0.00000,0.00000,59,8,29,-5,60,1,72,-7,ok,2,0,0.001,3,-0.21,-0.02,10.54,24,0.076,8.08
3.1749,-0.04712,0.00873,0.44157,0.00000,0.00000,0.00000,59,9,26,-3,61,1,71,-9,ok,2,0,0.001,3,-0.21,-0.02,10.54,24,0.089,8.08
3.1948,-0.04712,0.00873,0.44157,0.00000,0.00000,0.00000,61,10,22,-1,62,1,69,-11,ok,2,0,0.001,3,-0.21,-0.02,10.54,24,0.101,8.08
3.1996,-0.04712,0.00873,0.44157,0.00000,0.00000,0.00000,61,10,20,0,64,-1,67,-12,ok,2,0,0.001,3,-0.21,-0.02,10.54,24,0.114,8.08
3.2121,-0.04712,0.00873,0.44157,0.00000,0.00000,0.00000,62,11,18,1,64,-1,65,-13,ok,2,0,0.001,3,-0.21,-0.02,10.54,24,0.126,8.08
3.2348,-0.04712,0.00873,0.44157,0.00000,0.00000,0.00000,63,12,16,3,65,0,63,-14,ok,2,0,0.001,3,-0.21,-0.02,10.54,24,0.139,8.08
3.2379,-0.04712,0.00873,0.44157,0.00000,0.00000,0.00000,63,12,14,7,66,0,61,-14,ok,2,0,0.001,3,-0.21,-0.02,10.54,24,0.152,8.08
3.2507,-0.04712,0.00873,0.44157,0.00000,0.00000,0.00000,63,13,13,10,66,0,59,-15,ok,2,0,0.001,3,-0.21,-0.02,10.54,24,0.165,8.08
3.2708,-0.04712,0.00873,0.44157,0.00000,0.00000,0.00000,64,14,11,12,67,0,55,-13,ok,2,0,0.001,3,-0.21,-0.02,10.54,24,0.177,8.08
3.2756,-0.04712,0.00873,0.44157,0.00000,0.00000,0.00000,64,15,13,13,67,1,53,-12,ok,2,0,0.001,3,-0.21,-0.02,10.54,24,0.190,8.08
3.2883,-0.02269,-0.01047,0.46251,0.00000,0.00000,0.00000,65,16,12,12,68,1,50,-12,ok,2,0,0.001,3,-1.44,0.43,8.79,25,0.000,8.08
3.3109,-0.02269,-0.01047,0.46251,0.00000,0.00000,0.00000,65,17,14,11,68,1,47,-11,ok,2,0,0.001,3,-1.44,0.43,8.79,25,0.013,8.08
3.3139,-0.02269,-0.01047,0.46251,0.00000,0.00000,0.00000,65,18,15,11,69,2,45,-11,ok,2,0,0.001,3,-1.44,0.43,8.79,25,0.026,8.08
3.3267,-0.02269,-0.01047,0.46251,0.00000,0.00000,0.00000,66,18,16,10,69,3,42,-10,ok,2,0,0.001,3,-1.44,0.43,8.79,25,0.039,8.08
3.3468,-0.02269,-0.01047,0.46251,0.00000,0.00000,0.00000,66,18,17,9,70,3,39,-9,ok,2,0,0.001,3,-1.44,0.43,8.79,25,0.051,8.08
3.3518,-0.02269,-0.01047,0.46251,0.00000,0.00000,0.00000,66,20,18,9,70,4,35,-7,ok,2,0,0.001,3,-1.44,0.43,8.79,25,0.064,8.08
3.3641,-0.02269,-0.01047,0.46251,0.00000,0.00000,0.00000,67,21,20,8,71,5,34,-6,ok,2,0,0.001,3,-1.44,0.43,8.79,25,0.076,8.08
3.3868,-0.02269,-0.01047,0.46251,0.00000,0.00000,0.00000,67,22,21,7,71,6,32,-4,ok,2,0,0.001,3,-1.44,0.43,8.79,25,0.089,8.08
3.3900,-0.02269,-0.01047,0.46251,0.00000,0.00000,0.00000,67,23,22,6,71,7,30,-1,ok,2,0,0.001,3,-1.44,0.43,8.79,25,0.102,8.08
3.4026,-0.02269,-0.01047,0.46251,0.00000,0.00000,0.00000,67,24,23,6,71,8,29,2,ok,2,0,0.001,3,-1.44,0.43,8.79,25,0.115,8.08
3.4228,-0.02269,-0.01047,0.46251,0.00000,0.00000,0.00000,66,25,25,5,71,9,27,5,ok,2,0,0.001,3,-1.44,0.43,8.79,25,0.127,8.08
3.4278,-0.02269,-0.01047,0.46251,0.00000,0.00000,0.00000,65,28,26,5,71,10,27,7,ok,2,0,0.001,3,-1.44,0.43,8.79,25,0.139,8.08
3.4400,-0.02269,-0.01047,0.46251,0.00000,0.00000,0.00000,65,29,27,4,71,12,29,6,ok,2,0,0.001,3,-1.44,0.43,8.79,25,0.152,8.08
3.4629,-0.02269,-0.01047,0.46251,0.00000,0.00000,0.00000,66,28,28,4,71,13,29,6,ok,2,0,0.001,3,-1.44,0.43,8.79,25,0.165,8.08
3.4659,-0.02269,-0.01047,0.46251,0.00000,0.00000,0.00000,68,25,30,3,72,14,30,3,ok,2,0,0.001,3,-1.44,0.43,8.79,25,0.178,8.08
3.4787,-0.02269,-0.01047,0.46251,0.00000,0.00000,0.00000,71,21,31,2,71,15,32,3,ok,2,0,0.001,3,-1.44,0.43,8.79,25,0.191,8.08
3.4988,0.02618,-0.02967,0.52709,0.00000,0.00000,0.00000,71,17,33,2,71,18,33,3,ok,2,0,0.001,3,0.92,-0.74,11.07,26,0.000,8.08
3.5036,0.02618,-0.02967,0.52709,0.00000,0.00000,0.00000,72,15,34,2,72,18,34,2,ok,2,0,0.001,3,0.92,-0.74,11.07,26,0.013,8.08
3.5161,0.02618,-0.02967,0.52709,0.00000,0.00000,0.00000,71,14,35,1,71,21,36,1,ok,2,0,0.001,3,0.92,-0.74,11.07,26,0.025,8.08
3.5388,0.02618,-0.02967,0.52709,0.00000,0.00000,0.00000,71,11,37,1,71,22,38,1,ok,2,0,0.001,3,0.92,-0.74,11.07,26,0.038,8.08
3.5421,0.02618,-0.02967,0.52709,0.00000,0.00000,0.00000,71,8,38,2,71,24,39,1,ok,2,0,0.001,3,0.92,-0.74,11.07,26,0.051,8.08
3.5547,0.02618,-0.02967,0.52709,0.00000,0.00000,0.00000,70,5,39,2,71,25,40,1,ok,2,0,0.001,3,0.92,-0.74,11.07,26,0.064,8.08
3.5748,0.02618,-0.02967,0.52709,0.00000,0.00000,0.00000,69,1,41,2,70,27,42,1,ok,2,0,0.001,4,0.92,-0.74,11.07,26,0.076,8.08
3.5796,0.02618,-0.02967,0.52709,0.00000,0.00000,0.00000,68,-1,42,1,70,28,43,1,ok,2,0,0.001,4,0.92,-0.74,11.07,26,0.088,8.08
3.5923,0.02618,-0.02967,0.52709,0.00000,0.00000,0.00000,67,-3,44,2,71,28,44,1,ok,2,0,0.001,4,0.92,-0.74,11.07,26,0.101,8.08
3.6149,0.02618,-0.02967,0.52709,0.00000,0.00000,0.00000,65,-4,44,2,72,28,45,0,ok,2,0,0.001,4,0.92,-0.74,11.07,26,0.114,8.08
3.6179,0.02618,-0.02967,0.52709,0.00000,0.00000,0.00000,64,-6,45,2,73,26,46,0,ok,2,0,0.001,4,0.92,-0.74,11.07,26,0.127,8.08
3.6306,0.02618,-0.02967,0.52709,0.00000,0.00000,0.00000,63,-8,47,2,75,21,47,0,ok,2,0,0.001,4,0.92,-0.74,11.07,26,0.140,8.08
3.6509,0.02618,-0.02967,0.52709,0.00000,0.00000,0.00000,61,-9,48,3,77,16,49,0,ok,2,0,0.001,4,0.92,-0.74,11.07,26,0.152,8.08
3.6557,0.02618,-0.02967,0.52709,0.00000,0.00000,0.00000,58,-10,49,3,78,14,49,0,ok,2,0,0.001,4,0.92,-0.74,11.07,26,0.165,8.08
3.6681,0.02618,-0.02967,0.52709,0.00000,0.00000,0.00000,56,-11,50,3,78,13,50,0,ok,2,0,0.001,4,0.92,-0.74,11.07,26,0.177,8.08
3.6909,0.02618,-0.02967,0.52709,0.00000,0.00000,0.00000,54,-12,50,5,78,11,51,0,ok,2,0,0.001,4,0.92,-0.74,11.07,26,0.190,8.08
3.6942,0.08203,0.03840,0.51138,0.00000,0.00000,0.00000,51,-11,52,6,78,7,52,0,ok,2,0,0.001,4,-0.42,1.11,10.83,27,0.000,8.08
3.7066,0.08203,0.03840,0.51138,0.00000,0.00000,0.00000,48,-11,52,5,78,5,53,0,ok,2,0,0.001,4,-0.42,1.11,10.83,27,0.013,8.08
3.7268,0.08203,0.03840,0.51138,0.00000,0.00000,0.00000,46,-11,53,6,77,2,54,0,ok,2,0,0.001,4,-0.42,1.11,10.83,27,0.025,8.08
3.7316,0.08203,0.03840,0.51138,0.00000,0.00000,0.00000,43,-11,54,7,76,-1,54,0,ok,2,0,0.001,4,-0.42,1.11,10.83,27,0.038,8.08
3.7441,0.08203,0.03840,0.51138,0.00000,0.00000,0.00000,41,-11,56,7,76,-3,55,-1,ok,2,0,0.001,4,-0.42,1.11,10.83,27,0.050,8.08
3.7668,0.08203,0.03840,0.51138,0.00000,0.00000,0.00000,39,-10,56,7,75,-4,56,0,ok,2,0,0.001,4,-0.42,1.11,10.83,27,0.063,8.08
3.7701,0.08203,0.03840,0.51138,0.00000,0.00000,0.00000,36,-9,57,7,73,-7,57,-1,ok,2,0,0.001,4,-0.42,1.11,10.83,27,0.076,8.08
3.7827,0.08203,0.03840,0.51138,0.00000,0.00000,0.00000,33,-8,57,8,71,-7,57,0,ok,2,0,0.001,4,-0.42,1.11,10.83,27,0.089,8.08
3.8028,0.08203,0.03840,0.51138,0.00000,0.00000,0.00000,30,-6,58,8,69,-9,58,0,ok,2,0,0.001,4,-0.42,1.11,10.83,27,0.101,8.08
3.8077,0.08203,0.03840,0.51138,0.00000,0.00000,0.00000,27,-4,59,9,68,-11,59,0,ok,2,0,0.001,4,-0.42,1.11,10.83,27,0.114,8.08
3.8201,0.08203,0.03840,0.51138,0.00000,0.00000,0.00000,23,-2,60,11,66,-12,60,0,ok,2,0,0.001,4,-0.42,1.11,10.83,27,0.126,8.08
3.8428,0.08203,0.03840,0.51138,0.00000,0.00000,0.00000,21,-1,61,11,64,-13,61,0,ok,2,0,0.001,4,-0.42,1.11,10.83,27,0.139,8.08
3.8459,0.08203,0.03840,0.51138,0.00000,0.00000,0.00000,19,1,62,11,62,-13,63,-3,ok,2,0,0.001,4,-0.42,1.11,10.83,27,0.152,8.08
3.8586,0.08203,0.03840,0.51138,0.00000,0.00000,0.00000,17,3,62,12,59,-14,64,-1,ok,2,0,0.001,4,-0.42,1.11,10.83,27,0.165,8.08
3.8789,0.08203,0.03840,0.51138,0.00000,0.00000,0.00000,15,6,63,13,58,-14,65,-1,ok,2,0,0.001,4,-0.42,1.11,10.83,27,0.177,8.08
3.8838,0.08203,0.03840,0.51138,0.00000,0.00000,0.00000,13,10,62,14,55,-13,65,-1,ok,2,0,0.001,4,-0.42,1.11,10.83,27,0.190,8.08
3.8963,0.05934,-0.03840,0.51662,0.00000,0.00000,0.00000,11,12,63,15,52,-12,66,-1,ok,2,0,0.001,4,-0.59,1.00,9.17,28,0.000,8.08
3.9189,0.05934,-0.03840,0.51662,0.00000,0.00000,0.00000,13,13,64,16,49,-13,67,0,ok,2,0,0.001,4,-0.59,1.00,9.17,28,0.013,8.08
3.9220,0.05934,-0.03840,0.51662,0.00000,0.00000,0.00000,13,13,64,17,46,-12,67,0,ok,2,0,0.001,4,-0.59,1.00,9.17,28,0.026,8.08
3.9348,0.05934,-0.03840,0.51662,0.00000,0.00000,0.00000,15,12,65,17,44,-11,68,0,ok,2,0,0.001,4,-0.59,1.00,9.17,28,0.039,8.08
3.9548,0.05934,-0.03840,0.51662,0.00000,0.00000,0.00000,16,11,65,18,41,-10,69,1,ok,2,0,0.001,4,-0.59,1.00,9.17,28,0.051,8.08
3.9596,0.05934,-0.03840,0.51662,0.00000,0.00000,0.00000,16,11,65,19,38,-9,70,2,ok,2,0,0.001,4,-0.59,1.00,9.17,28,0.064,8.08
3.9721,0.05934,-0.03840,0.51662,0.00000,0.00000,0.00000,18,10,66,19,35,-8,70,2,ok,2,0,0.001,4,-0.59,1.00,9.17,28,0.076,8.08
3.9948,0.05934,-0.03840,0.51662,0.00000,0.00000,0.00000,19,10,66,21,33,-7,71,3,ok,2,0,0.001,4,-0.59,1.00,9.17,28,0.089,8.08
3.9979,0.05934,-0.03840,0.51662,0.00000,0.00000,0.00000,21,8,66,21,31,-5,71,4,ok,2,0,0.001,4,-0.59,1.00,9.17,28,0.102,8.08
4.0105,0.05934,-0.03840,0.51662,0.00000,0.00000,0.00000,22,8,66,22,29,-2,72,5,ok,2,0,0.001,4,-0.59,1.00,9.17,28,0.115,8.08
4.0308,0.05934,-0.03840,0.51662,0.00000,0.00000,0.00000,24,7,66,23,28,0,72,6,ok,2,0,0.001,4,-0.59,1.00,9.17,28,0.127,8.08
4.0356,0.05934,-0.03840,0.51662,0.00000,0.00000,0.00000,25,6,66,24,26,4,72,7,ok,2,0,0.001,4,-0.59,1.00,9.17,28,0.139,8.08
4.0482,0.05934,-0.03840,0.51662,0.00000,0.00000,0.00000,26,6,65,25,26,6,72,8,ok,2,0,0.001,4,-0.59,1.00,9.17,28,0.152,8.08
4.0709,0.05934,-0.03840,0.51662,0.00000,0.00000,0.00000,27,5,64,28,28,5,73,9,ok,2,0,0.001,4,-0.59,1.00,9.17,28,0.165,8.08
4.0739,0.05934,-0.03840,0.51662,0.00000,0.00000,0.00000,29,4,64,29,28,5,73,11,ok,0,0,0.001,4,-0.59,1.00,9.17,28,0.178,8.08
4.0866,0.05934,-0.03840,0.51662,0.00000,0.00000,0.00000,30,4,65,28,29,3,73,12,ok,0,0,0.001,4,-0.59,1.00,9.17,28,0.191,8.08
4.1068,-0.00175,-0.00349,0.49742,0.00000,0.00000,0.00000,31,3,68,25,30,2,73,14,ok,2,0,0.001,4,0.44,0.53,10.08,29,0.000,8.08
4.1116,-0.00175,-0.00349,0.49742,0.00000,0.00000,0.00000,32,3,70,21,31,2,73,15,ok,2,0,0.001,4,0.44,0.53,10.08,29,0.013,8.08
4.1241,-0.00175,-0.00349,0.49742,0.00000,0.00000,0.00000,34,2,71,17,33,2,73,17,ok,2,0,0.001,4,0.44,0.53,10.08,29,0.025,8.08
4.1468,-0.00175,-0.00349,0.49742,0.00000,0.00000,0.00000,35,2,71,15,34,1,73,19,ok,2,0,0.001,4,0.44,0.53,10.08,29,0.038,8.08
4.1499,-0.00175,-0.00349,0.49742,0.00000,0.00000,0.00000,37,1,71,14,37,1,73,20,ok,2,0,0.001,4,0.44,0.53,10.08,29,0.051,8.08
4.1627,-0.00175,-0.00349,0.49742,0.00000,0.00000,0.00000,38,1,71,11,37,1,72,22,ok,2,0,0.001,4,0.44,0.53,10.08,29,0.064,8.08
4.1828,-0.00175,-0.00349,0.49742,0.00000,0.00000,0.00000,40,1,71,8,39,1,72,23,ok,0,0,0.001,4,0.44,0.53,10.08,29,0.076,8.08
4.1877,-0.00175,-0.00349,0.49742,0.00000,0.00000,0.00000,41,1,70,6,40,1,73,24,ok,0,0,0.001,4,0.44,0.53,10.08,29,0.088,8.08
4.2001,-0.00175,-0.00349,0.49742,0.00000,0.00000,0.00000,42,0,70,3,41,1,73,26,ok,0,0,0.001,4,0.44,0.53,10.08,29,0.101,8.08
4.2228,-0.00175,-0.00349,0.49742,0.00000,0.00000,0.00000,43,0,69,1,42,1,72,28,ok,0,0,0.001,4,0.44,0.53,10.08,29,0.113,8.08
4.2259,-0.00175,-0.00349,0.49742,0.00000,0.00000,0.00000,45,0,68,-1,43,1,72,29,ok,0,0,0.001,4,0.44,0.53,10.08,29,0.127,8.08
4.2386,-0.00175,-0.00349,0.49742,0.00000,0.00000,0.00000,45,0,65,-2,45,0,73,29,ok,2,0,0.001,4,0.44,0.53,10.08,29,0.139,8.08
4.2588,-0.00175,-0.00349,0.49742,0.00000,0.00000,0.00000,47,0,64,-4,46,0,74,28,ok,2,0,0.001,4,0.44,0.53,10.08,29,0.152,8.08
4.2636,-0.00175,-0.00349,0.49742,0.00000,0.00000,0.00000,48,0,63,-6,47,0,76,26,ok,2,0,0.001,4,0.44,0.53,10.08,29,0.164,8.08
4.2761,-0.00175,-0.00349,0.49742,0.00000,0.00000,0.00000,49,2,61,-7,48,0,78,20,ok,2,0,0.001,4,0.44,0.53,10.08,29,0.177,8.08
4.2989,-0.00175,-0.00349,0.49742,0.00000,0.00000,0.00000,51,1,59,-8,49,0,79,17,ok,2,0,0.001,4,0.44,0.53,10.08,29,0.189,8.08
4.3022,-0.00175,-0.00349,0.49742,0.00000,0.00000,0.00000,51,1,56,-8,50,0,81,14,ok,2,0,0.001,4,0.44,0.53,10.08,29,0.203,8.08
4.3149,-0.05585,0.00175,0.57247,0.00000,0.00000,0.00000,51,3,54,-9,51,0,81,13,ok,2,0,0.001,4,-1.26,-0.09,10.39,30,0.000,8.08
4.3348,-0.05585,0.00175,0.57247,0.00000,0.00000,0.00000,52,4,51,-9,53,0,81,11,ok,2,0,0.001,4,-1.26,-0.09,10.39,30,0.013,8.08
4.3397,-0.05585,0.00175,0.57247,0.00000,0.00000,0.00000,53,4,49,-9,54,0,81,7,ok,2,0,0.001,4,-1.26,-0.09,10.39,30,0.025,8.08
4.3523,-0.05585,0.00175,0.57247,0.00000,0.00000,0.00000,54,5,46,-9,55,1,80,4,ok,2,0,0.001,4,-1.26,-0.09,10.39,30,0.037,8.08
4.3748,-0.05585,0.00175,0.57247,0.00000,0.00000,0.00000,54,6,43,-9,55,1,79,2,ok,2,0,0.001,4,-1.26,-0.09,10.39,30,0.050,8.08
4.3779,-0.05585,0.00175,0.57247,0.00000,0.00000,0.00000,56,6,41,-9,57,1,78,-2,ok,2,0,0.001,4,-1.26,-0.09,10.39,30,0.063,8.08
4.3906,-0.05585,0.00175,0.57247,0.00000,0.00000,0.00000,56,6,39,-8,58,0,78,-3,ok,2,0,0.001,4,-1.26,-0.09,10.39,30,0.076,8.08
4.4108,-0.05585,0.00175,0.57247,0.00000,0.00000,0.00000,58,7,35,-7,58,1,77,-5,ok,2,0,0.001,4,-1.26,-0.09,10.39,30,0.088,8.08
4.4156,-0.05585,0.00175,0.57247,0.00000,0.00000,0.00000,58,8,33,-6,59,1,75,-7,ok,2,0,0.001,4,-1.26,-0.09,10.39,30,0.101,8.08
4.4280,-0.05585,0.00175,0.57247,0.00000,0.00000,0.00000,59,8,29,-5,60,1,72,-7,ok,2,0,0.001,4,-1.26,-0.09,10.39,30,0.113,8.08
4.4508,-0.05585,0.00175,0.57247,0.00000,0.00000,0.00000,59,9,26,-3,61,2,71,-9,ok,2,0,0.001,4,-1.26,-0.09,10.39,30,0.126,8.08
4.4540,-0.05585,0.00175,0.57247,0.00000,0.00000,0.00000,61,10,22,-1,62,1,69,-11,ok,2,0,0.001,4,-1.26,-0.09,10.39,30,0.139,8.08
4.4666,-0.05585,0.00175,0.57247,0.00000,0.00000,0.00000,61,10,20,0,64,-1,67,-12,ok,2,0,0.001,4,-1.26,-0.09,10.39,30,0.152,8.08
4.4868,-0.05585,0.00175,0.57247,0.00000,0.00000,0.00000,62,11,18,1,64,-1,65,-13,ok,2,0,0.001,4,-1.26,-0.09,10.39,30,0.164,8.08
4.4919,-0.05585,0.00175,0.57247,0.00000,0.00000,0.00000,63,12,16,3,65,0,63,-13,ok,2,0,0.001,4,-1.26,-0.09,10.39,30,0.177,8.08
4.5042,-0.05585,0.00175,0.57247,0.00000,0.00000,0.00000,63,12,14,7,66,0,61,-14,ok,2,0,0.001,4,-1.26,-0.09,10.39,30,0.189,8.08
4.5269,-0.06109,-0.02094,0.57596,0.00000,0.00000,0.00000,63,13,13,10,66,0,59,-15,ok,2,0,0.001,4,-0.40,0.26,10.03,31,0.000,8.08
4.5299,-0.06109,-0.02094,0.57596,0.00000,0.00000,0.00000,64,14,11,12,67,0,56,-13,ok,2,0,0.001,4,-0.40,0.26,10.03,31,0.013,8.08
4.5427,-0.06109,-0.02094,0.57596,0.00000,0.00000,0.00000,64,15,13,13,67,1,53,-12,ok,2,0,0.001,4,-0.40,0.26,10.03,31,0.026,8.08
4.5628,-0.06109,-0.02094,0.57596,0.00000,0.00000,0.00000,65,16,12,13,68,1,50,-12,ok,2,0,0.001,4,-0.40,0.26,10.03,31,0.038,8.08
4.5676,-0.06109,-0.02094,0.57596,0.00000,0.00000,0.00000,66,17,14,11,68,1,47,-11,ok,2,0,0.001,4,-0.40,0.26,10.03,31,0.051,8.08
4.5802,-0.06109,-0.02094,0.57596,0.00000,0.00000,0.00000,66,18,15,11,69,2,45,-11,ok,2,0,0.001,5,-0.40,0.26,10.03,31,0.064,8.08
4.6028,-0.06109,-0.02094,0.57596,0.00000,0.00000,0.00000,66,18,16,10,69,2,42,-9,ok,2,0,0.001,5,-0.40,0.26,10.03,31,0.076,8.08
4.6060,-0.06109,-0.02094,0.57596,0.00000,0.00000,0.00000,67,18,17,9,70,3,39,-9,ok,2,0,0.001,5,-0.40,0.26,10.03,31,0.089,8.08
4.6187,-0.06109,-0.02094,0.57596,0.00000,0.00000,0.00000,67,20,18,9,70,4,36,-7,ok,2,0,0.001,5,-0.40,0.26,10.03,31,0.102,8.08
4.6388,-0.06109,-0.02094,0.57596,0.00000,0.00000,0.00000,68,21,20,8,71,5,34,-5,ok,2,0,0.001,5,-0.40,0.26,10.03,31,0.115,8.08
4.6437,-0.06109,-0.02094,0.57596,0.00000,0.00000,0.00000,68,22,21,7,71,6,32,-4,ok,2,0,0.001,5,-0.40,0.26,10.03,31,0.127,8.08
4.6563,-0.06109,-0.02094,0.57596,0.00000,0.00000,0.00000,67,23,22,6,71,7,30,-1,ok,2,0,0.001,5,-0.40,0.26,10.03,31,0.140,8.08
4.6789,-0.06109,-0.02094,0.57596,0.00000,0.00000,0.00000,67,24,23,6,71,8,29,2,ok,2,0,0.001,5,-0.40,0.26,10.03,31,0.152,8.08
4.6819,-0.06109,-0.02094,0.57596,0.00000,0.00000,0.00000,66,25,25,5,71,9,27,5,ok,2,0,0.001,5,-0.40,0.26,10.03,31,0.165,8.08
4.6946,-0.06109,-0.02094,0.57596,0.00000,0.00000,0.00000,65,28,26,5,71,10,27,7,ok,2,0,0.001,5,-0.40,0.26,10.03,31,0.178,8.08
4.7148,-0.06109,-0.02094,0.57596,0.00000,0.00000,0.00000,65,29,27,4,71,12,29,6,ok,2,0,0.001,5,-0.40,0.26,10.03,31,0.191,8.08
4.7199,0.02443,0.01222,0.64403,0.00000,0.00000,0.00000,66,28,28,4,71,13,29,6,ok,2,0,0.001,5,1.32,-0.77,10.17,32,0.000,8.08
4.7321,0.02443,0.01222,0.64403,0.00000,0.00000,0.00000,68,25,30,3,72,15,30,3,ok,2,0,0.001,5,1.32,-0.77,10.17,32,0.013,8.08
4.7548,0.02443,0.01222,0.64403,0.00000,0.00000,0.00000,71,21,31,2,71,16,32,3,ok,2,0,0.001,5,1.32,-0.77,10.17,32,0.025,8.08
4.7579,0.02443,0.01222,0.64403,0.00000,0.00000,0.00000,72,17,33,2,71,18,33,2,ok,2,0,0.001,5,1.32,-0.77,10.17,32,0.038,8.08
4.7706,0.02443,0.01222,0.64403,0.00000,0.00000,0.00000,72,15,34,2,72,19,34,2,ok,2,0,0.001,5,1.32,-0.77,10.17,32,0.051,8.08
4.7908,0.02443,0.01222,0.64403,0.00000,0.00000,0.00000,71,14,35,1,71,21,36,1,ok,2,0,0.001,5,1.32,-0.77,10.17,32,0.063,8.08
4.7956,0.02443,0.01222,0.64403,0.00000,0.00000,0.00000,71,11,36,1,71,22,38,1,ok,2,0,0.001,5,1.32,-0.77,10.17,32,0.076,8.08
4.8081,0.02443,0.01222,0.64403,0.00000,0.00000,0.00000,71,8,38,2,71,24,39,2,ok,2,0,0.001,5,1.32,-0.77,10.17,32,0.088,8.08
4.8308,0.02443,0.01222,0.64403,0.00000,0.00000,0.00000,70,5,39,2,71,25,40,1,ok,2,0,0.001,5,1.32,-0.77,10.17,32,0.101,8.08
4.8339,0.02443,0.01222,0.64403,0.00000,0.00000,0.00000,69,1,40,1,70,27,42,1,ok,2,0,0.001,5,1.32,-0.77,10.17,32,0.114,8.08
4.8466,0.02443,0.01222,0.64403,0.00000,0.00000,0.00000,68,-1,41,1,70,28,43,1,ok,2,0,0.001,5,1.32,-0.77,10.17,32,0.127,8.08
4.8668,0.02443,0.01222,0.64403,0.00000,0.00000,0.00000,67,-3,43,2,71,29,44,1,ok,2,0,0.001,5,1.32,-0.77,10.17,32,0.139,8.08
4.8716,0.02443,0.01222,0.64403,0.00000,0.00000,0.00000,65,-4,44,2,72,29,45,1,ok,2,0,0.001,5,1.32,-0.77,10.17,32,0.152,8.08
4.8841,0.02443,0.01222,0.64403,0.00000,0.00000,0.00000,64,-6,45,2,73,26,46,0,ok,2,0,0.001,5,1.32,-0.77,10.17,32,0.164,8.08
4.9068,0.02443,0.01222,0.64403,0.00000,0.00000,0.00000,63,-8,46,2,75,21,47,0,ok,2,0,0.001,5,1.32,-0.77,10.17,32,0.177,8.08
4.9099,0.02443,0.01222,0.64403,0.00000,0.00000,0.00000,61,-9,48,3,77,17,49,0,ok,2,0,0.001,5,1.32,-0.77,10.17,32,0.190,8.08
4.9229,0.06632,0.03316,0.66497,0.00000,0.00000,0.00000,58,-10,49,3,78,14,49,0,ok,2,0,0.001,5,0.53,0.65,10.93,33,0.000,8.08
4.9428,0.06632,0.03316,0.66497,0.00000,0.00000,0.00000,56,-11,50,3,78,14,50,0,ok,2,0,0.001,5,0.53,0.65,10.93,33,0.013,8.08
4.9477,0.06632,0.03316,0.66497,0.00000,0.00000,0.00000,54,-12,50,5,78,12,51,0,ok,2,0,0.001,5,0.53,0.65,10.93,33,0.025,8.08
4.9601,0.06632,0.03316,0.66497,0.00000,0.00000,0.00000,51,-11,52,6,78,8,52,0,ok,2,0,0.001,5,0.53,0.65,10.93,33,0.038,8.08
4.9829,0.06632,0.03316,0.66497,0.00000,0.00000,0.00000,48,-11,52,5,78,5,53,0,ok,2,0,0.001,5,0.53,0.65,10.93,33,0.050,8.08
4.9861,0.06632,0.03316,0.66497,0.00000,0.00000,0.00000,46,-11,53,6,77,3,54,0,ok,2,0,0.001,5,0.53,0.65,10.93,33,0.063,8.08
4.9986,0.06632,0.03316,0.66497,0.00000,0.00000,0.00000,43,-11,54,7,77,-1,54,1,ok,2,0,0.001,5,0.53,0.65,10.93,33,0.076,8.08
5.0188,0.06632,0.03316,0.66497,0.00000,0.00000,0.00000,41,-11,55,7,76,-3,55,0,ok,2,0,0.001,5,0.53,0.65,10.93,33,0.089,8.08
5.0306,0.06632,0.03316,0.66497,0.00000,0.00000,0.00000,39,-10,56,7,75,-4,56,0,ok,2,0,0.001,5,0.53,0.65,10.93,33,0.101,8.08
5.0361,0.06632,0.03316,0.66497,0.00000,0.00000,0.00000,36,-9,57,7,73,-7,57,-1,ok,2,0,0.001,5,0.53,0.65,10.93,33,0.114,8.08
5.0588,0.06632,0.03316,0.66497,0.00000,0.00000,0.00000,33,-8,57,8,70,-7,57,0,ok,2,0,0.001,5,0.53,0.65,10.93,33,0.126,8.08
5.0621,0.06632,0.03316,0.66497,0.00000,0.00000,0.00000,30,-6,58,8,69,-9,58,0,ok,2,0,0.001,5,0.53,0.65,10.93,33,0.139,8.08
5.0748,0.06632,0.03316,0.66497,0.00000,0.00000,0.00000,27,-4,59,9,68,-11,59,1,ok,2,0,0.001,5,0.53,0.65,10.93,33,0.152,8.08
5.0948,0.06632,0.03316,0.66497,0.00000,0.00000,0.00000,23,-2,60,11,66,-12,60,0,ok,2,0,0.001,5,0.53,0.65,10.93,33,0.165,8.08
5.0997,0.06632,0.03316,0.66497,0.00000,0.00000,0.00000,21,-1,61,11,64,-13,61,0,ok,2,0,0.001,5,0.53,0.65,10.93,33,0.177,8.08
5.1122,0.06632,0.03316,0.66497,0.00000,0.00000,0.00000,19,1,62,11,62,-13,63,-2,ok,2,0,0.001,5,0.53,0.65,10.93,33,0.190,8.08
5.1349,0.12566,-0.02443,0.68766,0.00000,0.00000,0.00000,17,3,62,12,59,-14,64,-1,ok,2,0,0.001,5,0.13,0.87,9.67,34,0.000,8.08
5.1379,0.12566,-0.02443,0.68766,0.00000,0.00000,0.00000,15,6,63,13,57,-14,65,-2,ok,2,0,0.001,5,0.13,0.87,9.67,34,0.013,8.08
5.1506,0.12566,-0.02443,0.68766,0.00000,0.00000,0.00000,13,10,63,14,54,-13,65,-1,ok,2,0,0.001,5,0.13,0.87,9.67,34,0.026,8.08
5.1708,0.12566,-0.02443,0.68766,0.00000,0.00000,0.00000,12,12,64,15,52,-12,66,-1,ok,2,0,0.001,5,0.13,0.87,9.67,34,0.039,8.08
5.1757,0.12566,-0.02443,0.68766,0.00000,0.00000,0.00000,13,13,64,16,49,-12,67,0,ok,2,0,0.001,5,0.13,0.87,9.67,34,0.051,8.08
5.1881,0.12566,-0.02443,0.68766,0.00000,0.00000,0.00000,13,13,64,17,46,-11,67,-1,ok,2,0,0.001,5,0.13,0.87,9.67,34,0.064,8.08
5.2108,0.12566,-0.02443,0.68766,0.00000,0.00000,0.00000,15,12,64,17,44,-11,68,0,ok,2,0,0.001,5,0.13,0.87,9.67,34,0.076,8.08
5.2139,0.12566,-0.02443,0.68766,0.00000,0.00000,0.00000,16,12,65,18,41,-10,69,0,ok,2,0,0.001,5,0.13,0.87,9.67,34,0.089,8.08
5.2266,0.12566,-0.02443,0.68766,0.00000,0.00000,0.00000,17,11,65,19,38,-9,70,2,ok,2,0,0.001,5,0.13,0.87,9.67,34,0.102,8.08
5.2469,0.12566,-0.02443,0.68766,0.00000,0.00000,0.00000,19,10,65,19,35,-8,70,2,ok,2,0,0.001,5,0.13,0.87,9.67,34,0.115,8.08
5.2518,0.12566,-0.02443,0.68766,0.00000,0.00000,0.00000,19,10,65,21,33,-6,71,3,ok,2,0,0.001,5,0.13,0.87,9.67,34,0.127,8.08
5.2640,0.12566,-0.02443,0.68766,0.00000,0.00000,0.00000,22,9,66,21,31,-5,71,4,ok,2,0,0.002,5,0.13,0.87,9.67,34,0.140,8.08
5.2869,0.12566,-0.02443,0.68766,0.00000,0.00000,0.00000,23,8,66,22,29,-2,72,5,ok,2,0,0.002,5,0.13,0.87,9.67,34,0.152,8.08
5.2900,0.12566,-0.02443,0.68766,0.00000,0.00000,0.00000,24,7,65,23,27,0,72,6,ok,2,0,0.002,5,0.13,0.87,9.67,34,0.165,8.08
5.3027,0.12566,-0.02443,0.68766,0.00000,0.00000,0.00000,25,6,65,24,26,4,72,7,ok,2,0,0.002,5,0.13,0.87,9.67,34,0.178,8.08
5.3228,0.12566,-0.02443,0.68766,0.00000,0.00000,0.00000,27,6,65,25,26,6,73,8,ok,0,0,0.002,5,0.13,0.87,9.67,34,0.191,8.08
5.3279,0.09425,0.09250,0.67370,0.00000,0.00000,0.00000,28,5,64,28,27,6,73,9,ok,0,0,0.002,5,1.69,1.46,9.79,35,0.000,8.08
5.3401,0.09425,0.09250,0.67370,0.00000,0.00000,0.00000,29,5,63,29,28,6,73,11,ok,0,0,0.002,5,1.69,1.46,9.79,35,0.013,8.08
5.3628,0.09425,0.09250,0.67370,0.00000,0.00000,0.00000,30,4,65,28,29,4,73,12,ok,2,0,0.002,5,1.69,1.46,9.79,35,0.025,8.08
5.3659,0.09425,0.09250,0.67370,0.00000,0.00000,0.00000,31,3,67,25,30,3,73,14,ok,2,0,0.002,5,1.69,1.46,9.79,35,0.038,8.08
5.3785,0.09425,0.09250,0.67370,0.00000,0.00000,0.00000,33,3,69,21,31,3,74,16,ok,2,0,0.002,5,1.69,1.46,9.79,35,0.051,8.08
5.3988,0.09425,0.09250,0.67370,0.00000,0.00000,0.00000,34,2,70,17,33,3,73,18,ok,2,0,0.002,5,1.69,1.46,9.79,35,0.063,8.08
5.4038,0.09425,0.09250,0.67370,0.00000,0.00000,0.00000,35,2,71,15,34,1,73,20,ok,2,0,0.002,5,1.69,1.46,9.79,35,0.076,8.08
5.4161,0.09425,0.09250,0.67370,0.00000,0.00000,0.00000,37,1,71,14,36,2,74,20,ok,2,0,0.002,5,1.69,1.46,9.79,35,0.088,8.08
5.4388,0.09425,0.09250,0.67370,0.00000,0.00000,0.00000,38,1,71,11,37,2,73,22,ok,2,0,0.002,5,1.69,1.46,9.79,35,0.101,8.08
5.4419,0.09425,0.09250,0.67370,0.00000,0.00000,0.00000,40,1,70,8,38,3,73,23,ok,2,0,0.002,5,1.69,1.46,9.79,35,0.114,8.08
5.4546,0.09425,0.09250,0.67370,0.00000,0.00000,0.00000,41,1,70,5,40,2,73,25,ok,0,0,0.002,5,1.69,1.46,9.79,35,0.127,8.08
5.4748,0.09425,0.09250,0.67370,0.00000,0.00000,0.00000,43,0,69,3,41,3,73,26,ok,0,0,0.002,5,1.69,1.46,9.79,35,0.139,8.08
5.4798,0.09425,0.09250,0.67370,0.00000,0.00000,0.00000,44,0,68,1,42,2,73,28,ok,0,0,0.002,5,1.69,1.46,9.79,35,0.152,8.08
5.4921,0.09425,0.09250,0.67370,0.00000,0.00000,0.00000,45,0,67,-1,43,2,72,29,ok,0,0,0.002,5,1.69,1.46,9.79,35,0.164,8.08
5.5148,0.09425,0.09250,0.67370,0.00000,0.00000,0.00000,46,0,65,-2,45,1,73,29,ok,2,0,0.002,5,1.69,1.46,9.79,35,0.177,8.08
5.5179,0.09425,0.09250,0.67370,0.00000,0.00000,0.00000,47,1,64,-4,46,1,75,28,ok,2,0,0.002,5,1.69,1.46,9.79,35,0.190,8.08
5.5309,-0.08901,0.00698,0.72780,0.00000,0.00000,0.00000,48,1,63,-6,47,1,76,26,ok,2,0,0.002,5,0.26,-1.15,8.72,36,0.000,8.08
5.5508,-0.08901,0.00698,0.72780,0.00000,0.00000,0.00000,50,1,61,-7,48,0,78,21,ok,2,0,0.002,5,0.26,-1.15,8.72,36,0.013,8.08
5.5558,-0.08901,0.00698,0.72780,0.00000,0.00000,0.00000,51,1,59,-8,49,0,80,18,ok,2,0,0.002,5,0.26,-1.15,8.72,36,0.025,8.08
5.5681,-0.08901,0.00698,0.72780,0.00000,0.00000,0.00000,52,1,56,-8,50,0,81,15,ok,2,0,0.002,5,0.26,-1.15,8.72,36,0.037,8.08
5.5908,-0.08901,0.00698,0.72780,0.00000,0.00000,0.00000,52,3,54,-9,51,0,82,14,ok,2,0,0.002,5,0.26,-1.15,8.72,36,0.050,8.08
5.5939,-0.08901,0.00698,0.72780,0.00000,0.00000,0.00000,53,4,51,-9,52,0,81,11,ok,2,0,0.002,6,0.26,-1.15,8.72,36,0.063,8.08
5.6067,-0.08901,0.00698,0.72780,0.00000,0.00000,0.00000,53,4,49,-9,54,0,81,7,ok,2,0,0.002,6,0.26,-1.15,8.72,36,0.076,8.08
5.6268,-0.08901,0.00698,0.72780,0.00000,0.00000,0.00000,54,5,46,-8,55,1,81,4,ok,2,0,0.002,6,0.26,-1.15,8.72,36,0.089,8.08
5.6317,-0.08901,0.00698,0.72780,0.00000,0.00000,0.00000,54,5,43,-9,55,1,80,2,ok,2,0,0.002,6,0.26,-1.15,8.72,36,0.101,8.08
5.6441,-0.08901,0.00698,0.72780,0.00000,0.00000,0.00000,56,6,41,-9,57,2,79,-1,ok,2,0,0.002,6,0.26,-1.15,8.72,36,0.114,8.08
5.6669,-0.08901,0.00698,0.72780,0.00000,0.00000,0.00000,56,6,39,-8,58,1,78,-3,ok,2,0,0.002,6,0.26,-1.15,8.72,36,0.126,8.08
5.6701,-0.08901,0.00698,0.72780,0.00000,0.00000,0.00000,58,7,36,-7,58,1,77,-5,ok,2,0,0.002,6,0.26,-1.15,8.72,36,0.139,8.08
5.6827,-0.08901,0.00698,0.72780,0.00000,0.00000,0.00000,58,8,33,-6,59,2,75,-7,ok,2,0,0.002,6,0.26,-1.15,8.72,36,0.152,8.08
5.7028,-0.08901,0.00698,0.72780,0.00000,0.00000,0.00000,59,8,29,-5,60,2,72,-7,ok,2,0,0.002,6,0.26,-1.15,8.72,36,0.165,8.08
5.7076,-0.08901,0.00698,0.72780,0.00000,0.00000,0.00000,60,9,26,-3,61,2,71,-9,ok,2,0,0.002,6,0.26,-1.15,8.72,36,0.177,8.08
5.7201,-0.08901,0.00698,0.72780,0.00000,0.00000,0.00000,61,10,22,-1,62,1,69,-11,ok,2,0,0.002,6,0.26,-1.15,8.72,36,0.190,8.08
5.7428,-0.06632,-0.01396,0.76794,0.00000,0.00000,0.00000,62,10,20,0,64,-1,67,-12,ok,2,0,0.002,6,0.09,-0.49,10.22,37,0.000,8.08
5.7459,-0.06632,-0.01396,0.76794,0.00000,0.00000,0.00000,63,11,18,1,64,-1,65,-13,ok,2,0,0.002,6,0.09,-0.49,10.22,37,0.013,8.08
5.7588,-0.06632,-0.01396,0.76794,0.00000,0.00000,0.00000,63,12,16,4,65,0,63,-13,ok,2,0,0.002,6,0.09,-0.49,10.22,37,0.026,8.08
5.7788,-0.06632,-0.01396,0.76794,0.00000,0.00000,0.00000,64,12,14,7,65,0,61,-14,ok,2,0,0.002,6,0.09,-0.49,10.22,37,0.039,8.08
5.7836,-0.06632,-0.01396,0.76794,0.00000,0.00000,0.00000,64,13,13,10,66,1,59,-15,ok,2,0,0.002,6,0.09,-0.49,10.22,37,0.051,8.08
5.7961,-0.06632,-0.01396,0.76794,0.00000,0.00000,0.00000,64,14,11,12,67,1,56,-13,ok,2,0,0.002,6,0.09,-0.49,10.22,37,0.064,8.08
5.8188,-0.06632,-0.01396,0.76794,0.00000,0.00000,0.00000,65,15,13,13,67,1,53,-12,ok,2,0,0.002,6,0.09,-0.49,10.22,37,0.076,8.08
5.8219,-0.06632,-0.01396,0.76794,0.00000,0.00000,0.00000,65,16,12,13,68,1,51,-12,ok,2,0,0.002,6,0.09,-0.49,10.22,37,0.089,8.08
5.8346,-0.06632,-0.01396,0.76794,0.00000,0.00000,0.00000,66,17,14,12,68,1,47,-11,ok,2,0,0.002,6,0.09,-0.49,10.22,37,0.102,8.08
5.8548,-0.06632,-0.01396,0.76794,0.00000,0.00000,0.00000,66,18,15,11,69,2,45,-10,ok,2,0,0.002,6,0.09,-0.49,10.22,37,0.114,8.08
5.8596,-0.06632,-0.01396,0.76794,0.00000,0.00000,0.00000,66,18,16,10,69,3,42,-9,ok,2,0,0.002,6,0.09,-0.49,10.22,37,0.127,8.08
5.8721,-0.06632,-0.01396,0.76794,0.00000,0.00000,0.00000,67,19,17,9,69,3,39,-9,ok,2,0,0.002,6,0.09,-0.49,10.22,37,0.139,8.08
5.8948,-0.06632,-0.01396,0.76794,0.00000,0.00000,0.00000,67,20,18,9,70,5,36,-7,ok,2,0,0.002,6,0.09,-0.49,10.22,37,0.152,8.08
5.8979,-0.06632,-0.01396,0.76794,0.00000,0.00000,0.00000,68,21,20,8,71,5,34,-5,ok,2,0,0.002,6,0.09,-0.49,10.22,37,0.165,8.08
5.9106,-0.06632,-0.01396,0.76794,0.00000,0.00000,0.00000,68,22,21,7,71,6,32,-4,ok,2,0,0.002,6,0.09,-0.49,10.22,37,0.178,8.08
5.9309,-0.06632,-0.01396,0.76794,0.00000,0.00000,0.00000,67,23,22,7,70,7,30,-1,ok,2,0,0.002,6,0.09,-0.49,10.22,37,0.190,8.08
5.9359,-0.01920,0.06981,0.78365,0.00000,0.00000,0.00000,67,24,23,6,71,8,29,2,ok,2,0,0.002,6,0.52,0.03,9.95,38,0.000,8.08
5.9481,-0.01920,0.06981,0.78365,0.00000,0.00000,0.00000,66,25,25,5,71,9,27,5,ok,2,0,0.002,6,0.52,0.03,9.95,38,0.013,8.08
5.9708,-0.01920,0.06981,0.78365,0.00000,0.00000,0.00000,66,28,26,5,71,11,27,7,ok,2,0,0.002,6,0.52,0.03,9.95,38,0.025,8.08
5.9739,-0.01920,0.06981,0.78365,0.00000,0.00000,0.00000,65,29,27,4,71,12,29,6,ok,2,0,0.002,6,0.52,0.03,9.95,38,0.038,8.08
5.9866,-0.01920,0.06981,0.78365,0.00000,0.00000,0.00000,66,28,28,4,71,13,29,6,ok,2,0,0.002,6,0.52,0.03,9.95,38,0.051,8.08
6.0068,-0.01920,0.06981,0.78365,0.00000,0.00000,0.00000,69,25,29,3,72,15,31,4,ok,2,0,0.002,6,0.52,0.03,9.95,38,0.064,8.08
6.0118,-0.01920,0.06981,0.78365,0.00000,0.00000,0.00000,71,21,31,2,71,16,32,3,ok,2,0,0.002,6,0.52,0.03,9.95,38,0.076,8.08
6.0241,-0.01920,0.06981,0.78365,0.00000,0.00000,0.00000,72,17,32,2,71,18,33,3,ok,2,0,0.002,6,0.52,0.03,9.95,38,0.088,8.08
6.0468,-0.01920,0.06981,0.78365,0.00000,0.00000,0.00000,72,15,33,2,72,19,34,2,ok,2,0,0.002,6,0.52,0.03,9.95,38,0.101,8.08
6.0499,-0.01920,0.06981,0.78365,0.00000,0.00000,0.00000,72,14,35,1,71,21,36,1,ok,2,0,0.002,6,0.52,0.03,9.95,38,0.114,8.08
6.0627,-0.01920,0.06981,0.78365,0.00000,0.00000,0.00000,72,11,36,2,71,23,38,1,ok,2,0,0.002,6,0.52,0.03,9.95,38,0.127,8.08
6.0828,-0.01920,0.06981,0.78365,0.00000,0.00000,0.00000,71,7,37,2,71,24,39,2,ok,2,0,0.002,6,0.52,0.03,9.95,38,0.139,8.08
6.0879,-0.01920,0.06981,0.78365,0.00000,0.00000,0.00000,70,5,39,2,71,26,41,1,ok,2,0,0.002,6,0.52,0.03,9.95,38,0.152,8.08
6.1001,-0.01920,0.06981,0.78365,0.00000,0.00000,0.00000,70,1,40,2,70,28,42,2,ok,2,0,0.002,6,0.52,0.03,9.95,38,0.165,8.08
6.1228,-0.01920,0.06981,0.78365,0.00000,0.00000,0.00000,68,-1,41,1,70,29,43,2,ok,2,0,0.002,6,0.52,0.03,9.95,38,0.177,8.08
6.1259,-0.01920,0.06981,0.78365,0.00000,0.00000,0.00000,67,-3,43,2,71,29,44,1,ok,2,0,0.002,6,0.52,0.03,9.95,38,0.190,8.08
6.1389,0.08029,-0.01047,0.85172,0.00000,0.00000,0.00000,65,-4,43,2,72,29,45,1,ok,2,0,0.002,6,-0.30,1.20,10.92,39,0.000,8.08
6.1588,0.08029,-0.01047,0.85172,0.00000,0.00000,0.00000,64,-6,45,2,74,27,47,0,ok,2,0,0.002,6,-0.30,1.20,10.92,39,0.013,8.08
6.1636,0.08029,-0.01047,0.85172,0.00000,0.00000,0.00000,63,-8,46,2,76,22,48,0,ok,2,0,0.002,6,-0.30,1.20,10.92,39,0.025,8.08
6.1761,0.08029,-0.01047,0.85172,0.00000,0.00000,0.00000,61,-9,48,3,77,17,49,0,ok,2,0,0.002,6,-0.30,1.20,10.92,39,0.037,8.08
6.1988,0.08029,-0.01047,0.85172,0.00000,0.00000,0.00000,59,-10,49,3,78,15,49,0,ok,2,0,0.002,6,-0.30,1.20,10.92,39,0.050,8.08
6.2019,0.08029,-0.01047,0.85172,0.00000,0.00000,0.00000,56,-10,50,3,79,14,50,0,ok,2,0,0.002,6,-0.30,1.20,10.92,39,0.063,8.08
6.2147,0.08029,-0.01047,0.85172,0.00000,0.00000,0.00000,54,-11,50,5,79,12,51,0,ok,2,0,0.002,6,-0.30,1.20,10.92,39,0.076,8.08
6.2348,0.08029,-0.01047,0.85172,0.00000,0.00000,0.00000,51,-11,51,6,78,8,52,0,ok,2,0,0.002,6,-0.30,1.20,10.92,39,0.089,8.08
6.2397,0.08029,-0.01047,0.85172,0.00000,0.00000,0.00000,49,-11,52,5,78,5,53,0,ok,2,0,0.002,6,-0.30,1.20,10.92,39,0.101,8.08
6.2530,0.08029,-0.01047,0.85172,0.00000,0.00000,0.00000,47,-11,53,6,77,3,54,0,ok,2,0,0.002,6,-0.30,1.20,10.92,39,0.114,8.08
6.2748,0.08029,-0.01047,0.85172,0.00000,0.00000,0.00000,44,-11,53,7,76,-1,55,1,ok,2,0,0.002,6,-0.30,1.20,10.92,39,0.126,8.08
6.2779,0.08029,-0.01047,0.85172,0.00000,0.00000,0.00000,42,-11,55,7,76,-3,55,0,ok,2,0,0.002,6,-0.30,1.20,10.92,39,0.139,8.08
6.2908,0.08029,-0.01047,0.85172,0.00000,0.00000,0.00000,40,-10,56,7,75,-4,57,0,ok,2,0,0.002,6,-0.30,1.20,10.92,39,0.152,8.08
6.3108,0.08029,-0.01047,0.85172,0.00000,0.00000,0.00000,36,-9,57,8,73,-7,57,-1,ok,2,0,0.002,6,-0.30,1.20,10.92,39,0.165,8.08
6.3157,0.08029,-0.01047,0.85172,0.00000,0.00000,0.00000,34,-8,57,8,70,-7,58,0,ok,2,0,0.002,6,-0.30,1.20,10.92,39,0.177,8.08
6.3280,0.08029,-0.01047,0.85172,0.00000,0.00000,0.00000,30,-6,58,9,69,-9,58,0,ok,2,0,0.002,6,-0.30,1.20,10.92,39,0.189,8.08
6.3508,0.08727,-0.04014,0.85172,0.00000,0.00000,0.00000,27,-4,59,9,68,-11,59,0,ok,2,0,0.002,6,-0.60,0.79,9.12,40,0.000,8.08
6.3539,0.08727,-0.04014,0.85172,0.00000,0.00000,0.00000,23,-2,60,11,66,-12,60,0,ok,2,0,0.002,6,-0.60,0.79,9.12,40,0.013,8.08
6.3666,0.08727,-0.04014,0.85172,0.00000,0.00000,0.00000,22,-1,61,11,64,-13,61,0,ok,2,0,0.002,6,-0.60,0.79,9.12,40,0.026,8.08
6.3868,0.08727,-0.04014,0.85172,0.00000,0.00000,0.00000,20,1,62,11,62,-13,63,-3,ok,2,0,0.002,6,-0.60,0.79,9.12,40,0.039,8.08
6.3916,0.08727,-0.04014,0.85172,0.00000,0.00000,0.00000,18,3,62,12,59,-14,64,-1,ok,2,0,0.002,6,-0.60,0.79,9.12,40,0.051,8.08
6.4041,0.08727,-0.04014,0.85172,0.00000,0.00000,0.00000,15,7,63,13,57,-14,65,-1,ok,2,0,0.002,6,-0.60,0.79,9.12,40,0.064,8.08
6.4268,0.08727,-0.04014,0.85172,0.00000,0.00000,0.00000,14,10,63,14,54,-14,65,-1,ok,2,0,0.002,6,-0.60,0.79,9.12,40,0.076,8.08
6.4299,0.08727,-0.04014,0.85172,0.00000,0.00000,0.00000,12,13,63,15,51,-13,66,-1,ok,2,0,0.002,6,-0.60,0.79,9.12,40,0.089,8.08
6.4426,0.08727,-0.04014,0.85172,0.00000,0.00000,0.00000,14,13,64,16,49,-13,67,0,ok,2,0,0.002,6,-0.60,0.79,9.12,40,0.102,8.08
6.4628,0.08727,-0.04014,0.85172,0.00000,0.00000,0.00000,14,13,64,17,46,-12,67,0,ok,2,0,0.002,6,-0.60,0.79,9.12,40,0.115,8.08
6.4678,0.08727,-0.04014,0.85172,0.00000,0.00000,0.00000,15,12,64,17,44,-11,68,0,ok,2,0,0.002,6,-0.60,0.79,9.12,40,0.127,8.08
6.4801,0.08727,-0.04014,0.85172,0.00000,0.00000,0.00000,17,12,64,18,41,-10,69,0,ok,2,0,0.002,6,-0.60,0.79,9.12,40,0.140,8.08
6.5028,0.08727,-0.04014,0.85172,0.00000,0.00000,0.00000,17,11,65,19,38,-9,70,2,ok,2,0,0.002,6,-0.60,0.79,9.12,40,0.152,8.08
6.5059,0.08727,-0.04014,0.85172,0.00000,0.00000,0.00000,19,10,65,20,35,-8,70,2,ok,2,0,0.002,6,-0.60,0.79,9.12,40,0.165,8.08
6.5186,0.08727,-0.04014,0.85172,0.00000,0.00000,0.00000,19,10,65,21,33,-6,71,3,ok,2,0,0.002,6,-0.60,0.79,9.12,40,0.178,8.08
6.5388,0.08727,-0.04014,0.85172,0.00000,0.00000,0.00000,22,9,66,21,31,-5,71,4,ok,0,0,0.002,6,-0.60,0.79,9.12,40,0.191,8.08
6.5439,-0.00698,-0.00698,0.86045,0.00000,0.00000,0.00000,23,8,66,23,28,-2,72,5,ok,0,0,0.002,6,-0.39,-0.31,9.02,41,0.000,8.08
6.5561,-0.00698,-0.00698,0.86045,0.00000,0.00000,0.00000,24,7,65,23,27,0,72,6,ok,0,0,0.002,6,-0.39,-0.31,9.02,41,0.013,8.08
6.5788,-0.00698,-0.00698,0.86045,0.00000,0.00000,0.00000,26,6,65,24,26,4,72,8,ok,0,0,0.002,6,-0.39,-0.31,9.02,41,0.025,8.08
6.5820,-0.00698,-0.00698,0.86045,0.00000,0.00000,0.00000,27,6,65,25,26,6,72,9,ok,0,0,0.002,6,-0.39,-0.31,9.02,41,0.038,8.08
6.5946,-0.00698,-0.00698,0.86045,0.00000,0.00000,0.00000,28,5,64,28,28,6,73,10,ok,0,0,0.002,6,-0.39,-0.31,9.02,41,0.051,8.08
6.6148,-0.00698,-0.00698,0.86045,0.00000,0.00000,0.00000,29,4,63,29,28,5,73,11,ok,0,0,0.002,7,-0.39,-0.31,9.02,41,0.064,8.08
6.6198,-0.00698,-0.00698,0.86045,0.00000,0.00000,0.00000,30,4,65,28,29,3,73,12,ok,0,0,0.002,7,-0.39,-0.31,9.02,41,0.076,8.08
6.6321,-0.00698,-0.00698,0.86045,0.00000,0.00000,0.00000,32,3,67,25,30,3,73,15,ok,0,0,0.002,7,-0.39,-0.31,9.02,41,0.089,8.08
6.6548,-0.00698,-0.00698,0.86045,0.00000,0.00000,0.00000,33,3,70,21,31,3,74,16,ok,2,0,0.002,7,-0.39,-0.31,9.02,41,0.101,8.08
6.6581,-0.00698,-0.00698,0.86045,0.00000,0.00000,0.00000,34,2,71,17,33,2,73,17,ok,2,0,0.002,7,-0.39,-0.31,9.02,41,0.114,8.08
6.6707,-0.00698,-0.00698,0.86045,0.00000,0.00000,0.00000,35,2,71,15,34,1,73,19,ok,2,0,0.002,7,-0.39,-0.31,9.02,41,0.127,8.08
6.6909,-0.00698,-0.00698,0.86045,0.00000,0.00000,0.00000,37,1,71,15,36,1,73,20,ok,0,0,0.002,7,-0.39,-0.31,9.02,41,0.140,8.08
6.6956,-0.00698,-0.00698,0.86045,0.00000,0.00000,0.00000,38,1,71,11,37,1,72,22,ok,0,0,0.002,7,-0.39,-0.31,9.02,41,0.152,8.08
6.7081,-0.00698,-0.00698,0.86045,0.00000,0.00000,0.00000,40,1,71,8,38,2,72,23,ok,0,0,0.002,7,-0.39,-0.31,9.02,41,0.165,8.08
6.7308,-0.00698,-0.00698,0.86045,0.00000,0.00000,0.00000,41,1,70,5,40,1,73,25,ok,0,0,0.002,7,-0.39,-0.31,9.02,41,0.177,8.08
6.7340,-0.00698,-0.00698,0.86045,0.00000,0.00000,0.00000,43,0,70,3,41,2,73,26,ok,0,0,0.002,7,-0.39,-0.31,9.02,41,0.190,8.08
6.7469,0.00698,-0.00698,0.86568,0.00000,0.00000,0.00000,44,0,68,1,42,1,72,28,ok,0,0,0.002,7,-0.52,-1.44,9.32,42,0.000,8.08
6.7668,0.00698,-0.00698,0.86568,0.00000,0.00000,0.00000,46,0,67,-1,43,1,72,29,ok,0,0,0.002,7,-0.52,-1.44,9.32,42,0.013,8.08
6.7718,0.00698,-0.00698,0.86568,0.00000,0.00000,0.00000,46,0,65,-2,44,0,73,29,ok,0,0,0.002,7,-0.52,-1.44,9.32,42,0.025,8.08
6.7841,0.00698,-0.00698,0.86568,0.00000,0.00000,0.00000,47,1,64,-4,46,0,74,28,ok,0,0,0.002,7,-0.52,-1.44,9.32,42,0.037,8.08
6.8068,0.00698,-0.00698,0.86568,0.00000,0.00000,0.00000,49,1,63,-6,47,0,76,26,ok,0,0,0.002,7,-0.52,-1.44,9.32,42,0.050,8.08
6.8099,0.00698,-0.00698,0.86568,0.00000,0.00000,0.00000,50,2,61,-7,48,0,78,21,ok,0,0,0.002,7,-0.52,-1.44,9.32,42,0.063,8.08
6.8226,0.00698,-0.00698,0.86568,0.00000,0.00000,0.00000,51,1,59,-8,49,0,79,17,ok,0,0,0.002,7,-0.52,-1.44,9.32,42,0.076,8.08
6.8428,0.00698,-0.00698,0.86568,0.00000,0.00000,0.00000,52,2,56,-8,50,0,81,14,ok,2,0,0.002,7,-0.52,-1.44,9.32,42,0.088,8.08
6.8478,0.00698,-0.00698,0.86568,0.00000,0.00000,0.00000,52,4,54,-9,51,0,81,13,ok,2,0,0.002,7,-0.52,-1.44,9.32,42,0.101,8.08
6.8601,0.00698,-0.00698,0.86568,0.00000,0.00000,0.00000,53,5,51,-9,52,0,81,10,ok,2,0,0.002,7,-0.52,-1.44,9.32,42,0.113,8.08
6.8828,0.00698,-0.00698,0.86568,0.00000,0.00000,0.00000,53,4,48,-9,54,0,81,7,ok,2,0,0.002,7,-0.52,-1.44,9.32,42,0.126,8.08
6.8859,0.00698,-0.00698,0.86568,0.00000,0.00000,0.00000,54,5,46,-9,54,1,80,4,ok,2,0,0.002,7,-0.52,-1.44,9.32,42,0.139,8.08
6.8985,0.00698,-0.00698,0.86568,0.00000,0.00000,0.00000,54,6,43,-9,55,1,80,2,ok,2,0,0.002,7,-0.52,-1.44,9.32,42,0.152,8.08
6.9188,0.00698,-0.00698,0.86568,0.00000,0.00000,0.00000,56,6,41,-9,56,1,79,-2,ok,2,0,0.002,7,-0.52,-1.44,9.32,42,0.164,8.08
6.9236,0.00698,-0.00698,0.86568,0.00000,0.00000,0.00000,57,6,39,-8,57,1,78,-3,ok,2,0,0.002,7,-0.52,-1.44,9.32,42,0.177,8.08
6.9361,0.00698,-0.00698,0.86568,0.00000,0.00000,0.00000,58,7,35,-7,58,1,77,-5,ok,2,0,0.002,7,-0.52,-1.44,9.32,42,0.189,8.08
6.9589,-0.06283,-0.03491,0.93899,0.00000,0.00000,0.00000,58,8,32,-6,59,2,75,-7,ok,2,0,0.002,7,-0.16,-0.63,10.32,43,0.000,8.08
6.9619,-0.06283,-0.03491,0.93899,0.00000,0.00000,0.00000,60,8,29,-5,60,1,72,-7,ok,2,0,0.002,7,-0.16,-0.63,10.32,43,0.013,8.08
6.9746,-0.06283,-0.03491,0.93899,0.00000,0.00000,0.00000,60,9,26,-3,61,1,71,-9,ok,2,0,0.002,7,-0.16,-0.63,10.32,43,0.026,8.08
6.9948,-0.06283,-0.03491,0.93899,0.00000,0.00000,0.00000,62,10,21,-1,62,1,70,-10,ok,2,0,0.002,7,-0.16,-0.63,10.32,43,0.039,8.08
6.9996,-0.06283,-0.03491,0.93899,0.00000,0.00000,0.00000,62,10,20,0,64,-1,68,-12,ok,2,0,0.002,7,-0.16,-0.63,10.32,43,0.051,8.08
7.0122,-0.06283,-0.03491,0.93899,0.00000,0.00000,0.00000,63,11,18,1,64,-1,65,-13,ok,2,0,0.002,7,-0.16,-0.63,10.32,43,0.064,8.08
7.0348,-0.06283,-0.03491,0.93899,0.00000,0.00000,0.00000,63,12,16,4,65,0,64,-13,ok,2,0,0.002,7,-0.16,-0.63,10.32,43,0.076,8.08
7.0379,-0.06283,-0.03491,0.93899,0.00000,0.00000,0.00000,64,12,14,7,65,0,61,-14,ok,2,0,0.002,7,-0.16,-0.63,10.32,43,0.089,8.08
7.0507,-0.06283,-0.03491,0.93899,0.00000,0.00000,0.00000,64,13,13,10,66,0,59,-14,ok,2,0,0.002,7,-0.16,-0.63,10.32,43,0.102,8.08
7.0708,-0.06283,-0.03491,0.93899,0.00000,0.00000,0.00000,65,14,11,13,67,0,56,-13,ok,2,0,0.002,7,-0.16,-0.63,10.32,43,0.115,8.08
7.0756,-0.06283,-0.03491,0.93899,0.00000,0.00000,0.00000,65,15,13,13,67,1,53,-12,ok,2,0,0.002,7,-0.16,-0.63,10.32,43,0.127,8.08
7.0881,-0.06283,-0.03491,0.93899,0.00000,0.00000,0.00000,65,16,12,13,68,1,51,-12,ok,2,0,0.002,7,-0.16,-0.63,10.32,43,0.140,8.08
7.1108,-0.06283,-0.03491,0.93899,0.00000,0.00000,0.00000,66,17,14,12,68,1,47,-11,ok,2,0,0.002,7,-0.16,-0.63,10.32,43,0.152,8.08
7.1139,-0.06283,-0.03491,0.93899,0.00000,0.00000,0.00000,66,18,15,11,69,2,45,-10,ok,2,0,0.002,7,-0.16,-0.63,10.32,43,0.165,8.08
7.1266,-0.06283,-0.03491,0.93899,0.00000,0.00000,0.00000,67,18,15,10,69,3,42,-9,ok,2,0,0.002,7,-0.16,-0.63,10.32,43,0.178,8.08
7.1468,-0.06283,-0.03491,0.93899,0.00000,0.00000,0.00000,67,19,17,9,69,3,39,-8,ok,2,0,0.002,7,-0.16,-0.63,10.32,43,0.191,8.08
7.1519,0.05760,0.06109,0.95819,0.00000,0.00000,0.00000,67,20,18,9,70,4,36,-7,ok,2,0,0.002,7,-0.17,1.06,9.90,44,0.000,8.08
7.1641,0.05760,0.06109,0.95819,0.00000,0.00000,0.00000,68,21,20,8,71,5,35,-5,ok,2,0,0.002,7,-0.17,1.06,9.90,44,0.013,8.08
7.1868,0.05760,0.06109,0.95819,0.00000,0.00000,0.00000,68,22,21,7,70,7,32,-4,ok,2,0,0.002,7,-0.17,1.06,9.90,44,0.025,8.08
7.1901,0.05760,0.06109,0.95819,0.00000,0.00000,0.00000,67,23,22,6,70,8,30,-1,ok,2,0,0.002,7,-0.17,1.06,9.90,44,0.038,8.08
7.2026,0.05760,0.06109,0.95819,0.00000,0.00000,0.00000,67,24,23,6,71,9,29,1,ok,2,0,0.002,7,-0.17,1.06,9.90,44,0.051,8.08
7.2228,0.05760,0.06109,0.95819,0.00000,0.00000,0.00000,67,25,24,5,71,10,28,5,ok,2,0,0.002,7,-0.17,1.06,9.90,44,0.064,8.08
7.2276,0.05760,0.06109,0.95819,0.00000,0.00000,0.00000,66,28,25,5,71,11,27,7,ok,2,0,0.002,7,-0.17,1.06,9.90,44,0.076,8.08
7.2402,0.05760,0.06109,0.95819,0.00000,0.00000,0.00000,65,29,27,4,71,12,29,6,ok,2,0,0.002,7,-0.17,1.06,9.90,44,0.088,8.08
7.2628,0.05760,0.06109,0.95819,0.00000,0.00000,0.00000,67,28,28,4,71,14,29,6,ok,2,0,0.002,7,-0.17,1.06,9.90,44,0.101,8.08
7.2659,0.05760,0.06109,0.95819,0.00000,0.00000,0.00000,69,25,29,3,72,15,31,4,ok,2,0,0.002,7,-0.17,1.06,9.90,44,0.114,8.08
7.2786,0.05760,0.06109,0.95819,0.00000,0.00000,0.00000,72,21,30,2,71,16,32,3,ok,2,0,0.002,7,-0.17,1.06,9.90,44,0.127,8.08
7.2988,0.05760,0.06109,0.95819,0.00000,0.00000,0.00000,72,17,32,2,71,18,34,3,ok,2,0,0.002,7,-0.17,1.06,9.90,44,0.139,8.08
7.3037,0.05760,0.06109,0.95819,0.00000,0.00000,0.00000,73,15,33,2,72,19,35,2,ok,2,0,0.002,7,-0.17,1.06,9.90,44,0.152,8.08
7.3161,0.05760,0.06109,0.95819,0.00000,0.00000,0.00000,72,14,35,2,71,22,37,1,ok,2,0,0.002,7,-0.17,1.06,9.90,44,0.165,8.08
7.3390,0.05760,0.06109,0.95819,0.00000,0.00000,0.00000,72,11,36,2,71,23,39,1,ok,2,0,0.002,7,-0.17,1.06,9.90,44,0.177,8.08
7.3428,0.05760,0.06109,0.95819,0.00000,0.00000,0.00000,72,7,37,2,71,24,39,2,ok,2,0,0.002,7,-0.17,1.06,9.90,44,0.191,8.08
7.3551,0.00349,0.03491,1.06465,0.00000,0.00000,0.00000,71,5,39,2,71,26,41,2,ok,2,0,0.002,7,0.06,0.25,8.48,45,0.000,8.08
7.3748,0.00349,0.03491,1.06465,0.00000,0.00000,0.00000,70,1,40,2,70,28,42,2,ok,2,0,0.002,7,0.06,0.25,8.48,45,0.013,8.08
7.3798,0.00349,0.03491,1.06465,0.00000,0.00000,0.00000,69,-1,41,2,70,29,43,2,ok,2,0,0.002,7,0.06,0.25,8.48,45,0.025,8.08
7.3922,0.00349,0.03491,1.06465,0.00000,0.00000,0.00000,68,-3,43,2,70,29,44,1,ok,2,0,0.002,7,0.06,0.25,8.48,45,0.037,8.08
7.4148,0.00349,0.03491,1.06465,0.00000,0.00000,0.00000,66,-4,43,2,72,29,46,1,ok,2,0,0.002,7,0.06,0.25,8.48,45,0.050,8.08
7.4179,0.00349,0.03491,1.06465,0.00000,0.00000,0.00000,65,-6,45,2,73,26,47,0,ok,2,0,0.002,7,0.06,0.25,8.48,45,0.063,8.08
7.4306,0.00349,0.03491,1.06465,0.00000,0.00000,0.00000,64,-8,46,2,75,22,48,0,ok,2,0,0.002,7,0.06,0.25,8.48,45,0.076,8.08
7.4508,0.00349,0.03491,1.06465,0.00000,0.00000,0.00000,62,-9,48,3,77,17,49,1,ok,2,0,0.002,7,0.06,0.25,8.48,45,0.088,8.08
7.4556,0.00349,0.03491,1.06465,0.00000,0.00000,0.00000,59,-10,49,3,78,15,50,1,ok,2,0,0.002,7,0.06,0.25,8.48,45,0.101,8.08
7.4681,0.00349,0.03491,1.06465,0.00000,0.00000,0.00000,57,-11,50,3,78,14,50,1,ok,2,0,0.002,7,0.06,0.25,8.48,45,0.113,8.08
7.4909,0.00349,0.03491,1.06465,0.00000,0.00000,0.00000,54,-12,50,5,78,12,51,1,ok,2,0,0.002,7,0.06,0.25,8.48,45,0.126,8.08
7.4940,0.00349,0.03491,1.06465,0.00000,0.00000,0.00000,52,-11,51,6,78,8,52,1,ok,2,0,0.002,7,0.06,0.25,8.48,45,0.139,8.08
7.5067,0.00349,0.03491,1.06465,0.00000,0.00000,0.00000,49,-11,52,5,78,5,53,1,ok,2,0,0.002,7,0.06,0.25,8.48,45,0.152,8.08
7.5268,0.00349,0.03491,1.06465,0.00000,0.00000,0.00000,47,-11,53,6,77,3,54,0,ok,2,0,0.002,7,0.06,0.25,8.48,45,0.164,8.08
7.5319,0.00349,0.03491,1.06465,0.00000,0.00000,0.00000,44,-11,53,7,76,0,55,1,ok,2,0,0.002,7,0.06,0.25,8.48,45,0.177,8.08
7.5443,0.00349,0.03491,1.06465,0.00000,0.00000,0.00000,42,-11,55,7,76,-3,55,0,ok,2,0,0.002,7,0.06,0.25,8.48,45,0.189,8.08
7.5669,0.06807,-0.05585,1.05243,0.00000,0.00000,0.00000,40,-10,55,7,75,-4,57,1,ok,2,0,0.002,7,-0.69,0.68,9.62,46,0.000,8.08
7.5701,0.06807,-0.05585,1.05243,0.00000,0.00000,0.00000,37,-9,57,8,73,-7,57,-1,ok,2,0,0.002,7,-0.69,0.68,9.62,46,0.013,8.08
7.5826,0.06807,-0.05585,1.05243,0.00000,0.00000,0.00000,34,-8,57,9,70,-7,58,0,ok,2,0,0.002,7,-0.69,0.68,9.62,46,0.026,8.08
7.6028,0.06807,-0.05585,1.05243,0.00000,0.00000,0.00000,30,-6,58,9,69,-9,58,0,ok,2,0,0.002,7,-0.69,0.68,9.62,46,0.038,8.08
7.6078,0.06807,-0.05585,1.05243,0.00000,0.00000,0.00000,28,-4,59,9,68,-11,60,0,ok,2,0,0.002,7,-0.69,0.68,9.62,46,0.051,8.08
7.6201,0.06807,-0.05585,1.05243,0.00000,0.00000,0.00000,23,-2,60,11,66,-12,60,0,ok,2,0,0.002,8,-0.69,0.68,9.62,46,0.063,8.08
7.6428,0.06807,-0.05585,1.05243,0.00000,0.00000,0.00000,22,-1,61,11,64,-13,61,0,ok,2,0,0.002,8,-0.69,0.68,9.62,46,0.076,8.08
7.6459,0.06807,-0.05585,1.05243,0.00000,0.00000,0.00000,20,1,62,12,62,-13,63,-2,ok,2,0,0.002,8,-0.69,0.68,9.62,46,0.089,8.08
7.6586,0.06807,-0.05585,1.05243,0.00000,0.00000,0.00000,18,3,62,12,59,-14,64,-1,ok,2,0,0.002,8,-0.69,0.68,9.62,46,0.102,8.08
7.6788,0.06807,-0.05585,1.05243,0.00000,0.00000,0.00000,16,7,63,13,57,-14,65,-1,ok,2,0,0.002,8,-0.69,0.68,9.62,46,0.114,8.08
7.6836,0.06807,-0.05585,1.05243,0.00000,0.00000,0.00000,14,10,62,14,54,-14,65,-1,ok,2,0,0.002,8,-0.69,0.68,9.62,46,0.127,8.08
7.6961,0.06807,-0.05585,1.05243,0.00000,0.00000,0.00000,12,13,63,15,51,-13,66,-1,ok,2,0,0.002,8,-0.69,0.68,9.62,46,0.139,8.08
7.7189,0.06807,-0.05585,1.05243,0.00000,0.00000,0.00000,14,13,64,16,49,-13,67,0,ok,2,0,0.002,8,-0.69,0.68,9.62,46,0.152,8.08
7.7221,0.06807,-0.05585,1.05243,0.00000,0.00000,0.00000,14,13,64,17,46,-12,67,0,ok,2,0,0.002,8,-0.69,0.68,9.62,46,0.165,8.08
7.7347,0.06807,-0.05585,1.05243,0.00000,0.00000,0.00000,16,12,64,17,44,-11,68,1,ok,2,0,0.002,8,-0.69,0.68,9.62,46,0.178,8.08
7.7548,0.06807,-0.05585,1.05243,0.00000,0.00000,0.00000,17,12,64,18,40,-10,69,1,ok,2,0,0.002,8,-0.69,0.68,9.62,46,0.191,8.08
7.7599,0.06981,-0.05236,1.08909,0.00000,0.00000,0.00000,17,11,65,19,38,-9,70,2,ok,2,0,0.002,8,-0.48,0.70,11.05,47,0.000,8.08
7.7721,0.06981,-0.05236,1.08909,0.00000,0.00000,0.00000,19,10,65,20,35,-8,70,2,ok,2,0,0.002,8,-0.48,0.70,11.05,47,0.013,8.08
7.7948,0.06981,-0.05236,1.08909,0.00000,0.00000,0.00000,20,10,65,21,33,-7,71,3,ok,2,0,0.002,8,-0.48,0.70,11.05,47,0.025,8.08
7.7979,0.06981,-0.05236,1.08909,0.00000,0.00000,0.00000,22,9,66,22,31,-5,71,5,ok,0,0,0.002,8,-0.48,0.70,11.05,47,0.038,8.08
7.8106,0.06981,-0.05236,1.08909,0.00000,0.00000,0.00000,23,8,66,23,28,-2,72,5,ok,0,0,0.002,8,-0.48,0.70,11.05,47,0.051,8.08
7.8308,0.06981,-0.05236,1.08909,0.00000,0.00000,0.00000,25,7,65,23,27,0,72,6,ok,0,0,0.002,8,-0.48,0.70,11.05,47,0.064,8.08
7.8356,0.06981,-0.05236,1.08909,0.00000,0.00000,0.00000,26,6,65,24,26,4,72,8,ok,0,0,0.002,8,-0.48,0.70,11.05,47,0.076,8.08
7.8481,0.06981,-0.05236,1.08909,0.00000,0.00000,0.00000,27,6,65,25,26,6,73,8,ok,0,0,0.002,8,-0.48,0.70,11.05,47,0.089,8.08
7.8708,0.06981,-0.05236,1.08909,0.00000,0.00000,0.00000,28,6,64,28,27,6,73,9,ok,0,0,0.002,8,-0.48,0.70,11.05,47,0.101,8.08
7.8739,0.06981,-0.05236,1.08909,0.00000,0.00000,0.00000,30,5,63,29,28,5,73,11,ok,0,0,0.002,8,-0.48,0.70,11.05,47,0.114,8.08
7.8866,0.06981,-0.05236,1.08909,0.00000,0.00000,0.00000,31,4,65,28,29,3,73,12,ok,0,0,0.002,8,-0.48,0.70,11.05,47,0.127,8.08
7.9068,0.06981,-0.05236,1.08909,0.00000,0.00000,0.00000,32,3,67,25,30,3,73,14,ok,0,0,0.002,8,-0.48,0.70,11.05,47,0.139,8.08
7.9118,0.06981,-0.05236,1.08909,0.00000,0.00000,0.00000,33,3,70,21,31,3,74,16,ok,2,0,0.002,8,-0.48,0.70,11.05,47,0.152,8.08
7.9241,0.06981,-0.05236,1.08909,0.00000,0.00000,0.00000,35,2,71,18,32,2,73,17,ok,2,0,0.002,8,-0.48,0.70,11.05,47,0.164,8.08
7.9468,0.06981,-0.05236,1.08909,0.00000,0.00000,0.00000,36,2,71,15,33,1,73,19,ok,2,0,0.002,8,-0.48,0.70,11.05,47,0.177,8.08
7.9502,0.04538,0.01920,1.06465,0.00000,0.00000,0.00000,38,1,71,15,36,1,74,20,ok,0,0,0.002,8,0.01,0.97,9.42,48,0.000,8.08
7.9628,0.04538,0.01920,1.06465,0.00000,0.00000,0.00000,39,1,71,11,36,1,73,22,ok,0,0,0.002,8,0.01,0.97,9.42,48,0.013,8.08
7.9828,0.04538,0.01920,1.06465,0.00000,0.00000,0.00000,41,1,71,8,38,2,72,24,ok,0,0,0.002,8,0.01,0.97,9.42,48,0.025,8.08
7.9876,0.04538,0.01920,1.06465,0.00000,0.00000,0.00000,42,1,70,6,39,1,73,25,ok,0,0,0.002,8,0.01,0.97,9.42,48,0.038,8.08
8.0001,0.04538,0.01920,1.06465,0.00000,0.00000,0.00000,43,0,69,3,40,2,73,26,ok,0,0,0.002,8,0.01,0.97,9.42,48,0.050,8.08
8.0228,0.04538,0.01920,1.06465,0.00000,0.00000,0.00000,45,0,68,1,42,1,72,28,ok,0,0,0.002,8,0.01,0.97,9.42,48,0.063,8.08
8.0259,0.04538,0.01920,1.06465,0.00000,0.00000,0.00000,46,0,67,0,43,1,72,29,ok,0,0,0.002,8,0.01,0.97,9.42,48,0.076,8.08
8.0390,0.04538,0.01920,1.06465,0.00000,0.00000,0.00000,46,0,65,-2,44,0,73,29,ok,0,0,0.002,8,0.01,0.97,9.42,48,0.089,8.08
8.0588,0.04538,0.01920,1.06465,0.00000,0.00000,0.00000,48,1,64,-4,46,0,74,28,ok,0,0,0.002,8,0.01,0.97,9.42,48,0.101,8.08
8.0636,0.04538,0.01920,1.06465,0.00000,0.00000,0.00000,49,1,63,-6,47,0,76,26,ok,0,0,0.002,8,0.01,0.97,9.42,48,0.114,8.08
8.0761,0.04538,0.01920,1.06465,0.00000,0.00000,0.00000,50,2,61,-7,48,0,78,21,ok,0,0,0.002,8,0.01,0.97,9.42,48,0.126,8.08
8.0988,0.04538,0.01920,1.06465,0.00000,0.00000,0.00000,52,1,58,-8,48,0,79,17,ok,2,0,0.002,8,0.01,0.97,9.42,48,0.139,8.08
8.1019,0.04538,0.01920,1.06465,0.00000,0.00000,0.00000,52,1,56,-8,50,0,81,14,ok,2,0,0.002,8,0.01,0.97,9.42,48,0.152,8.08
8.1146,0.04538,0.01920,1.06465,0.00000,0.00000,0.00000,52,4,54,-9,51,0,81,14,ok,2,0,0.002,8,0.01,0.97,9.42,48,0.165,8.08
8.1348,0.04538,0.01920,1.06465,0.00000,0.00000,0.00000,53,5,51,-9,52,1,81,11,ok,2,0,0.002,8,0.01,0.97,9.42,48,0.177,8.08
8.1396,0.04538,0.01920,1.06465,0.00000,0.00000,0.00000,54,4,48,-9,53,1,81,7,ok,2,0,0.002,8,0.01,0.97,9.42,48,0.190,8.08
8.1523,0.04538,0.01920,1.06465,0.00000,0.00000,0.00000,54,5,46,-8,54,2,81,4,ok,2,0,0.002,8,0.01,0.97,9.42,48,0.202,8.08
8.1749,-0.16057,0.02793,1.16937,0.00000,0.00000,0.00000,55,6,43,-9,55,1,80,2,ok,2,0,0.002,8,-0.49,-1.79,9.95,49,0.000,8.08
8.1780,-0.16057,0.02793,1.16937,0.00000,0.00000,0.00000,57,6,41,-9,56,1,79,-1,ok,2,0,0.002,8,-0.49,-1.79,9.95,49,0.013,8.08
8.1906,-0.16057,0.02793,1.16937,0.00000,0.00000,0.00000,57,6,38,-8,57,0,79,-2,ok,2,0,0.002,8,-0.49,-1.79,9.95,49,0.026,8.08
8.2109,-0.16057,0.02793,1.16937,0.00000,0.00000,0.00000,59,7,35,-7,58,1,77,-4,ok,2,0,0.002,8,-0.49,-1.79,9.95,49,0.039,8.08
8.2158,-0.16057,0.02793,1.16937,0.00000,0.00000,0.00000,59,7,32,-6,59,1,75,-6,ok,2,0,0.002,8,-0.49,-1.79,9.95,49,0.051,8.08
8.2281,-0.16057,0.02793,1.16937,0.00000,0.00000,0.00000,60,8,28,-5,60,2,72,-6,ok,2,0,0.002,8,-0.49,-1.79,9.95,49,0.064,8.08
8.2508,-0.16057,0.02793,1.16937,0.00000,0.00000,0.00000,61,9,26,-3,61,2,71,-8,ok,2,0,0.002,8,-0.49,-1.79,9.95,49,0.076,8.08
8.2539,-0.16057,0.02793,1.16937,0.00000,0.00000,0.00000,62,10,21,-1,61,1,70,-10,ok,2,0,0.002,8,-0.49,-1.79,9.95,49,0.089,8.08
8.2666,-0.16057,0.02793,1.16937,0.00000,0.00000,0.00000,62,10,20,0,64,-1,68,-11,ok,2,0,0.002,8,-0.49,-1.79,9.95,49,0.102,8.08
8.2868,-0.16057,0.02793,1.16937,0.00000,0.00000,0.00000,63,10,18,2,64,0,65,-13,ok,2,0,0.002,8,-0.49,-1.79,9.95,49,0.115,8.08
8.2917,-0.16057,0.02793,1.16937,0.00000,0.00000,0.00000,63,11,16,4,65,1,63,-13,ok,2,0,0.002,8,-0.49,-1.79,9.95,49,0.127,8.08
8.3042,-0.16057,0.02793,1.16937,0.00000,0.00000,0.00000,64,12,14,7,65,0,61,-13,ok,2,0,0.002,8,-0.49,-1.79,9.95,49,0.139,8.08
8.3268,-0.16057,0.02793,1.16937,0.00000,0.00000,0.00000,64,13,12,10,66,1,59,-14,ok,2,0,0.002,8,-0.49,-1.79,9.95,49,0.152,8.08
8.3299,-0.16057,0.02793,1.16937,0.00000,0.00000,0.00000,65,14,11,13,67,1,56,-12,ok,2,0,0.002,8,-0.49,-1.79,9.95,49,0.165,8.08
8.3427,-0.16057,0.02793,1.16937,0.00000,0.00000,0.00000,65,15,12,13,67,1,53,-12,ok,2,0,0.002,8,-0.49,-1.79,9.95,49,0.178,8.08
8.3629,-0.16057,0.02793,1.16937,0.00000,0.00000,0.00000,65,16,12,13,68,1,50,-11,ok,2,0,0.002,8,-0.49,-1.79,9.95,49,0.191,8.08
8.3679,-0.02618,0.01571,1.22522,0.00000,0.00000,0.00000,66,16,14,12,68,2,47,-10,ok,2,0,0.002,8,-0.03,-0.05,9.45,50,0.000,8.08
8.3802,-0.02618,0.01571,1.22522,0.00000,0.00000,0.00000,66,17,15,11,69,3,45,-10,ok,2,0,0.002,8,-0.03,-0.05,9.45,50,0.013,8.08
8.4028,-0.02618,0.01571,1.22522,0.00000,0.00000,0.00000,67,18,16,10,69,3,42,-9,ok,2,0,0.002,8,-0.03,-0.05,9.45,50,0.025,8.08
8.4059,-0.02618,0.01571,1.22522,0.00000,0.00000,0.00000,67,18,17,9,69,4,40,-9,ok,2,0,0.002,8,-0.03,-0.05,9.45,50,0.038,8.08
8.4186,-0.02618,0.01571,1.22522,0.00000,0.00000,0.00000,67,20,18,9,70,5,36,-7,ok,2,0,0.002,8,-0.03,-0.05,9.45,50,0.051,8.08
8.4388,-0.02618,0.01571,1.22522,0.00000,0.00000,0.00000,68,21,20,8,71,5,34,-5,ok,2,0,0.002,8,-0.03,-0.05,9.45,50,0.063,8.08
8.4437,-0.02618,0.01571,1.22522,0.00000,0.00000,0.00000,68,22,21,7,71,7,32,-3,ok,2,0,0.002,8,-0.03,-0.05,9.45,50,0.076,8.08
8.4562,-0.02618,0.01571,1.22522,0.00000,0.00000,0.00000,68,23,22,6,70,8,30,0,ok,2,0,0.002,8,-0.03,-0.05,9.45,50,0.088,8.08
8.4788,-0.02618,0.01571,1.22522,0.00000,0.00000,0.00000,68,24,23,6,71,8,29,2,ok,2,0,0.002,8,-0.03,-0.05,9.45,50,0.101,8.08
8.4819,-0.02618,0.01571,1.22522,0.00000,0.00000,0.00000,67,25,24,5,71,9,28,6,ok,2,0,0.002,8,-0.03,-0.05,9.45,50,0.114,8.08
8.4946,-0.02618,0.01571,1.22522,0.00000,0.00000,0.00000,67,28,25,5,71,10,27,8,ok,2,0,0.002,8,-0.03,-0.05,9.45,50,0.127,8.08
8.5148,-0.02618,0.01571,1.22522,0.00000,0.00000,0.00000,66,29,27,4,71,12,29,7,ok,2,0,0.002,8,-0.03,-0.05,9.45,50,0.139,8.08
8.5196,-0.02618,0.01571,1.22522,0.00000,0.00000,0.00000,67,28,28,4,71,13,30,6,ok,2,0,0.002,8,-0.03,-0.05,9.45,50,0.152,8.08
8.5321,-0.02618,0.01571,1.22522,0.00000,0.00000,0.00000,69,25,29,3,71,15,31,4,ok,2,0,0.002,8,-0.03,-0.05,9.45,50,0.164,8.08
8.5548,-0.02618,0.01571,1.22522,0.00000,0.00000,0.00000,72,21,31,3,71,16,32,3,ok,2,0,0.002,8,-0.03,-0.05,9.45,50,0.177,8.08
8.5582,-0.02618,0.01571,1.22522,0.00000,0.00000,0.00000,73,17,32,2,71,18,33,3,ok,2,0,0.002,8,-0.03,-0.05,9.45,50,0.190,8.08
8.5709,0.02269,0.03316,1.33343,0.00000,0.00000,0.00000,73,15,33,2,72,19,35,2,ok,2,0,0.002,8,0.54,0.27,10.17,51,0.000,8.08
8.5908,0.02269,0.03316,1.33343,0.00000,0.00000,0.00000,73,14,35,2,71,21,36,1,ok,2,0,0.003,8,0.54,0.27,10.17,51,0.013,8.08
8.5960,0.02269,0.03316,1.33343,0.00000,0.00000,0.00000,73,11,36,2,71,23,38,1,ok,2,0,0.003,8,0.54,0.27,10.17,51,0.025,8.08
8.6084,0.02269,0.03316,1.33343,0.00000,0.00000,0.00000,72,8,37,2,71,24,39,2,ok,2,0,0.003,8,0.54,0.27,10.17,51,0.038,8.08
8.6309,0.02269,0.03316,1.33343,0.00000,0.00000,0.00000,71,5,39,2,71,26,41,2,ok,2,0,0.003,8,0.54,0.27,10.17,51,0.050,8.08
8.6339,0.02269,0.03316,1.33343,0.00000,0.00000,0.00000,70,1,40,2,70,28,42,2,ok,2,0,0.003,9,0.54,0.27,10.17,51,0.063,8.08
8.6467,0.02269,0.03316,1.33343,0.00000,0.00000,0.00000,69,-1,41,2,70,29,43,2,ok,2,0,0.003,9,0.54,0.27,10.17,51,0.076,8.08
8.6668,0.02269,0.03316,1.33343,0.00000,0.00000,0.00000,68,-3,43,2,70,29,44,1,ok,2,0,0.003,9,0.54,0.27,10.17,51,0.088,8.08
8.6718,0.02269,0.03316,1.33343,0.00000,0.00000,0.00000,66,-4,43,2,72,29,45,1,ok,2,0,0.003,9,0.54,0.27,10.17,51,0.101,8.08
8.6841,0.02269,0.03316,1.33343,0.00000,0.00000,0.00000,65,-6,45,2,73,26,47,0,ok,2,0,0.003,9,0.54,0.27,10.17,51,0.113,8.08
8.7069,0.02269,0.03316,1.33343,0.00000,0.00000,0.00000,64,-8,46,3,75,22,48,1,ok,2,0,0.003,9,0.54,0.27,10.17,51,0.126,8.08
8.7099,0.02269,0.03316,1.33343,0.00000,0.00000,0.00000,62,-9,48,3,77,17,49,1,ok,2,0,0.003,9,0.54,0.27,10.17,51,0.139,8.08
8.7226,0.02269,0.03316,1.33343,0.00000,0.00000,0.00000,59,-10,49,3,78,15,50,1,ok,2,0,0.003,9,0.54,0.27,10.17,51,0.152,8.08
8.7428,0.02269,0.03316,1.33343,0.00000,0.00000,0.00000,57,-11,50,3,78,14,50,1,ok,2,0,0.003,9,0.54,0.27,10.17,51,0.164,8.08
8.7478,0.02269,0.03316,1.33343,0.00000,0.00000,0.00000,55,-12,50,5,78,12,51,1,ok,2,0,0.003,9,0.54,0.27,10.17,51,0.177,8.08
8.7603,0.02269,0.03316,1.33343,0.00000,0.00000,0.00000,52,-11,51,6,78,8,52,1,ok,2,0,0.003,9,0.54,0.27,10.17,51,0.189,8.08
8.7829,0.08727,-0.02269,1.32820,0.00000,0.00000,0.00000,50,-11,52,6,78,5,54,1,ok,2,0,0.003,9,-1.30,1.30,9.66,52,0.000,8.08
8.7859,0.08727,-0.02269,1.32820,0.00000,0.00000,0.00000,47,-11,53,6,77,3,54,0,ok,2,0,0.003,9,-1.30,1.30,9.66,52,0.013,8.08
8.7987,0.08727,-0.02269,1.32820,0.00000,0.00000,0.00000,44,-11,53,7,76,0,55,1,ok,2,0,0.003,9,-1.30,1.30,9.66,52,0.026,8.08
8.8188,0.08727,-0.02269,1.32820,0.00000,0.00000,0.00000,42,-11,55,7,76,-3,56,0,ok,2,0,0.003,9,-1.30,1.30,9.66,52,0.038,8.08
8.8237,0.08727,-0.02269,1.32820,0.00000,0.00000,0.00000,40,-10,56,7,75,-4,57,1,ok,2,0,0.003,9,-1.30,1.30,9.66,52,0.051,8.08
8.8361,0.08727,-0.02269,1.32820,0.00000,0.00000,0.00000,37,-9,57,8,73,-7,57,-1,ok,2,0,0.003,9,-1.30,1.30,9.66,52,0.064,8.08
8.8588,0.08727,-0.02269,1.32820,0.00000,0.00000,0.00000,34,-7,57,9,70,-7,58,0,ok,2,0,0.003,9,-1.30,1.30,9.66,52,0.076,8.08
8.8620,0.08727,-0.02269,1.32820,0.00000,0.00000,0.00000,31,-6,58,9,69,-9,58,0,ok,2,0,0.003,9,-1.30,1.30,9.66,52,0.089,8.08
8.8747,0.08727,-0.02269,1.32820,0.00000,0.00000,0.00000,28,-4,58,9,68,-11,60,1,ok,2,0,0.003,9,-1.30,1.30,9.66,52,0.102,8.08
8.8948,0.08727,-0.02269,1.32820,0.00000,0.00000,0.00000,24,-1,60,11,66,-12,60,0,ok,2,0,0.003,9,-1.30,1.30,9.66,52,0.115,8.08
8.8996,0.08727,-0.02269,1.32820,0.00000,0.00000,0.00000,22,-1,61,11,64,-13,61,0,ok,2,0,0.003,9,-1.30,1.30,9.66,52,0.127,8.08
8.9123,0.08727,-0.02269,1.32820,0.00000,0.00000,0.00000,21,1,61,12,62,-13,64,-2,ok,2,0,0.003,9,-1.30,1.30,9.66,52,0.140,8.08
8.9348,0.08727,-0.02269,1.32820,0.00000,0.00000,0.00000,18,3,62,13,59,-14,64,-1,ok,2,0,0.003,9,-1.30,1.30,9.66,52,0.152,8.08
8.9379,0.08727,-0.02269,1.32820,0.00000,0.00000,0.00000,16,7,62,13,57,-14,65,-1,ok,2,0,0.003,9,-1.30,1.30,9.66,52,0.165,8.08
8.9506,0.08727,-0.02269,1.32820,0.00000,0.00000,0.00000,15,10,62,14,54,-13,66,0,ok,2,0,0.003,9,-1.30,1.30,9.66,52,0.178,8.08
8.9708,0.13439,0.01047,1.35088,0.00000,0.00000,0.00000,13,13,63,15,51,-12,66,-1,ok,2,0,0.003,9,1.11,0.73,11.02,53,0.000,8.08
8.9756,0.13439,0.01047,1.35088,0.00000,0.00000,0.00000,14,13,63,16,49,-12,67,0,ok,2,0,0.003,9,1.11,0.73,11.02,53,0.013,8.08
8.9881,0.13439,0.01047,1.35088,0.00000,0.00000,0.00000,14,13,63,17,46,-11,68,0,ok,2,0,0.003,9,1.11,0.73,11.02,53,0.025,8.08
9.0108,0.13439,0.01047,1.35088,0.00000,0.00000,0.00000,16,12,64,17,43,-11,69,1,ok,2,0,0.003,9,1.11,0.73,11.02,53,0.038,8.08
9.0140,0.13439,0.01047,1.35088,0.00000,0.00000,0.00000,17,12,64,18,40,-9,69,1,ok,2,0,0.003,9,1.11,0.73,11.02,53,0.051,8.08
9.0265,0.13439,0.01047,1.35088,0.00000,0.00000,0.00000,18,11,65,19,38,-9,70,2,ok,2,0,0.003,9,1.11,0.73,11.02,53,0.064,8.08
9.0468,0.13439,0.01047,1.35088,0.00000,0.00000,0.00000,20,10,65,20,35,-7,70,2,ok,2,0,0.003,9,1.11,0.73,11.02,53,0.076,8.08
9.0516,0.13439,0.01047,1.35088,0.00000,0.00000,0.00000,20,10,65,21,33,-6,71,3,ok,2,0,0.003,9,1.11,0.73,11.02,53,0.088,8.08
9.0643,0.13439,0.01047,1.35088,0.00000,0.00000,0.00000,23,9,65,22,31,-4,71,5,ok,2,0,0.003,9,1.11,0.73,11.02,53,0.101,8.08
9.0868,0.13439,0.01047,1.35088,0.00000,0.00000,0.00000,24,8,65,23,28,-1,72,5,ok,2,0,0.003,9,1.11,0.73,11.02,53,0.113,8.08
9.0899,0.13439,0.01047,1.35088,0.00000,0.00000,0.00000,25,7,65,23,27,1,72,7,ok,0,0,0.003,9,1.11,0.73,11.02,53,0.127,8.08
9.1026,0.13439,0.01047,1.35088,0.00000,0.00000,0.00000,26,6,65,24,26,4,72,8,ok,0,0,0.003,9,1.11,0.73,11.02,53,0.140,8.08
9.1229,0.13439,0.01047,1.35088,0.00000,0.00000,0.00000,28,6,64,25,25,7,73,9,ok,0,0,0.003,9,1.11,0.73,11.02,53,0.152,8.08
9.1278,0.13439,0.01047,1.35088,0.00000,0.00000,0.00000,29,5,63,28,27,6,73,10,ok,0,0,0.003,9,1.11,0.73,11.02,53,0.164,8.08
9.1401,0.13439,0.01047,1.35088,0.00000,0.00000,0.00000,30,5,63,29,28,6,73,12,ok,0,0,0.003,9,1.11,0.73,11.02,53,0.177,8.08
9.1628,0.13439,0.01047,1.35088,0.00000,0.00000,0.00000,31,4,64,28,29,4,73,13,ok,0,0,0.003,9,1.11,0.73,11.02,53,0.190,8.08
9.1662,0.05411,0.07505,1.31598,0.00000,0.00000,0.00000,33,3,67,25,30,3,74,15,ok,2,0,0.003,9,1.03,0.23,10.34,54,0.000,8.08
9.1786,0.05411,0.07505,1.31598,0.00000,0.00000,0.00000,34,3,69,21,31,3,74,16,ok,2,0,0.003,9,1.03,0.23,10.34,54,0.013,8.08
9.1988,0.05411,0.07505,1.31598,0.00000,0.00000,0.00000,35,2,70,18,32,3,73,18,ok,2,0,0.003,9,1.03,0.23,10.34,54,0.025,8.08
9.2036,0.05411,0.07505,1.31598,0.00000,0.00000,0.00000,36,2,70,15,34,2,73,20,ok,2,0,0.003,9,1.03,0.23,10.34,54,0.038,8.08
9.2160,0.05411,0.07505,1.31598,0.00000,0.00000,0.00000,38,1,70,15,36,2,74,21,ok,2,0,0.003,9,1.03,0.23,10.34,54,0.050,8.08
9.2388,0.05411,0.07505,1.31598,0.00000,0.00000,0.00000,39,1,70,11,36,2,73,23,ok,0,0,0.003,9,1.03,0.23,10.34,54,0.063,8.08
9.2421,0.05411,0.07505,1.31598,0.00000,0.00000,0.00000,41,1,70,9,38,2,73,24,ok,0,0,0.003,9,1.03,0.23,10.34,54,0.076,8.08
9.2546,0.05411,0.07505,1.31598,0.00000,0.00000,0.00000,42,1,69,6,39,2,73,25,ok,0,0,0.003,9,1.03,0.23,10.34,54,0.089,8.08
9.2748,0.05411,0.07505,1.31598,0.00000,0.00000,0.00000,44,0,69,3,40,3,73,27,ok,0,0,0.003,9,1.03,0.23,10.34,54,0.101,8.08
9.2797,0.05411,0.07505,1.31598,0.00000,0.00000,0.00000,45,0,68,1,42,2,73,28,ok,0,0,0.003,9,1.03,0.23,10.34,54,0.114,8.08
9.2923,0.05411,0.07505,1.31598,0.00000,0.00000,0.00000,46,0,67,0,43,2,73,29,ok,0,0,0.003,9,1.03,0.23,10.34,54,0.126,8.08
9.3148,0.05411,0.07505,1.31598,0.00000,0.00000,0.00000,47,0,65,-1,44,1,74,29,ok,0,0,0.003,9,1.03,0.23,10.34,54,0.139,8.08
9.3179,0.05411,0.07505,1.31598,0.00000,0.00000,0.00000,48,1,64,-4,46,1,75,29,ok,0,0,0.003,9,1.03,0.23,10.34,54,0.152,8.08
9.3306,0.05411,0.07505,1.31598,0.00000,0.00000,0.00000,49,1,63,-6,47,1,77,27,ok,0,0,0.003,9,1.03,0.23,10.34,54,0.165,8.08
9.3508,0.05411,0.07505,1.31598,0.00000,0.00000,0.00000,51,2,60,-7,48,1,79,21,ok,2,0,0.003,9,1.03,0.23,10.34,54,0.177,8.08
9.3556,0.05411,0.07505,1.31598,0.00000,0.00000,0.00000,52,1,58,-8,48,1,80,17,ok,2,0,0.003,9,1.03,0.23,10.34,54,0.190,8.08
9.3684,-0.10821,0.01047,1.40848,0.00000,0.00000,0.00000,52,1,56,-8,50,1,81,14,ok,2,0,0.003,9,-0.13,-0.96,8.80,55,0.000,8.08
9.3909,-0.10821,0.01047,1.40848,0.00000,0.00000,0.00000,52,3,53,-9,51,0,82,14,ok,2,0,0.003,9,-0.13,-0.96,8.80,55,0.013,8.08
9.3940,-0.10821,0.01047,1.40848,0.00000,0.00000,0.00000,54,4,51,-8,52,0,81,11,ok,2,0,0.003,9,-0.13,-0.96,8.80,55,0.026,8.08
9.4067,-0.10821,0.01047,1.40848,0.00000,0.00000,0.00000,54,4,48,-8,53,0,81,8,ok,2,0,0.003,9,-0.13,-0.96,8.80,55,0.039,8.08
9.4268,-0.10821,0.01047,1.40848,0.00000,0.00000,0.00000,55,5,45,-8,54,1,81,5,ok,2,0,0.003,9,-0.13,-0.96,8.80,55,0.051,8.08
9.4316,-0.10821,0.01047,1.40848,0.00000,0.00000,0.00000,55,5,43,-8,55,1,80,3,ok,2,0,0.003,9,-0.13,-0.96,8.80,55,0.064,8.08
9.4443,-0.10821,0.01047,1.40848,0.00000,0.00000,0.00000,57,6,41,-9,56,2,79,-1,ok,2,0,0.003,9,-0.13,-0.96,8.80,55,0.076,8.08
9.4668,-0.10821,0.01047,1.40848,0.00000,0.00000,0.00000,57,6,38,-8,57,1,79,-2,ok,2,0,0.003,9,-0.13,-0.96,8.80,55,0.089,8.08
9.4699,-0.10821,0.01047,1.40848,0.00000,0.00000,0.00000,59,7,35,-7,58,1,77,-4,ok,2,0,0.003,9,-0.13,-0.96,8.80,55,0.102,8.08
9.4826,-0.10821,0.01047,1.40848,0.00000,0.00000,0.00000,59,7,32,-5,58,2,75,-6,ok,2,0,0.003,9,-0.13,-0.96,8.80,55,0.115,8.08
9.5028,-0.10821,0.01047,1.40848,0.00000,0.00000,0.00000,60,8,29,-5,60,2,73,-7,ok,2,0,0.003,9,-0.13,-0.96,8.80,55,0.127,8.08
9.5076,-0.10821,0.01047,1.40848,0.00000,0.00000,0.00000,61,9,26,-3,60,2,71,-8,ok,2,0,0.003,9,-0.13,-0.96,8.80,55,0.139,8.08
9.5202,-0.10821,0.01047,1.40848,0.00000,0.00000,0.00000,62,10,21,-1,61,1,70,-10,ok,2,0,0.003,9,-0.13,-0.96,8.80,55,0.152,8.08
9.5429,-0.10821,0.01047,1.40848,0.00000,0.00000,0.00000,62,10,20,0,64,-1,68,-11,ok,2,0,0.003,9,-0.13,-0.96,8.80,55,0.165,8.08
9.5459,-0.10821,0.01047,1.40848,0.00000,0.00000,0.00000,64,11,18,2,64,0,65,-12,ok,2,0,0.003,9,-0.13,-0.96,8.80,55,0.178,8.08
9.5586,-0.10821,0.01047,1.40848,0.00000,0.00000,0.00000,64,12,16,4,65,1,63,-13,ok,2,0,0.003,9,-0.13,-0.96,8.80,55,0.191,8.08
9.5788,-0.03665,-0.01222,1.42070,0.00000,0.00000,0.00000,64,12,14,7,65,0,61,-13,ok,2,0,0.003,9,0.35,-0.44,10.94,56,0.000,8.08
9.5836,-0.03665,-0.01222,1.42070,0.00000,0.00000,0.00000,64,13,12,10,66,1,59,-14,ok,2,0,0.003,9,0.35,-0.44,10.94,56,0.013,8.08
9.5962,-0.03665,-0.01222,1.42070,0.00000,0.00000,0.00000,65,14,11,13,67,1,56,-12,ok,2,0,0.003,9,0.35,-0.44,10.94,56,0.025,8.08
9.6188,-0.03665,-0.01222,1.42070,0.00000,0.00000,0.00000,65,15,12,13,67,1,53,-12,ok,2,0,0.003,9,0.35,-0.44,10.94,56,0.038,8.08
9.6219,-0.03665,-0.01222,1.42070,0.00000,0.00000,0.00000,66,16,12,13,68,2,51,-12,ok,2,0,0.003,9,0.35,-0.44,10.94,56,0.051,8.08
9.6346,-0.03665,-0.01222,1.42070,0.00000,0.00000,0.00000,67,17,14,12,68,2,48,-11,ok,2,0,0.003,9,0.35,-0.44,10.94,56,0.064,8.08
9.6548,-0.03665,-0.01222,1.42070,0.00000,0.00000,0.00000,67,18,15,11,68,3,45,-10,ok,2,0,0.003,9,0.35,-0.44,10.94,56,0.076,8.08
9.6597,-0.03665,-0.01222,1.42070,0.00000,0.00000,0.00000,67,18,15,10,68,3,42,-9,ok,2,0,0.003,10,0.35,-0.44,10.94,56,0.088,8.08
9.6720,-0.03665,-0.01222,1.42070,0.00000,0.00000,0.00000,68,19,17,9,69,4,40,-8,ok,2,0,0.003,10,0.35,-0.44,10.94,56,0.101,8.08
9.6948,-0.03665,-0.01222,1.42070,0.00000,0.00000,0.00000,68,20,17,9,69,5,36,-6,ok,2,0,0.003,10,0.35,-0.44,10.94,56,0.113,8.08
9.6979,-0.03665,-0.01222,1.42070,0.00000,0.00000,0.00000,69,21,19,8,70,5,35,-5,ok,2,0,0.003,10,0.35,-0.44,10.94,56,0.127,8.08
9.7106,-0.03665,-0.01222,1.42070,0.00000,0.00000,0.00000,69,22,21,7,70,7,32,-3,ok,2,0,0.003,10,0.35,-0.44,10.94,56,0.140,8.08
9.7309,-0.03665,-0.01222,1.42070,0.00000,0.00000,0.00000,68,23,22,7,70,8,30,0,ok,2,0,0.003,10,0.35,-0.44,10.94,56,0.152,8.08
9.7357,-0.03665,-0.01222,1.42070,0.00000,0.00000,0.00000,68,24,23,6,71,9,29,2,ok,2,0,0.003,10,0.35,-0.44,10.94,56,0.164,8.08
9.7481,-0.03665,-0.01222,1.42070,0.00000,0.00000,0.00000,68,25,24,6,71,9,28,6,ok,2,0,0.003,10,0.35,-0.44,10.94,56,0.177,8.08
9.7708,-0.03665,-0.01222,1.42070,0.00000,0.00000,0.00000,67,28,26,5,71,11,27,8,ok,2,0,0.003,10,0.35,-0.44,10.94,56,0.190,8.08
9.7742,0.08901,-0.02618,1.46084,0.00000,0.00000,0.00000,66,29,27,4,71,12,29,7,ok,2,0,0.003,10,-0.15,0.78,8.75,57,0.000,8.08
9.7866,0.08901,-0.02618,1.46084,0.00000,0.00000,0.00000,67,28,28,4,71,14,30,6,ok,2,0,0.003,10,-0.15,0.78,8.75,57,0.013,8.08
9.8068,0.08901,-0.02618,1.46084,0.00000,0.00000,0.00000,70,25,30,3,71,15,31,4,ok,2,0,0.003,10,-0.15,0.78,8.75,57,0.025,8.08
9.8116,0.08901,-0.02618,1.46084,0.00000,0.00000,0.00000,72,21,31,3,70,16,32,3,ok,2,0,0.003,10,-0.15,0.78,8.75,57,0.038,8.08
9.8241,0.08901,-0.02618,1.46084,0.00000,0.00000,0.00000,73,17,33,2,70,18,34,3,ok,2,0,0.003,10,-0.15,0.78,8.75,57,0.050,8.08
9.8469,0.08901,-0.02618,1.46084,0.00000,0.00000,0.00000,73,15,34,2,71,19,35,2,ok,2,0,0.003,10,-0.15,0.78,8.75,57,0.063,8.08
9.8499,0.08901,-0.02618,1.46084,0.00000,0.00000,0.00000,73,14,35,2,70,21,37,1,ok,2,0,0.003,10,-0.15,0.78,8.75,57,0.076,8.08
9.8628,0.08901,-0.02618,1.46084,0.00000,0.00000,0.00000,73,11,36,2,70,22,39,1,ok,2,0,0.003,10,-0.15,0.78,8.75,57,0.089,8.08
9.8828,0.08901,-0.02618,1.46084,0.00000,0.00000,0.00000,72,8,37,2,70,24,39,2,ok,2,0,0.003,10,-0.15,0.78,8.75,57,0.101,8.08
9.8876,0.08901,-0.02618,1.46084,0.00000,0.00000,0.00000,72,5,39,2,70,26,41,2,ok,2,0,0.003,10,-0.15,0.78,8.75,57,0.114,8.08
9.9001,0.08901,-0.02618,1.46084,0.00000,0.00000,0.00000,71,2,40,2,70,28,42,2,ok,2,0,0.003,10,-0.15,0.78,8.75,57,0.126,8.08
9.9228,0.08901,-0.02618,1.46084,0.00000,0.00000,0.00000,70,0,41,2,70,29,43,2,ok,2,0,0.003,10,-0.15,0.78,8.75,57,0.139,8.08
9.9262,0.08901,-0.02618,1.46084,0.00000,0.00000,0.00000,68,-3,43,2,70,29,45,1,ok,2,0,0.003,10,-0.15,0.78,8.75,57,0.152,8.08
9.9386,0.08901,-0.02618,1.46084,0.00000,0.00000,0.00000,66,-4,43,2,71,29,46,1,ok,2,0,0.003,10,-0.15,0.78,8.75,57,0.165,8.08
9.9588,0.08901,-0.02618,1.46084,0.00000,0.00000,0.00000,65,-6,45,3,73,26,47,0,ok,2,0,0.003,10,-0.15,0.78,8.75,57,0.177,8.08
9.9636,0.08901,-0.02618,1.46084,0.00000,0.00000,0.00000,64,-8,46,3,75,22,48,0,ok,2,0,0.003,10,-0.15,0.78,8.75,57,0.190,8.08
9.9763,0.07679,0.05934,1.50796,0.00000,0.00000,0.00000,62,-9,48,4,76,17,49,0,ok,2,0,0.003,10,0.86,1.39,9.66,58,0.000,8.08
9.9988,0.07679,0.05934,1.50796,0.00000,0.00000,0.00000,60,-10,49,3,78,15,50,1,ok,2,0,0.003,10,0.86,1.39,9.66,58,0.013,8.08
10.0019,0.07679,0.05934,1.50796,0.00000,0.00000,0.00000,58,-10,49,3,78,14,50,1,ok,2,0,0.003,10,0.86,1.39,9.66,58,0.026,8.08
10.0145,0.07679,0.05934,1.50796,0.00000,0.00000,0.00000,55,-11,49,5,78,12,52,1,ok,2,0,0.003,10,0.86,1.39,9.66,58,0.039,8.08
10.0428,0.07679,0.05934,1.50796,0.00000,0.00000,0.00000,52,-11,51,6,78,8,53,1,ok,2,0,0.003,10,0.86,1.39,9.66,58,0.051,8.08
10.0460,0.07679,0.05934,1.50796,0.00000,0.00000,0.00000,50,-11,52,6,78,5,54,1,ok,2,0,0.003,10,0.86,1.39,9.66,58,0.070,8.08
10.0587,0.07679,0.05934,1.50796,0.00000,0.00000,0.00000,48,-11,52,6,77,3,55,0,ok,2,0,0.003,10,0.86,1.39,9.66,58,0.082,8.08
10.0788,0.07679,0.05934,1.50796,0.00000,0.00000,0.00000,45,-11,53,7,76,0,55,1,ok,2,0,0.003,10,0.86,1.39,9.66,58,0.095,8.08
10.0835,0.07679,0.05934,1.50796,0.00000,0.00000,0.00000,43,-11,55,8,76,-2,56,0,ok,2,0,0.003,10,0.86,1.39,9.66,58,0.107,8.08
10.0963,0.07679,0.05934,1.50796,0.00000,0.00000,0.00000,40,-10,55,8,75,-3,57,1,ok,2,0,0.003,10,0.86,1.39,9.66,58,0.120,8.08
10.1188,0.07679,0.05934,1.50796,0.00000,0.00000,0.00000,37,-9,56,8,73,-7,58,0,ok,2,0,0.003,10,0.86,1.39,9.66,58,0.132,8.08
10.1223,0.07679,0.05934,1.50796,0.00000,0.00000,0.00000,35,-8,57,9,70,-6,58,0,ok,2,0,0.003,10,0.86,1.39,9.66,58,0.146,8.11
10.1345,0.07679,0.05934,1.50796,0.00000,0.00000,0.00000,31,-6,57,9,69,-8,59,1,ok,2,0,0.003,10,0.86,1.39,9.66,58,0.158,8.11
10.1548,0.07679,0.05934,1.50796,0.00000,0.00000,0.00000,28,-4,58,9,68,-10,60,1,ok,2,0,0.003,10,0.86,1.39,9.66,58,0.171,8.11
10.1596,0.07679,0.05934,1.50796,0.00000,0.00000,0.00000,24,-2,59,11,66,-11,61,1,ok,2,0,0.003,10,0.86,1.39,9.66,58,0.183,8.11
10.1723,0.07679,0.05934,1.50796,0.00000,0.00000,0.00000,22,-1,60,11,63,-12,62,0,ok,2,0,0.003,10,0.86,1.39,9.66,58,0.196,8.11
10.1949,0.07679,-0.02967,1.50447,0.00000,0.00000,0.00000,21,1,61,12,62,-12,64,-2,ok,2,0,0.003,10,1.12,0.60,10.06,59,0.000,8.11
10.1980,0.07679,-0.02967,1.50447,0.00000,0.00000,0.00000,19,3,61,12,59,-13,64,-1,ok,2,0,0.003,10,1.12,0.60,10.06,59,0.013,8.11
10.2106,0.07679,-0.02967,1.50447,0.00000,0.00000,0.00000,16,6,62,13,57,-14,65,-1,ok,2,0,0.003,10,1.12,0.60,10.06,59,0.026,8.11
10.2308,0.07679,-0.02967,1.50447,0.00000,0.00000,0.00000,15,10,62,14,54,-13,66,0,ok,2,0,0.003,10,1.12,0.60,10.06,59,0.039,8.11
10.2356,0.07679,-0.02967,1.50447,0.00000,0.00000,0.00000,13,12,63,15,51,-12,66,-1,ok,2,0,0.003,10,1.12,0.60,10.06,59,0.051,8.11
10.2482,0.07679,-0.02967,1.50447,0.00000,0.00000,0.00000,15,13,63,16,49,-12,67,0,ok,2,0,0.003,10,1.12,0.60,10.06,59,0.064,8.11
10.2708,0.07679,-0.02967,1.50447,0.00000,0.00000,0.00000,15,13,63,17,46,-11,68,0,ok,2,0,0.003,10,1.12,0.60,10.06,59,0.076,8.11
10.2742,0.07679,-0.02967,1.50447,0.00000,0.00000,0.00000,16,12,64,17,44,-11,69,1,ok,2,0,0.003,10,1.12,0.60,10.06,59,0.089,8.11
10.2865,0.07679,-0.02967,1.50447,0.00000,0.00000,0.00000,17,12,64,18,40,-9,70,1,ok,2,0,0.003,10,1.12,0.60,10.06,59,0.102,8.11
10.3068,0.07679,-0.02967,1.50447,0.00000,0.00000,0.00000,18,11,65,19,38,-9,70,2,ok,2,0,0.003,10,1.12,0.60,10.06,59,0.115,8.11
10.3115,0.07679,-0.02967,1.50447,0.00000,0.00000,0.00000,20,10,65,20,34,-7,70,3,ok,2,0,0.003,10,1.12,0.60,10.06,59,0.127,8.11
10.3242,0.07679,-0.02967,1.50447,0.00000,0.00000,0.00000,20,10,65,21,33,-6,71,3,ok,2,0,0.003,10,1.12,0.60,10.06,59,0.139,8.11
10.3469,0.07679,-0.02967,1.50447,0.00000,0.00000,0.00000,23,9,65,22,31,-5,71,5,ok,0,0,0.003,10,1.12,0.60,10.06,59,0.152,8.11
10.3500,0.07679,-0.02967,1.50447,0.00000,0.00000,0.00000,24,8,65,23,28,-1,72,5,ok,0,0,0.003,10,1.12,0.60,10.06,59,0.165,8.11
10.3625,0.07679,-0.02967,1.50447,0.00000,0.00000,0.00000,25,7,65,23,27,1,72,7,ok,0,0,0.003,10,1.12,0.60,10.06,59,0.178,8.11
10.3828,0.07679,-0.02967,1.50447,0.00000,0.00000,0.00000,26,6,65,25,26,4,72,8,ok,0,0,0.003,10,1.12,0.60,10.06,59,0.191,8.11
10.3878,0.08378,0.06283,1.50796,0.00000,0.00000,0.00000,28,6,65,25,25,7,73,9,ok,0,0,0.003,10,1.71,1.16,10.48,60,0.000,8.11
10.4001,0.08378,0.06283,1.50796,0.00000,0.00000,0.00000,29,6,64,28,27,6,73,10,ok,0,0,0.003,10,1.71,1.16,10.48,60,0.013,8.11
10.4228,0.08378,0.06283,1.50796,0.00000,0.00000,0.00000,30,5,63,29,28,6,73,12,ok,0,0,0.003,10,1.71,1.16,10.48,60,0.025,8.11
10.4260,0.08378,0.06283,1.50796,0.00000,0.00000,0.00000,31,4,64,28,29,4,73,13,ok,0,0,0.003,10,1.71,1.16,10.48,60,0.038,8.11
10.4385,0.08378,0.06283,1.50796,0.00000,0.00000,0.00000,33,3,67,25,30,3,74,15,ok,0,0,0.003,10,1.71,1.16,10.48,60,0.051,8.11
10.4588,0.08378,0.06283,1.50796,0.00000,0.00000,0.00000,34,3,69,21,31,3,74,16,ok,0,0,0.003,10,1.71,1.16,10.48,60,0.063,8.11
10.4638,0.08378,0.06283,1.50796,0.00000,0.00000,0.00000,35,2,70,18,32,3,73,18,ok,0,0,0.003,10,1.71,1.16,10.48,60,0.076,8.11
10.4761,0.08378,0.06283,1.50796,0.00000,0.00000,0.00000,37,2,71,15,33,2,73,20,ok,0,0,0.003,10,1.71,1.16,10.48,60,0.088,8.11
10.4988,0.08378,0.06283,1.50796,0.00000,0.00000,0.00000,38,1,70,15,36,2,74,20,ok,0,0,0.003,10,1.71,1.16,10.48,60,0.101,8.11
10.5019,0.08378,0.06283,1.50796,0.00000,0.00000,0.00000,40,1,70,11,36,2,73,23,ok,0,0,0.003,10,1.71,1.16,10.48,60,0.114,8.11
10.5148,0.08378,0.06283,1.50796,0.00000,0.00000,0.00000,41,1,70,8,38,3,73,24,ok,0,0,0.003,10,1.71,1.16,10.48,60,0.127,8.11
10.5349,0.08378,0.06283,1.50796,0.00000,0.00000,0.00000,42,1,69,6,39,2,73,25,ok,0,0,0.003,10,1.71,1.16,10.48,60,0.139,8.11
10.5396,0.08378,0.06283,1.50796,0.00000,0.00000,0.00000,44,0,69,3,40,3,73,27,ok,0,0,0.003,10,1.71,1.16,10.48,60,0.152,8.11
10.5522,0.08378,0.06283,1.50796,0.00000,0.00000,0.00000,45,0,68,1,42,2,73,28,ok,0,0,0.003,10,1.71,1.16,10.48,60,0.164,8.11
10.5748,0.08378,0.06283,1.50796,0.00000,0.00000,0.00000,47,0,67,0,43,2,73,29,ok,0,0,0.003,10,1.71,1.16,10.48,60,0.177,8.11
10.5782,-0.04887,-0.02618,1.46433,0.00000,0.00000,0.00000,47,0,64,-1,44,1,74,29,ok,0,0,0.003,10,-0.93,-1.38,10.13,61,0.000,8.11
10.5907,-0.04887,-0.02618,1.46433,0.00000,0.00000,0.00000,48,0,64,-3,45,0,75,29,ok,0,0,0.003,10,-0.93,-1.38,10.13,61,0.013,8.11
10.6108,-0.04887,-0.02618,1.46433,0.00000,0.00000,0.00000,50,0,63,-5,47,0,77,27,ok,0,0,0.003,10,-0.93,-1.38,10.13,61,0.025,8.11
10.6156,-0.04887,-0.02618,1.46433,0.00000,0.00000,0.00000,51,1,61,-6,47,0,79,21,ok,0,0,0.003,10,-0.93,-1.38,10.13,61,0.038,8.11
10.6282,-0.04887,-0.02618,1.46433,0.00000,0.00000,0.00000,52,1,58,-7,48,0,80,18,ok,2,0,0.003,10,-0.93,-1.38,10.13,61,0.050,8.11
10.6509,-0.04887,-0.02618,1.46433,0.00000,0.00000,0.00000,52,1,56,-8,49,0,82,14,ok,2,0,0.003,10,-0.93,-1.38,10.13,61,0.063,8.11
10.6541,-0.04887,-0.02618,1.46433,0.00000,0.00000,0.00000,52,3,54,-9,51,0,82,14,ok,2,0,0.003,10,-0.93,-1.38,10.13,61,0.076,8.11
10.6665,-0.04887,-0.02618,1.46433,0.00000,0.00000,0.00000,53,4,51,-8,52,0,82,11,ok,2,0,0.003,10,-0.93,-1.38,10.13,61,0.089,8.11
10.6868,-0.04887,-0.02618,1.46433,0.00000,0.00000,0.00000,54,4,48,-9,53,1,81,8,ok,2,0,0.003,11,-0.93,-1.38,10.13,61,0.101,8.11
10.6916,-0.04887,-0.02618,1.46433,0.00000,0.00000,0.00000,55,5,46,-8,54,1,81,4,ok,2,0,0.003,11,-0.93,-1.38,10.13,61,0.114,8.11
10.7041,-0.04887,-0.02618,1.46433,0.00000,0.00000,0.00000,55,6,43,-8,55,1,80,3,ok,2,0,0.003,11,-0.93,-1.38,10.13,61,0.126,8.11
10.7269,-0.04887,-0.02618,1.46433,0.00000,0.00000,0.00000,57,6,41,-9,56,1,79,-1,ok,2,0,0.003,11,-0.93,-1.38,10.13,61,0.139,8.11
10.7301,-0.04887,-0.02618,1.46433,0.00000,0.00000,0.00000,57,6,38,-8,57,1,78,-3,ok,2,0,0.003,11,-0.93,-1.38,10.13,61,0.152,8.11
10.7425,-0.04887,-0.02618,1.46433,0.00000,0.00000,0.00000,59,7,35,-7,57,1,77,-4,ok,2,0,0.003,11,-0.93,-1.38,10.13,61,0.165,8.11
10.7628,-0.04887,-0.02618,1.46433,0.00000,0.00000,0.00000,59,8,32,-5,58,2,75,-6,ok,2,0,0.003,11,-0.93,-1.38,10.13,61,0.177,8.11
10.7676,-0.04887,-0.02618,1.46433,0.00000,0.00000,0.00000,60,8,28,-5,59,2,72,-7,ok,2,0,0.003,11,-0.93,-1.38,10.13,61,0.190,8.11
10.7805,-0.04887,-0.02618,1.46433,0.00000,0.00000,0.00000,61,9,26,-3,60,2,71,-9,ok,2,0,0.003,11,-0.93,-1.38,10.13,61,0.202,8.11
10.8029,-0.11868,-0.03316,1.63188,0.00000,0.00000,0.00000,62,10,21,-1,61,1,70,-10,ok,2,0,0.003,11,-0.19,-1.08,9.35,62,0.000,8.11
10.8060,-0.11868,-0.03316,1.63188,0.00000,0.00000,0.00000,63,10,19,1,63,-1,68,-11,ok,2,0,0.003,11,-0.19,-1.08,9.35,62,0.013,8.11
10.8185,-0.11868,-0.03316,1.63188,0.00000,0.00000,0.00000,64,11,18,2,64,0,65,-12,ok,2,0,0.003,11,-0.19,-1.08,9.35,62,0.026,8.11
10.8388,-0.11868,-0.03316,1.63188,0.00000,0.00000,0.00000,64,12,16,4,64,0,64,-13,ok,2,0,0.003,11,-0.19,-1.08,9.35,62,0.038,8.11
10.8436,-0.11868,-0.03316,1.63188,0.00000,0.00000,0.00000,65,12,14,7,65,0,61,-13,ok,2,0,0.003,11,-0.19,-1.08,9.35,62,0.051,8.11
10.8561,-0.11868,-0.03316,1.63188,0.00000,0.00000,0.00000,65,14,12,11,65,1,59,-14,ok,2,0,0.003,11,-0.19,-1.08,9.35,62,0.063,8.11
10.8788,-0.11868,-0.03316,1.63188,0.00000,0.00000,0.00000,66,14,10,13,66,1,56,-12,ok,2,0,0.003,11,-0.19,-1.08,9.35,62,0.076,8.11
10.8820,-0.11868,-0.03316,1.63188,0.00000,0.00000,0.00000,66,15,12,13,66,1,54,-12,ok,2,0,0.003,11,-0.19,-1.08,9.35,62,0.089,8.11
10.8945,-0.11868,-0.03316,1.63188,0.00000,0.00000,0.00000,66,16,12,13,68,1,51,-11,ok,2,0,0.003,11,-0.19,-1.08,9.35,62,0.102,8.11
10.9148,-0.11868,-0.03316,1.63188,0.00000,0.00000,0.00000,67,16,14,12,68,2,48,-11,ok,2,0,0.003,11,-0.19,-1.08,9.35,62,0.114,8.11
10.9196,-0.11868,-0.03316,1.63188,0.00000,0.00000,0.00000,67,17,15,11,68,3,45,-10,ok,2,0,0.003,11,-0.19,-1.08,9.35,62,0.127,8.11
10.9321,-0.11868,-0.03316,1.63188,0.00000,0.00000,0.00000,67,18,15,11,68,3,42,-9,ok,2,0,0.003,11,-0.19,-1.08,9.35,62,0.139,8.11
10.9549,-0.11868,-0.03316,1.63188,0.00000,0.00000,0.00000,68,19,17,10,69,4,40,-8,ok,2,0,0.003,11,-0.19,-1.08,9.35,62,0.152,8.11
10.9582,-0.11868,-0.03316,1.63188,0.00000,0.00000,0.00000,68,20,17,9,69,5,36,-6,ok,2,0,0.003,11,-0.19,-1.08,9.35,62,0.165,8.11
10.9706,-0.11868,-0.03316,1.63188,0.00000,0.00000,0.00000,69,21,19,8,70,5,35,-5,ok,2,0,0.003,11,-0.19,-1.08,9.35,62,0.178,8.11
10.9909,-0.11868,-0.03316,1.63188,0.00000,0.00000,0.00000,69,22,21,7,70,6,32,-3,ok,2,0,0.003,11,-0.19,-1.08,9.35,62,0.190,8.11
10.9959,0.04712,-0.06632,1.66679,0.00000,0.00000,0.00000,68,23,22,7,70,8,30,0,ok,2,0,0.003,11,-0.60,0.55,9.45,63,0.000,8.11
11.0082,0.04712,-0.06632,1.66679,0.00000,0.00000,0.00000,68,24,23,6,71,9,29,2,ok,2,0,0.003,11,-0.60,0.55,9.45,63,0.013,8.11
11.0308,0.04712,-0.06632,1.66679,0.00000,0.00000,0.00000,68,25,25,6,71,10,28,5,ok,2,0,0.003,11,-0.60,0.55,9.45,63,0.025,8.11
11.0341,0.04712,-0.06632,1.66679,0.00000,0.00000,0.00000,67,28,26,5,71,11,27,7,ok,2,0,0.003,11,-0.60,0.55,9.45,63,0.038,8.11
11.0465,0.04712,-0.06632,1.66679,0.00000,0.00000,0.00000,66,29,27,4,70,12,29,6,ok,2,0,0.003,11,-0.60,0.55,9.45,63,0.051,8.11
11.0668,0.04712,-0.06632,1.66679,0.00000,0.00000,0.00000,67,28,28,4,71,13,29,6,ok,2,0,0.003,11,-0.60,0.55,9.45,63,0.063,8.11
11.0716,0.04712,-0.06632,1.66679,0.00000,0.00000,0.00000,70,25,30,3,71,15,31,4,ok,2,0,0.003,11,-0.60,0.55,9.45,63,0.076,8.11
11.0842,0.04712,-0.06632,1.66679,0.00000,0.00000,0.00000,72,21,31,3,71,16,32,3,ok,2,0,0.003,11,-0.60,0.55,9.45,63,0.088,8.11
11.1068,0.04712,-0.06632,1.66679,0.00000,0.00000,0.00000,73,17,32,3,70,18,33,3,ok,2,0,0.003,11,-0.60,0.55,9.45,63,0.101,8.11
11.1100,0.04712,-0.06632,1.66679,0.00000,0.00000,0.00000,74,15,33,2,71,18,35,2,ok,2,0,0.003,11,-0.60,0.55,9.45,63,0.114,8.11
11.1226,0.04712,-0.06632,1.66679,0.00000,0.00000,0.00000,73,14,35,2,70,21,37,2,ok,2,0,0.003,11,-0.60,0.55,9.45,63,0.127,8.11
11.1428,0.04712,-0.06632,1.66679,0.00000,0.00000,0.00000,73,11,36,2,70,22,39,2,ok,2,0,0.003,11,-0.60,0.55,9.45,63,0.139,8.11
11.1477,0.04712,-0.06632,1.66679,0.00000,0.00000,0.00000,73,7,38,3,70,24,39,2,ok,2,0,0.003,11,-0.60,0.55,9.45,63,0.152,8.11
11.1602,0.04712,-0.06632,1.66679,0.00000,0.00000,0.00000,72,5,39,3,70,25,41,2,ok,2,0,0.003,11,-0.60,0.55,9.45,63,0.165,8.11
11.1828,0.04712,-0.06632,1.66679,0.00000,0.00000,0.00000,71,1,40,2,69,27,43,2,ok,2,0,0.003,11,-0.60,0.55,9.45,63,0.177,8.11
11.1860,0.04712,-0.06632,1.66679,0.00000,0.00000,0.00000,70,-1,41,2,69,29,43,2,ok,2,0,0.003,11,-0.60,0.55,9.45,63,0.190,8.11
11.1988,0.06458,0.04887,1.67377,0.00000,0.00000,0.00000,69,-3,43,2,70,29,44,1,ok,2,0,0.003,11,1.60,0.37,9.94,64,0.000,8.11
11.2188,0.06458,0.04887,1.67377,0.00000,0.00000,0.00000,66,-4,43,2,71,29,45,1,ok,2,0,0.003,11,1.60,0.37,9.94,64,0.013,8.11
11.2235,0.06458,0.04887,1.67377,0.00000,0.00000,0.00000,65,-6,45,3,73,27,47,0,ok,2,0,0.003,11,1.60,0.37,9.94,64,0.025,8.11
11.2361,0.06458,0.04887,1.67377,0.00000,0.00000,0.00000,64,-8,46,3,75,22,48,0,ok,2,0,0.003,11,1.60,0.37,9.94,64,0.037,8.11
11.2589,0.06458,0.04887,1.67377,0.00000,0.00000,0.00000,62,-9,47,4,76,17,49,1,ok,2,0,0.003,11,1.60,0.37,9.94,64,0.050,8.11
11.2620,0.06458,0.04887,1.67377,0.00000,0.00000,0.00000,60,-10,48,3,78,15,50,1,ok,2,0,0.003,11,1.60,0.37,9.94,64,0.063,8.11
11.2745,0.06458,0.04887,1.67377,0.00000,0.00000,0.00000,58,-10,49,3,78,14,50,1,ok,2,0,0.003,11,1.60,0.37,9.94,64,0.076,8.11
11.2948,0.06458,0.04887,1.67377,0.00000,0.00000,0.00000,55,-11,49,5,78,12,52,1,ok,2,0,0.003,11,1.60,0.37,9.94,64,0.089,8.11
11.2996,0.06458,0.04887,1.67377,0.00000,0.00000,0.00000,53,-11,51,6,78,8,53,1,ok,2,0,0.003,11,1.60,0.37,9.94,64,0.101,8.11
11.3121,0.06458,0.04887,1.67377,0.00000,0.00000,0.00000,50,-11,51,6,78,5,54,1,ok,2,0,0.003,11,1.60,0.37,9.94,64,0.114,8.11
11.3348,0.06458,0.04887,1.67377,0.00000,0.00000,0.00000,48,-11,52,7,77,3,55,0,ok,2,0,0.003,11,1.60,0.37,9.94,64,0.126,8.11
11.3380,0.06458,0.04887,1.67377,0.00000,0.00000,0.00000,45,-11,53,7,76,0,55,1,ok,2,0,0.003,11,1.60,0.37,9.94,64,0.139,8.11
11.3505,0.06458,0.04887,1.67377,0.00000,0.00000,0.00000,43,-11,55,7,76,-2,56,0,ok,2,0,0.003,11,1.60,0.37,9.94,64,0.152,8.11
11.3708,0.06458,0.04887,1.67377,0.00000,0.00000,0.00000,41,-10,55,7,74,-4,57,1,ok,2,0,0.003,11,1.60,0.37,9.94,64,0.165,8.11
11.3757,0.06458,0.04887,1.67377,0.00000,0.00000,0.00000,37,-9,56,8,73,-7,58,0,ok,2,0,0.003,11,1.60,0.37,9.94,64,0.177,8.11
11.3881,0.06458,0.04887,1.67377,0.00000,0.00000,0.00000,35,-8,57,9,70,-6,58,0,ok,2,0,0.003,11,1.60,0.37,9.94,64,0.189,8.11
11.4108,0.08727,-0.02618,1.66853,0.00000,0.00000,0.00000,31,-6,57,9,69,-8,59,1,ok,2,0,0.003,11,0.00,0.80,9.58,65,0.000,8.11
11.4139,0.08727,-0.02618,1.66853,0.00000,0.00000,0.00000,29,-4,58,9,68,-10,60,1,ok,2,0,0.003,11,0.00,0.80,9.58,65,0.013,8.11
11.4265,0.08727,-0.02618,1.66853,0.00000,0.00000,0.00000,24,-2,59,11,65,-11,61,1,ok,2,0,0.003,11,0.00,0.80,9.58,65,0.026,8.11
11.4468,0.08727,-0.02618,1.66853,0.00000,0.00000,0.00000,23,-1,60,11,63,-12,62,0,ok,2,0,0.003,11,0.00,0.80,9.58,65,0.039,8.11
11.4516,0.08727,-0.02618,1.66853,0.00000,0.00000,0.00000,21,1,61,12,62,-12,64,-2,ok,2,0,0.003,11,0.00,0.80,9.58,65,0.051,8.11
11.4641,0.08727,-0.02618,1.66853,0.00000,0.00000,0.00000,19,3,62,12,59,-13,64,-1,ok,2,0,0.003,11,0.00,0.80,9.58,65,0.064,8.11
11.4868,0.08727,-0.02618,1.66853,0.00000,0.00000,0.00000,17,7,62,13,57,-14,65,-1,ok,2,0,0.003,11,0.00,0.80,9.58,65,0.076,8.11
11.4901,0.08727,-0.02618,1.66853,0.00000,0.00000,0.00000,15,10,62,14,54,-13,66,0,ok,2,0,0.003,11,0.00,0.80,9.58,65,0.089,8.11
11.5025,0.08727,-0.02618,1.66853,0.00000,0.00000,0.00000,13,13,63,15,51,-12,66,-1,ok,2,0,0.003,11,0.00,0.80,9.58,65,0.102,8.11
11.5228,0.08727,-0.02618,1.66853,0.00000,0.00000,0.00000,15,13,63,16,49,-12,67,0,ok,2,0,0.003,11,0.00,0.80,9.58,65,0.115,8.11
11.5276,0.08727,-0.02618,1.66853,0.00000,0.00000,0.00000,15,13,63,17,46,-11,68,0,ok,2,0,0.003,11,0.00,0.80,9.58,65,0.127,8.11
11.5403,0.08727,-0.02618,1.66853,0.00000,0.00000,0.00000,16,12,64,17,43,-11,69,1,ok,2,0,0.003,11,0.00,0.80,9.58,65,0.140,8.11
11.5629,0.08727,-0.02618,1.66853,0.00000,0.00000,0.00000,18,12,64,19,40,-9,70,1,ok,2,0,0.003,11,0.00,0.80,9.58,65,0.152,8.11
11.5659,0.08727,-0.02618,1.66853,0.00000,0.00000,0.00000,18,11,65,19,37,-9,70,2,ok,2,0,0.003,11,0.00,0.80,9.58,65,0.165,8.11
11.5786,0.08727,-0.02618,1.66853,0.00000,0.00000,0.00000,20,10,65,20,34,-7,70,3,ok,2,0,0.003,11,0.00,0.80,9.58,65,0.178,8.11
11.5989,0.08727,-0.02618,1.66853,0.00000,0.00000,0.00000,21,10,65,21,32,-6,71,3,ok,2,0,0.003,11,0.00,0.80,9.58,65,0.191,8.11
11.6038,0.01396,0.02094,1.69646,0.00000,0.00000,0.00000,23,8,65,22,31,-4,72,5,ok,0,0,0.003,11,0.76,-0.65,9.56,66,0.000,8.11
11.6161,0.01396,0.02094,1.69646,0.00000,0.00000,0.00000,24,8,65,23,28,-1,72,5,ok,0,0,0.003,11,0.76,-0.65,9.56,66,0.013,8.11
11.6388,0.01396,0.02094,1.69646,0.00000,0.00000,0.00000,26,7,65,23,27,1,72,7,ok,0,0,0.003,11,0.76,-0.65,9.56,66,0.025,8.11
11.6419,0.01396,0.02094,1.69646,0.00000,0.00000,0.00000,27,6,64,25,26,4,72,8,ok,0,0,0.003,11,0.76,-0.65,9.56,66,0.038,8.11
11.6547,0.01396,0.02094,1.69646,0.00000,0.00000,0.00000,28,6,64,25,25,7,73,9,ok,0,0,0.003,11,0.76,-0.65,9.56,66,0.051,8.11
11.6748,0.01396,0.02094,1.69646,0.00000,0.00000,0.00000,29,5,63,28,27,6,73,10,ok,0,0,0.003,11,0.76,-0.65,9.56,66,0.063,8.11
11.6796,0.01396,0.02094,1.69646,0.00000,0.00000,0.00000,30,4,63,29,28,6,73,12,ok,0,0,0.003,11,0.76,-0.65,9.56,66,0.076,8.11
11.6921,0.01396,0.02094,1.69646,0.00000,0.00000,0.00000,32,4,64,28,29,4,73,13,ok,0,0,0.003,12,0.76,-0.65,9.56,66,0.088,8.11
11.7149,0.01396,0.02094,1.69646,0.00000,0.00000,0.00000,33,3,67,25,30,3,74,15,ok,0,0,0.003,12,0.76,-0.65,9.56,66,0.101,8.11
11.7182,0.01396,0.02094,1.69646,0.00000,0.00000,0.00000,34,3,69,21,31,3,74,16,ok,0,0,0.003,12,0.76,-0.65,9.56,66,0.114,8.11
11.7306,0.01396,0.02094,1.69646,0.00000,0.00000,0.00000,35,2,70,18,32,3,73,18,ok,0,0,0.003,12,0.76,-0.65,9.56,66,0.127,8.11
11.7509,0.01396,0.02094,1.69646,0.00000,0.00000,0.00000,37,2,71,16,34,2,73,20,ok,0,0,0.003,12,0.76,-0.65,9.56,66,0.140,8.11
11.7556,0.01396,0.02094,1.69646,0.00000,0.00000,0.00000,38,1,71,15,36,2,74,21,ok,0,0,0.003,12,0.76,-0.65,9.56,66,0.152,8.11
11.7681,0.01396,0.02094,1.69646,0.00000,0.00000,0.00000,40,1,71,11,36,2,73,23,ok,0,0,0.003,12,0.76,-0.65,9.56,66,0.164,8.11
11.7908,0.01396,0.02094,1.69646,0.00000,0.00000,0.00000,41,1,70,9,38,2,73,24,ok,0,0,0.003,12,0.76,-0.65,9.56,66,0.177,8.11
11.7941,0.01396,0.02094,1.69646,0.00000,0.00000,0.00000,42,1,70,6,40,2,73,25,ok,0,0,0.003,12,0.76,-0.65,9.56,66,0.190,8.11
11.8068,-0.03491,-0.01396,1.64410,0.00000,0.00000,0.00000,44,0,69,3,40,2,73,27,ok,0,0,0.003,12,-0.68,-1.28,9.01,67,0.000,8.11
11.8268,-0.03491,-0.01396,1.64410,0.00000,0.00000,0.00000,45,0,68,1,42,1,73,28,ok,0,0,0.003,12,-0.68,-1.28,9.01,67,0.013,8.11
11.8315,-0.03491,-0.01396,1.64410,0.00000,0.00000,0.00000,47,0,67,0,43,1,72,30,ok,0,0,0.003,12,-0.68,-1.28,9.01,67,0.025,8.11
11.8441,-0.03491,-0.01396,1.64410,0.00000,0.00000,0.00000,47,0,65,-1,44,0,73,30,ok,0,0,0.003,12,-0.68,-1.28,9.01,67,0.038,8.11
11.8668,-0.03491,-0.01396,1.64410,0.00000,0.00000,0.00000,48,0,64,-3,45,0,75,29,ok,0,0,0.003,12,-0.68,-1.28,9.01,67,0.050,8.11
11.8700,-0.03491,-0.01396,1.64410,0.00000,0.00000,0.00000,50,0,63,-6,47,0,76,27,ok,0,0,0.003,12,-0.68,-1.28,9.01,67,0.063,8.11
11.8825,-0.03491,-0.01396,1.64410,0.00000,0.00000,0.00000,51,2,61,-6,47,0,78,21,ok,0,0,0.003,12,-0.68,-1.28,9.01,67,0.076,8.11
11.9028,-0.03491,-0.01396,1.64410,0.00000,0.00000,0.00000,52,1,58,-8,48,0,79,17,ok,0,0,0.003,12,-0.68,-1.28,9.01,67,0.089,8.11
11.9075,-0.03491,-0.01396,1.64410,0.00000,0.00000,0.00000,52,1,56,-8,49,0,81,14,ok,2,0,0.003,12,-0.68,-1.28,9.01,67,0.101,8.11
11.9201,-0.03491,-0.01396,1.64410,0.00000,0.00000,0.00000,52,3,54,-9,51,0,81,14,ok,2,0,0.003,12,-0.68,-1.28,9.01,67,0.114,8.11
11.9428,-0.03491,-0.01396,1.64410,0.00000,0.00000,0.00000,53,4,51,-9,52,1,81,11,ok,2,0,0.003,12,-0.68,-1.28,9.01,67,0.126,8.11
11.9459,-0.03491,-0.01396,1.64410,0.00000,0.00000,0.00000,54,4,48,-9,53,1,81,7,ok,2,0,0.003,12,-0.68,-1.28,9.01,67,0.139,8.11
11.9585,-0.03491,-0.01396,1.64410,0.00000,0.00000,0.00000,55,5,46,-8,54,1,80,4,ok,2,0,0.003,12,-0.68,-1.28,9.01,67,0.152,8.11
11.9788,-0.03491,-0.01396,1.64410,0.00000,0.00000,0.00000,55,6,43,-8,55,1,80,3,ok,2,0,0.003,12,-0.68,-1.28,9.01,67,0.165,8.11
11.9836,-0.03491,-0.01396,1.64410,0.00000,0.00000,0.00000,57,6,41,-9,56,2,79,-1,ok,2,0,0.003,12,-0.68,-1.28,9.01,67,0.177,8.11
11.9961,-0.03491,-0.01396,1.64410,0.00000,0.00000,0.00000,58,6,38,-8,57,1,79,-3,ok,2,0,0.003,12,-0.68,-1.28,9.01,67,0.189,8.11
12.0189,-0.07330,-0.01571,1.71042,0.00000,0.00000,0.00000,59,7,35,-7,57,1,77,-4,ok,2,0,0.003,12,0.45,-0.70,10.75,68,0.000,8.11
12.0220,-0.07330,-0.01571,1.71042,0.00000,0.00000,0.00000,59,8,32,-5,58,2,75,-6,ok,2,0,0.003,12,0.45,-0.70,10.75,68,0.013,8.11
12.0345,-0.07330,-0.01571,1.71042,0.00000,0.00000,0.00000,60,8,28,-4,59,2,73,-6,ok,2,0,0.003,12,0.45,-0.70,10.75,68,0.026,8.11
12.0548,-0.07330,-0.01571,1.71042,0.00000,0.00000,0.00000,61,9,25,-3,60,2,71,-8,ok,2,0,0.003,12,0.45,-0.70,10.75,68,0.039,8.11
12.0597,-0.07330,-0.01571,1.71042,0.00000,0.00000,0.00000,63,10,21,-1,61,1,70,-10,ok,2,0,0.003,12,0.45,-0.70,10.75,68,0.051,8.11
12.0722,-0.07330,-0.01571,1.71042,0.00000,0.00000,0.00000,63,10,19,1,63,-1,68,-11,ok,2,0,0.003,12,0.45,-0.70,10.75,68,0.064,8.11
12.0948,-0.07330,-0.01571,1.71042,0.00000,0.00000,0.00000,64,11,18,2,64,0,66,-12,ok,2,0,0.003,12,0.45,-0.70,10.75,68,0.076,8.11
12.0980,-0.07330,-0.01571,1.71042,0.00000,0.00000,0.00000,64,12,16,4,64,1,64,-13,ok,2,0,0.003,12,0.45,-0.70,10.75,68,0.089,8.11
12.1107,-0.07330,-0.01571,1.71042,0.00000,0.00000,0.00000,65,12,14,7,65,1,61,-13,ok,2,0,0.003,12,0.45,-0.70,10.75,68,0.102,8.11
12.1308,-0.07330,-0.01571,1.71042,0.00000,0.00000,0.00000,65,14,12,11,65,1,59,-14,ok,2,0,0.003,12,0.45,-0.70,10.75,68,0.115,8.11
12.1355,-0.07330,-0.01571,1.71042,0.00000,0.00000,0.00000,66,14,10,13,66,1,56,-12,ok,2,0,0.003,12,0.45,-0.70,10.75,68,0.127,8.11
12.1481,-0.07330,-0.01571,1.71042,0.00000,0.00000,0.00000,66,15,12,13,67,1,54,-12,ok,2,0,0.003,12,0.45,-0.70,10.75,68,0.140,8.11
12.1709,-0.07330,-0.01571,1.71042,0.00000,0.00000,0.00000,66,16,12,13,68,2,51,-11,ok,2,0,0.003,12,0.45,-0.70,10.75,68,0.152,8.11
12.1739,-0.07330,-0.01571,1.71042,0.00000,0.00000,0.00000,67,17,13,12,68,2,48,-11,ok,2,0,0.003,12,0.45,-0.70,10.75,68,0.165,8.11
12.1865,-0.07330,-0.01571,1.71042,0.00000,0.00000,0.00000,67,18,15,11,68,3,46,-10,ok,2,0,0.003,12,0.45,-0.70,10.75,68,0.178,8.11
12.2109,-0.07330,-0.01571,1.71042,0.00000,0.00000,0.00000,68,18,15,11,68,3,42,-9,ok,2,0,0.003,12,0.45,-0.70,10.75,68,0.191,8.11
12.2142,0.04189,0.00175,1.72613,0.00000,0.00000,0.00000,68,19,17,9,69,4,40,-8,ok,2,0,0.003,12,-0.50,0.24,9.46,69,0.000,8.11
12.2266,0.04189,0.00175,1.72613,0.00000,0.00000,0.00000,68,20,17,9,69,5,36,-6,ok,2,0,0.003,12,-0.50,0.24,9.46,69,0.013,8.11
12.2468,0.04189,0.00175,1.72613,0.00000,0.00000,0.00000,69,21,19,8,70,6,35,-5,ok,2,0,0.003,12,-0.50,0.24,9.46,69,0.025,8.11
