# run_gait log  cmd_fwd=0.100 hz=80.0 fw_balance=off policy_yaw_sign=-1
t,roll,pitch,yaw,gx,gy,gz,j0,j1,j2,j3,j4,j5,j6,j7,guard_state,hottest_j,hottest_tier,hottest_frac,duty_s,ax,ay,az,imu_n,imu_age_s,volt
0.0309,-0.02443,0.02094,0.00000,0.00000,0.00000,0.00000,21,-1,59,7,66,-12,61,0,ok,4,0,0.000,0,0.18,-0.30,10.00,9,0.021,nan
0.0344,-0.02443,0.02094,0.00000,0.00000,0.00000,0.00000,19,0,61,8,64,-12,63,-1,ok,4,0,0.000,0,0.18,-0.30,10.00,9,0.043,nan
0.0473,-0.02443,0.02094,0.00000,0.00000,0.00000,0.00000,17,2,61,9,61,-13,64,0,ok,4,0,0.000,0,0.18,-0.30,10.00,9,0.055,8.19
0.0668,-0.02443,0.02094,0.00000,0.00000,0.00000,0.00000,15,6,62,9,59,-13,64,0,ok,4,0,0.000,0,0.18,-0.30,10.00,9,0.068,8.19
0.0718,-0.02443,0.02094,0.00000,0.00000,0.00000,0.00000,13,9,62,11,56,-13,65,1,ok,4,0,0.000,0,0.18,-0.30,10.00,9,0.080,8.19
0.0842,-0.02443,0.02094,0.00000,0.00000,0.00000,0.00000,11,11,63,11,53,-12,65,1,ok,4,0,0.000,0,0.18,-0.30,10.00,9,0.093,8.19
0.1069,-0.02443,0.02094,0.00000,0.00000,0.00000,0.00000,13,12,63,12,51,-12,66,2,ok,4,0,0.000,0,0.18,-0.30,10.00,9,0.105,8.19
0.1101,-0.02443,0.02094,0.00000,0.00000,0.00000,0.00000,13,11,63,13,48,-12,66,2,ok,4,0,0.000,0,0.18,-0.30,10.00,9,0.119,8.19
0.1227,-0.02443,0.02094,0.00000,0.00000,0.00000,0.00000,14,10,64,14,45,-12,66,3,ok,4,0,0.000,0,0.18,-0.30,10.00,9,0.131,8.19
0.1428,-0.02443,0.02094,0.00000,0.00000,0.00000,0.00000,15,9,64,15,42,-11,67,3,ok,4,0,0.000,0,0.18,-0.30,10.00,9,0.144,8.19
0.1476,-0.02443,0.02094,0.00000,0.00000,0.00000,0.00000,16,9,65,15,39,-10,68,4,ok,4,0,0.000,0,0.18,-0.30,10.00,9,0.156,8.19
0.1604,-0.01047,-0.06458,0.00000,0.00000,0.00000,0.00000,18,8,65,16,36,-8,68,4,ok,4,0,0.000,0,-2.21,-0.00,11.51,10,0.000,8.19
0.1828,-0.01047,-0.06458,0.00000,0.00000,0.00000,0.00000,19,7,65,17,34,-7,69,5,ok,4,0,0.000,0,-2.21,-0.00,11.51,10,0.013,8.19
0.1859,-0.01047,-0.06458,0.00000,0.00000,0.00000,0.00000,21,6,67,18,32,-6,69,6,ok,4,0,0.000,0,-2.21,-0.00,11.51,10,0.026,8.19
0.1986,-0.01047,-0.06458,0.00000,0.00000,0.00000,0.00000,22,5,67,19,30,-3,70,6,ok,4,0,0.000,0,-2.21,-0.00,11.51,10,0.038,8.19
0.2188,-0.01047,-0.06458,0.00000,0.00000,0.00000,0.00000,23,5,66,21,28,0,70,8,ok,4,0,0.000,0,-2.21,-0.00,11.51,10,0.051,8.19
0.2238,-0.01047,-0.06458,0.00000,0.00000,0.00000,0.00000,24,4,66,22,27,3,70,9,ok,4,0,0.000,0,-2.21,-0.00,11.51,10,0.063,8.19
0.2360,-0.01047,-0.06458,0.00000,0.00000,0.00000,0.00000,25,4,66,23,27,6,71,9,ok,4,0,0.000,0,-2.21,-0.00,11.51,10,0.076,8.19
0.2589,-0.01047,-0.06458,0.00000,0.00000,0.00000,0.00000,27,4,65,26,29,5,71,10,ok,4,0,0.000,0,-2.21,-0.00,11.51,10,0.088,8.19
0.2619,-0.01047,-0.06458,0.00000,0.00000,0.00000,0.00000,28,3,65,28,29,5,72,10,ok,4,0,0.000,0,-2.21,-0.00,11.51,10,0.102,8.19
0.2746,-0.01047,-0.06458,0.00000,0.00000,0.00000,0.00000,29,3,66,26,30,3,72,12,ok,4,0,0.000,0,-2.21,-0.00,11.51,10,0.115,8.19
0.2948,-0.01047,-0.06458,0.00000,0.00000,0.00000,0.00000,30,2,69,24,31,3,73,13,ok,4,0,0.000,0,-2.21,-0.00,11.51,10,0.127,8.19
0.2996,-0.01047,-0.06458,0.00000,0.00000,0.00000,0.00000,31,1,72,20,32,3,73,14,ok,4,0,0.000,0,-2.21,-0.00,11.51,10,0.140,8.19
0.3121,-0.01047,-0.06458,0.00000,0.00000,0.00000,0.00000,32,0,73,17,33,3,72,16,ok,4,0,0.000,0,-2.21,-0.00,11.51,10,0.152,8.19
0.3349,-0.01047,-0.06458,0.00000,0.00000,0.00000,0.00000,33,0,73,15,34,2,72,18,ok,4,0,0.000,0,-2.21,-0.00,11.51,10,0.165,8.19
0.3393,-0.01047,-0.06458,0.00000,0.00000,0.00000,0.00000,34,-1,73,15,37,2,74,19,ok,4,0,0.000,0,-2.21,-0.00,11.51,10,0.178,8.19
0.3517,-0.01047,-0.06458,0.00000,0.00000,0.00000,0.00000,36,-1,73,12,37,2,73,21,ok,4,0,0.000,0,-2.21,-0.00,11.51,10,0.191,8.19
0.3749,-0.15010,-0.08029,0.04014,0.00000,0.00000,0.00000,37,-1,73,9,39,2,72,22,ok,4,0,0.000,0,-0.95,-1.30,9.43,11,0.000,8.19
0.3791,-0.15010,-0.08029,0.04014,0.00000,0.00000,0.00000,38,-1,72,6,40,1,73,23,ok,4,0,0.000,0,-0.95,-1.30,9.43,11,0.015,8.19
0.3919,-0.15010,-0.08029,0.04014,0.00000,0.00000,0.00000,39,-2,72,4,41,1,72,26,ok,4,0,0.000,0,-0.95,-1.30,9.43,11,0.027,8.19
0.4149,-0.15010,-0.08029,0.04014,0.00000,0.00000,0.00000,40,-2,70,2,42,0,72,27,ok,4,0,0.000,0,-0.95,-1.30,9.43,11,0.040,8.19
0.4191,-0.15010,-0.08029,0.04014,0.00000,0.00000,0.00000,42,-2,69,0,43,-1,71,28,ok,4,0,0.000,0,-0.95,-1.30,9.43,11,0.055,8.19
0.4308,-0.15010,-0.08029,0.04014,0.00000,0.00000,0.00000,42,-2,67,-2,44,-1,72,28,ok,4,0,0.000,0,-0.95,-1.30,9.43,11,0.067,8.19
0.4508,-0.15010,-0.08029,0.04014,0.00000,0.00000,0.00000,44,-2,66,-3,46,-1,73,28,ok,4,0,0.000,0,-0.95,-1.30,9.43,11,0.080,8.19
0.4560,-0.15010,-0.08029,0.04014,0.00000,0.00000,0.00000,45,-2,65,-6,47,-1,75,26,ok,4,0,0.000,0,-0.95,-1.30,9.43,11,0.092,8.19
0.4682,-0.15010,-0.08029,0.04014,0.00000,0.00000,0.00000,47,0,63,-7,48,-2,77,20,ok,4,0,0.000,0,-0.95,-1.30,9.43,11,0.105,8.19
0.4908,-0.15010,-0.08029,0.04014,0.00000,0.00000,0.00000,48,0,61,-8,49,-2,78,17,ok,4,0,0.000,0,-0.95,-1.30,9.43,11,0.117,8.19
0.4939,-0.15010,-0.08029,0.04014,0.00000,0.00000,0.00000,49,0,58,-9,51,-1,79,14,ok,4,0,0.000,0,-0.95,-1.30,9.43,11,0.131,8.19
0.5068,-0.15010,-0.08029,0.04014,0.00000,0.00000,0.00000,49,2,55,-10,52,-1,79,13,ok,4,0,0.000,0,-0.95,-1.30,9.43,11,0.143,8.19
0.5268,-0.15010,-0.08029,0.04014,0.00000,0.00000,0.00000,51,4,52,-10,54,-1,79,11,ok,4,0,0.000,1,-0.95,-1.30,9.43,11,0.156,8.19
0.5316,-0.15010,-0.08029,0.04014,0.00000,0.00000,0.00000,51,4,49,-10,55,-1,79,7,ok,4,0,0.000,1,-0.95,-1.30,9.43,11,0.168,8.19
0.5440,-0.15010,-0.08029,0.04014,0.00000,0.00000,0.00000,52,5,47,-10,56,0,78,4,ok,4,0,0.000,1,-0.95,-1.30,9.43,11,0.181,8.19
0.5668,-0.15010,-0.08029,0.04014,0.00000,0.00000,0.00000,53,5,44,-10,57,0,78,2,ok,4,0,0.000,1,-0.95,-1.30,9.43,11,0.193,8.19
0.5702,-0.06632,0.07505,0.05585,0.00000,0.00000,0.00000,55,6,42,-10,58,1,77,-1,ok,4,0,0.000,1,0.67,-0.42,10.11,12,0.000,8.19
0.5827,-0.06632,0.07505,0.05585,0.00000,0.00000,0.00000,55,6,39,-9,59,0,77,-3,ok,4,0,0.000,1,0.67,-0.42,10.11,12,0.013,8.19
0.6029,-0.06632,0.07505,0.05585,0.00000,0.00000,0.00000,56,6,36,-8,59,1,76,-5,ok,4,0,0.000,1,0.67,-0.42,10.11,12,0.025,8.19
0.6076,-0.06632,0.07505,0.05585,0.00000,0.00000,0.00000,57,7,33,-7,60,2,74,-7,ok,4,0,0.000,1,0.67,-0.42,10.11,12,0.038,8.19
0.6202,-0.06632,0.07505,0.05585,0.00000,0.00000,0.00000,58,8,29,-6,60,1,71,-7,ok,2,0,0.000,1,0.67,-0.42,10.11,12,0.050,8.19
0.6428,-0.06632,0.07505,0.05585,0.00000,0.00000,0.00000,59,8,26,-4,61,1,70,-8,ok,2,0,0.000,1,0.67,-0.42,10.11,12,0.063,8.19
0.6459,-0.06632,0.07505,0.05585,0.00000,0.00000,0.00000,60,9,22,-2,62,1,69,-10,ok,2,0,0.000,1,0.67,-0.42,10.11,12,0.076,8.19
0.6585,-0.06632,0.07505,0.05585,0.00000,0.00000,0.00000,60,10,20,-1,64,-1,67,-11,ok,2,0,0.000,1,0.67,-0.42,10.11,12,0.089,8.19
0.6788,-0.06632,0.07505,0.05585,0.00000,0.00000,0.00000,61,10,19,0,65,0,64,-13,ok,2,0,0.000,1,0.67,-0.42,10.11,12,0.101,8.19
0.6836,-0.06632,0.07505,0.05585,0.00000,0.00000,0.00000,61,11,16,3,66,1,63,-13,ok,2,0,0.000,1,0.67,-0.42,10.11,12,0.114,8.19
0.6961,-0.06632,0.07505,0.05585,0.00000,0.00000,0.00000,62,12,14,6,67,0,60,-14,ok,2,0,0.000,1,0.67,-0.42,10.11,12,0.126,8.19
0.7189,-0.06632,0.07505,0.05585,0.00000,0.00000,0.00000,62,13,13,10,67,1,59,-14,ok,2,0,0.000,1,0.67,-0.42,10.11,12,0.139,8.19
0.7219,-0.06632,0.07505,0.05585,0.00000,0.00000,0.00000,62,13,11,12,68,1,55,-13,ok,2,0,0.000,1,0.67,-0.42,10.11,12,0.152,8.19
0.7346,-0.06632,0.07505,0.05585,0.00000,0.00000,0.00000,63,14,13,13,68,1,53,-12,ok,2,0,0.000,1,0.67,-0.42,10.11,12,0.165,8.19
0.7548,-0.06632,0.07505,0.05585,0.00000,0.00000,0.00000,63,16,12,13,69,1,50,-12,ok,2,0,0.000,1,0.67,-0.42,10.11,12,0.177,8.19
0.7599,-0.06632,0.07505,0.05585,0.00000,0.00000,0.00000,64,16,14,11,70,2,47,-11,ok,2,0,0.000,1,0.67,-0.42,10.11,12,0.190,8.19
0.7724,0.03840,0.01920,0.07505,0.00000,0.00000,0.00000,64,17,15,10,70,2,45,-10,ok,2,0,0.000,1,-0.49,0.97,10.50,13,0.000,8.19
0.7948,0.03840,0.01920,0.07505,0.00000,0.00000,0.00000,65,18,16,10,70,3,42,-9,ok,2,0,0.000,1,-0.49,0.97,10.50,13,0.012,8.19
0.7979,0.03840,0.01920,0.07505,0.00000,0.00000,0.00000,65,18,17,9,70,4,39,-9,ok,2,0,0.000,1,-0.49,0.97,10.50,13,0.026,8.19
0.8109,0.03840,0.01920,0.07505,0.00000,0.00000,0.00000,65,20,18,8,71,5,36,-7,ok,2,0,0.000,1,-0.49,0.97,10.50,13,0.038,8.19
0.8308,0.03840,0.01920,0.07505,0.00000,0.00000,0.00000,66,21,20,7,72,5,34,-5,ok,2,0,0.000,1,-0.49,0.97,10.50,13,0.051,8.19
0.8357,0.03840,0.01920,0.07505,0.00000,0.00000,0.00000,66,22,21,6,72,7,32,-4,ok,2,0,0.000,1,-0.49,0.97,10.50,13,0.063,8.19
0.8481,0.03840,0.01920,0.07505,0.00000,0.00000,0.00000,66,23,22,6,71,8,30,-1,ok,2,0,0.000,1,-0.49,0.97,10.50,13,0.076,8.19
0.8708,0.03840,0.01920,0.07505,0.00000,0.00000,0.00000,66,24,23,5,72,8,28,2,ok,2,0,0.000,1,-0.49,0.97,10.50,13,0.088,8.19
0.8739,0.03840,0.01920,0.07505,0.00000,0.00000,0.00000,66,25,25,5,72,9,27,5,ok,2,0,0.000,1,-0.49,0.97,10.50,13,0.102,8.19
0.8865,0.03840,0.01920,0.07505,0.00000,0.00000,0.00000,65,28,26,4,72,10,27,7,ok,2,0,0.000,1,-0.49,0.97,10.50,13,0.114,8.19
0.9068,0.03840,0.01920,0.07505,0.00000,0.00000,0.00000,64,29,27,3,72,12,29,6,ok,2,0,0.000,1,-0.49,0.97,10.50,13,0.127,8.19
0.9118,0.03840,0.01920,0.07505,0.00000,0.00000,0.00000,66,28,28,3,72,13,29,6,ok,2,0,0.000,1,-0.49,0.97,10.50,13,0.139,8.19
0.9240,0.03840,0.01920,0.07505,0.00000,0.00000,0.00000,68,25,30,3,72,15,31,4,ok,2,0,0.000,1,-0.49,0.97,10.50,13,0.152,8.19
0.9468,0.03840,0.01920,0.07505,0.00000,0.00000,0.00000,70,21,31,2,72,16,32,3,ok,2,0,0.000,1,-0.49,0.97,10.50,13,0.164,8.19
0.9498,0.03840,0.01920,0.07505,0.00000,0.00000,0.00000,71,17,33,2,71,18,33,3,ok,2,0,0.000,1,-0.49,0.97,10.50,13,0.178,8.19
0.9629,0.02269,-0.03665,0.13439,0.00000,0.00000,0.00000,71,15,34,2,72,18,34,2,ok,2,0,0.000,1,1.15,-0.89,12.84,14,0.000,8.19
0.9828,0.02269,-0.03665,0.13439,0.00000,0.00000,0.00000,71,14,36,1,71,21,36,1,ok,2,0,0.000,1,1.15,-0.89,12.84,14,0.013,8.19
0.9876,0.02269,-0.03665,0.13439,0.00000,0.00000,0.00000,71,11,37,1,71,22,38,1,ok,2,0,0.000,1,1.15,-0.89,12.84,14,0.025,8.19
1.0000,0.02269,-0.03665,0.13439,0.00000,0.00000,0.00000,70,7,38,2,71,24,39,2,ok,2,0,0.000,1,1.15,-0.89,12.84,14,0.038,8.19
1.0228,0.02269,-0.03665,0.13439,0.00000,0.00000,0.00000,70,4,39,2,71,25,40,1,ok,2,0,0.000,1,1.15,-0.89,12.84,14,0.050,8.19
1.0261,0.02269,-0.03665,0.13439,0.00000,0.00000,0.00000,68,1,41,1,71,27,42,1,ok,2,0,0.000,1,1.15,-0.89,12.84,14,0.063,8.19
1.0386,0.02269,-0.03665,0.13439,0.00000,0.00000,0.00000,67,-1,42,1,71,28,43,1,ok,2,0,0.000,1,1.15,-0.89,12.84,14,0.076,8.19
1.0589,0.02269,-0.03665,0.13439,0.00000,0.00000,0.00000,66,-3,44,2,71,28,44,0,ok,2,0,0.000,1,1.15,-0.89,12.84,14,0.089,8.19
1.0636,0.02269,-0.03665,0.13439,0.00000,0.00000,0.00000,64,-4,44,2,72,28,45,0,ok,2,0,0.000,1,1.15,-0.89,12.84,14,0.101,8.19
1.0763,0.02269,-0.03665,0.13439,0.00000,0.00000,0.00000,63,-6,46,2,74,26,46,0,ok,2,0,0.000,1,1.15,-0.89,12.84,14,0.114,8.19
1.0988,0.02269,-0.03665,0.13439,0.00000,0.00000,0.00000,62,-8,47,2,76,21,47,0,ok,2,0,0.000,1,1.15,-0.89,12.84,14,0.126,8.19
1.1019,0.02269,-0.03665,0.13439,0.00000,0.00000,0.00000,60,-9,49,3,77,17,48,0,ok,2,0,0.000,1,1.15,-0.89,12.84,14,0.139,8.19
1.1146,0.02269,-0.03665,0.13439,0.00000,0.00000,0.00000,57,-10,50,3,79,14,49,0,ok,2,0,0.000,1,1.15,-0.89,12.84,14,0.152,8.19
1.1348,0.02269,-0.03665,0.13439,0.00000,0.00000,0.00000,55,-11,50,3,79,13,50,0,ok,2,0,0.000,1,1.15,-0.89,12.84,14,0.165,8.19
1.1396,0.02269,-0.03665,0.13439,0.00000,0.00000,0.00000,53,-12,51,5,79,11,51,0,ok,2,0,0.000,1,1.15,-0.89,12.84,14,0.177,8.19
1.1520,0.02269,-0.03665,0.13439,0.00000,0.00000,0.00000,50,-11,52,6,79,7,51,0,ok,2,0,0.000,1,1.15,-0.89,12.84,14,0.190,8.19
1.1748,0.09076,-0.00175,0.10821,0.00000,0.00000,0.00000,47,-11,53,5,78,4,53,0,ok,2,0,0.000,1,-1.17,1.02,10.15,15,0.000,8.19
1.1779,0.09076,-0.00175,0.10821,0.00000,0.00000,0.00000,45,-11,54,6,77,2,54,0,ok,2,0,0.000,1,-1.17,1.02,10.15,15,0.013,8.19
1.1906,0.09076,-0.00175,0.10821,0.00000,0.00000,0.00000,42,-11,54,7,77,-1,54,0,ok,2,0,0.000,1,-1.17,1.02,10.15,15,0.026,8.19
1.2108,0.09076,-0.00175,0.10821,0.00000,0.00000,0.00000,40,-11,56,7,76,-3,55,-1,ok,2,0,0.000,1,-1.17,1.02,10.15,15,0.039,8.19
1.2158,0.09076,-0.00175,0.10821,0.00000,0.00000,0.00000,38,-10,56,7,75,-5,56,0,ok,2,0,0.000,1,-1.17,1.02,10.15,15,0.051,8.19
1.2281,0.09076,-0.00175,0.10821,0.00000,0.00000,0.00000,35,-9,57,7,74,-8,57,-1,ok,2,0,0.000,1,-1.17,1.02,10.15,15,0.064,8.19
1.2508,0.09076,-0.00175,0.10821,0.00000,0.00000,0.00000,32,-8,58,8,71,-7,57,0,ok,2,0,0.000,1,-1.17,1.02,10.15,15,0.076,8.19
1.2539,0.09076,-0.00175,0.10821,0.00000,0.00000,0.00000,29,-6,58,8,70,-10,57,0,ok,2,0,0.000,1,-1.17,1.02,10.15,15,0.089,8.19
1.2667,0.09076,-0.00175,0.10821,0.00000,0.00000,0.00000,26,-4,59,9,68,-11,59,0,ok,2,0,0.000,1,-1.17,1.02,10.15,15,0.102,8.19
1.2868,0.09076,-0.00175,0.10821,0.00000,0.00000,0.00000,22,-2,60,10,66,-12,60,0,ok,2,0,0.000,1,-1.17,1.02,10.15,15,0.115,8.19
1.2917,0.09076,-0.00175,0.10821,0.00000,0.00000,0.00000,20,-1,61,11,64,-13,61,0,ok,2,0,0.000,1,-1.17,1.02,10.15,15,0.127,8.19
1.3043,0.09076,-0.00175,0.10821,0.00000,0.00000,0.00000,18,1,62,11,62,-13,63,-3,ok,2,0,0.000,1,-1.17,1.02,10.15,15,0.140,8.19
1.3268,0.09076,-0.00175,0.10821,0.00000,0.00000,0.00000,16,3,62,12,59,-14,63,-2,ok,2,0,0.000,1,-1.17,1.02,10.15,15,0.152,8.19
1.3299,0.09076,-0.00175,0.10821,0.00000,0.00000,0.00000,14,7,63,13,58,-15,64,-2,ok,2,0,0.000,1,-1.17,1.02,10.15,15,0.165,8.19
1.3428,0.09076,-0.00175,0.10821,0.00000,0.00000,0.00000,12,10,63,14,55,-14,65,-1,ok,2,0,0.000,1,-1.17,1.02,10.15,15,0.178,8.19
1.3628,0.09076,-0.00175,0.10821,0.00000,0.00000,0.00000,11,13,64,15,52,-13,66,-1,ok,2,0,0.000,1,-1.17,1.02,10.15,15,0.191,8.19
1.3679,0.07854,0.01920,0.14137,0.00000,0.00000,0.00000,12,13,64,16,50,-13,67,-1,ok,2,0,0.000,1,0.90,0.93,11.41,16,0.000,8.19
1.3800,0.07854,0.01920,0.14137,0.00000,0.00000,0.00000,12,13,64,17,46,-12,67,-1,ok,2,0,0.000,1,0.90,0.93,11.41,16,0.013,8.19
1.4028,0.07854,0.01920,0.14137,0.00000,0.00000,0.00000,14,12,65,17,44,-11,68,0,ok,2,0,0.000,1,0.90,0.93,11.41,16,0.025,8.19
1.4059,0.07854,0.01920,0.14137,0.00000,0.00000,0.00000,15,12,65,18,41,-10,69,0,ok,4,0,0.000,1,0.90,0.93,11.41,16,0.038,8.19
1.4186,0.07854,0.01920,0.14137,0.00000,0.00000,0.00000,16,11,65,19,38,-9,69,1,ok,4,0,0.000,1,0.90,0.93,11.41,16,0.051,8.19
1.4388,0.07854,0.01920,0.14137,0.00000,0.00000,0.00000,18,10,66,19,35,-8,70,2,ok,4,0,0.000,1,0.90,0.93,11.41,16,0.064,8.19
1.4436,0.07854,0.01920,0.14137,0.00000,0.00000,0.00000,18,10,66,20,33,-6,71,3,ok,4,0,0.000,1,0.90,0.93,11.41,16,0.076,8.19
1.4562,0.07854,0.01920,0.14137,0.00000,0.00000,0.00000,20,9,66,21,31,-5,71,4,ok,4,0,0.000,1,0.90,0.93,11.41,16,0.089,8.19
1.4788,0.07854,0.01920,0.14137,0.00000,0.00000,0.00000,22,8,66,22,29,-2,72,4,ok,4,0,0.000,1,0.90,0.93,11.41,16,0.101,8.19
1.4819,0.07854,0.01920,0.14137,0.00000,0.00000,0.00000,23,7,65,23,28,1,72,6,ok,4,0,0.000,1,0.90,0.93,11.41,16,0.114,8.19
1.4945,0.07854,0.01920,0.14137,0.00000,0.00000,0.00000,24,6,65,24,27,4,72,7,ok,4,0,0.000,1,0.90,0.93,11.41,16,0.127,8.19
1.5148,0.07854,0.01920,0.14137,0.00000,0.00000,0.00000,25,6,65,25,26,7,72,8,ok,4,0,0.000,1,0.90,0.93,11.41,16,0.140,8.19
1.5197,0.07854,0.01920,0.14137,0.00000,0.00000,0.00000,27,6,64,27,28,6,72,9,ok,4,0,0.000,1,0.90,0.93,11.41,16,0.152,8.19
1.5320,0.07854,0.01920,0.14137,0.00000,0.00000,0.00000,28,5,64,29,29,6,73,11,ok,4,0,0.000,1,0.90,0.93,11.41,16,0.165,8.19
1.5548,0.07854,0.01920,0.14137,0.00000,0.00000,0.00000,29,4,65,27,30,3,73,12,ok,4,0,0.000,2,0.90,0.93,11.41,16,0.177,8.19
1.5579,0.07854,0.01920,0.14137,0.00000,0.00000,0.00000,30,3,68,24,31,3,73,14,ok,4,0,0.000,2,0.90,0.93,11.41,16,0.190,8.19
1.5707,0.07854,0.01920,0.14137,0.00000,0.00000,0.00000,31,3,70,21,32,3,73,15,ok,4,0,0.000,2,0.90,0.93,11.41,16,0.203,8.19
1.5908,0.04712,0.05585,0.12566,0.00000,0.00000,0.00000,33,2,71,17,33,2,73,17,ok,4,0,0.000,2,0.17,0.99,9.75,17,0.000,8.19
1.5957,0.04712,0.05585,0.12566,0.00000,0.00000,0.00000,34,2,71,15,34,1,72,19,ok,4,0,0.000,2,0.17,0.99,9.75,17,0.013,8.19
1.6080,0.04712,0.05585,0.12566,0.00000,0.00000,0.00000,36,1,71,14,37,1,73,20,ok,4,0,0.000,2,0.17,0.99,9.75,17,0.025,8.19
1.6308,0.04712,0.05585,0.12566,0.00000,0.00000,0.00000,37,1,71,11,37,1,72,22,ok,4,0,0.000,2,0.17,0.99,9.75,17,0.037,8.19
1.6339,0.04712,0.05585,0.12566,0.00000,0.00000,0.00000,39,1,71,8,39,2,72,23,ok,4,0,0.000,2,0.17,0.99,9.75,17,0.051,8.19
1.6465,0.04712,0.05585,0.12566,0.00000,0.00000,0.00000,40,1,70,5,40,1,73,24,ok,4,0,0.000,2,0.17,0.99,9.75,17,0.064,8.19
1.6668,0.04712,0.05585,0.12566,0.00000,0.00000,0.00000,42,0,70,3,41,2,72,26,ok,4,0,0.000,2,0.17,0.99,9.75,17,0.076,8.19
1.6716,0.04712,0.05585,0.12566,0.00000,0.00000,0.00000,43,0,69,1,42,1,72,27,ok,4,0,0.000,2,0.17,0.99,9.75,17,0.088,8.19
1.6842,0.04712,0.05585,0.12566,0.00000,0.00000,0.00000,44,0,67,-1,44,1,72,29,ok,4,0,0.000,2,0.17,0.99,9.75,17,0.101,8.19
1.7068,0.04712,0.05585,0.12566,0.00000,0.00000,0.00000,45,0,65,-2,45,0,73,29,ok,4,0,0.000,2,0.17,0.99,9.75,17,0.114,8.19
1.7099,0.04712,0.05585,0.12566,0.00000,0.00000,0.00000,46,0,64,-4,46,0,74,28,ok,4,0,0.001,2,0.17,0.99,9.75,17,0.127,8.19
1.7226,0.04712,0.05585,0.12566,0.00000,0.00000,0.00000,47,0,64,-6,48,0,76,26,ok,4,0,0.001,2,0.17,0.99,9.75,17,0.140,8.19
1.7428,0.04712,0.05585,0.12566,0.00000,0.00000,0.00000,49,2,61,-7,48,0,78,20,ok,4,0,0.001,2,0.17,0.99,9.75,17,0.152,8.19
1.7478,0.04712,0.05585,0.12566,0.00000,0.00000,0.00000,50,1,59,-9,49,0,79,17,ok,4,0,0.001,2,0.17,0.99,9.75,17,0.164,8.19
1.7600,0.04712,0.05585,0.12566,0.00000,0.00000,0.00000,50,1,56,-9,51,0,81,14,ok,4,0,0.001,2,0.17,0.99,9.75,17,0.177,8.19
1.7828,0.04712,0.05585,0.12566,0.00000,0.00000,0.00000,50,3,54,-10,52,0,81,13,ok,4,0,0.001,2,0.17,0.99,9.75,17,0.189,8.19
1.7861,-0.11519,-0.01745,0.17802,0.00000,0.00000,0.00000,51,5,51,-10,53,1,81,10,ok,4,0,0.001,2,-1.19,-0.52,10.29,18,0.000,8.19
1.7985,-0.11519,-0.01745,0.17802,0.00000,0.00000,0.00000,52,4,49,-9,54,0,81,7,ok,4,0,0.001,2,-1.19,-0.52,10.29,18,0.013,8.19
1.8188,-0.11519,-0.01745,0.17802,0.00000,0.00000,0.00000,53,5,46,-9,55,1,80,4,ok,2,0,0.001,2,-1.19,-0.52,10.29,18,0.025,8.19
1.8238,-0.11519,-0.01745,0.17802,0.00000,0.00000,0.00000,54,5,43,-9,56,0,80,2,ok,2,0,0.001,2,-1.19,-0.52,10.29,18,0.038,8.19
1.8360,-0.11519,-0.01745,0.17802,0.00000,0.00000,0.00000,55,6,41,-9,57,1,79,-1,ok,2,0,0.001,2,-1.19,-0.52,10.29,18,0.050,8.19
1.8588,-0.11519,-0.01745,0.17802,0.00000,0.00000,0.00000,56,6,39,-8,58,0,78,-3,ok,2,0,0.001,2,-1.19,-0.52,10.29,18,0.063,8.19
1.8619,-0.11519,-0.01745,0.17802,0.00000,0.00000,0.00000,57,7,36,-7,58,1,77,-5,ok,2,0,0.001,2,-1.19,-0.52,10.29,18,0.076,8.19
1.8745,-0.11519,-0.01745,0.17802,0.00000,0.00000,0.00000,57,8,33,-6,59,1,75,-7,ok,2,0,0.001,2,-1.19,-0.52,10.29,18,0.089,8.19
1.8948,-0.11519,-0.01745,0.17802,0.00000,0.00000,0.00000,58,8,29,-5,60,1,72,-7,ok,2,0,0.001,2,-1.19,-0.52,10.29,18,0.101,8.19
1.8997,-0.11519,-0.01745,0.17802,0.00000,0.00000,0.00000,59,8,27,-3,61,1,71,-9,ok,2,0,0.001,2,-1.19,-0.52,10.29,18,0.114,8.19
1.9120,-0.11519,-0.01745,0.17802,0.00000,0.00000,0.00000,60,10,22,-1,62,0,69,-11,ok,2,0,0.001,2,-1.19,-0.52,10.29,18,0.126,8.19
1.9348,-0.11519,-0.01745,0.17802,0.00000,0.00000,0.00000,60,10,21,0,64,-2,67,-12,ok,2,0,0.001,2,-1.19,-0.52,10.29,18,0.139,8.19
1.9379,-0.11519,-0.01745,0.17802,0.00000,0.00000,0.00000,62,11,19,1,64,-1,64,-13,ok,2,0,0.001,2,-1.19,-0.52,10.29,18,0.152,8.19
1.9506,-0.11519,-0.01745,0.17802,0.00000,0.00000,0.00000,62,12,17,3,65,0,63,-14,ok,2,0,0.001,2,-1.19,-0.52,10.29,18,0.165,8.19
1.9748,-0.11519,-0.01745,0.17802,0.00000,0.00000,0.00000,63,12,15,7,66,0,60,-14,ok,2,0,0.001,2,-1.19,-0.52,10.29,18,0.177,8.19
1.9782,-0.05585,0.01920,0.17279,0.00000,0.00000,0.00000,63,13,13,10,66,0,58,-15,ok,2,0,0.001,2,-0.08,0.47,8.88,19,0.000,8.19
1.9908,-0.05585,0.01920,0.17279,0.00000,0.00000,0.00000,63,14,11,12,67,0,55,-13,ok,2,0,0.001,2,-0.08,0.47,8.88,19,0.013,8.19
2.0108,-0.05585,0.01920,0.17279,0.00000,0.00000,0.00000,63,15,13,13,67,1,53,-13,ok,2,0,0.001,2,-0.08,0.47,8.88,19,0.025,8.19
2.0155,-0.05585,0.01920,0.17279,0.00000,0.00000,0.00000,64,16,13,12,68,1,50,-12,ok,2,0,0.001,2,-0.08,0.47,8.88,19,0.038,8.19
2.0281,-0.05585,0.01920,0.17279,0.00000,0.00000,0.00000,65,17,14,11,69,1,47,-12,ok,2,0,0.001,2,-0.08,0.47,8.88,19,0.050,8.19
2.0508,-0.05585,0.01920,0.17279,0.00000,0.00000,0.00000,65,18,15,11,69,2,45,-11,ok,2,0,0.001,2,-0.08,0.47,8.88,19,0.063,8.19
2.0539,-0.05585,0.01920,0.17279,0.00000,0.00000,0.00000,65,18,16,10,69,3,41,-10,ok,2,0,0.001,2,-0.08,0.47,8.88,19,0.076,8.19
2.0665,-0.05585,0.01920,0.17279,0.00000,0.00000,0.00000,66,19,17,9,70,3,39,-9,ok,2,0,0.001,2,-0.08,0.47,8.88,19,0.089,8.19
2.0868,-0.05585,0.01920,0.17279,0.00000,0.00000,0.00000,66,20,18,8,70,4,35,-7,ok,2,0,0.001,2,-0.08,0.47,8.88,19,0.101,8.19
2.0915,-0.05585,0.01920,0.17279,0.00000,0.00000,0.00000,67,21,20,7,71,5,34,-6,ok,2,0,0.001,2,-0.08,0.47,8.88,19,0.114,8.19
2.1041,-0.05585,0.01920,0.17279,0.00000,0.00000,0.00000,67,22,21,6,71,6,32,-4,ok,2,0,0.001,2,-0.08,0.47,8.88,19,0.126,8.19
2.1268,-0.05585,0.01920,0.17279,0.00000,0.00000,0.00000,66,23,22,6,71,7,30,-1,ok,2,0,0.001,2,-0.08,0.47,8.88,19,0.139,8.19
2.1300,-0.05585,0.01920,0.17279,0.00000,0.00000,0.00000,66,24,23,6,71,8,28,1,ok,2,0,0.001,2,-0.08,0.47,8.88,19,0.152,8.19
2.1428,-0.05585,0.01920,0.17279,0.00000,0.00000,0.00000,66,25,25,5,72,9,27,5,ok,2,0,0.001,2,-0.08,0.47,8.88,19,0.165,8.19
2.1628,-0.05585,0.01920,0.17279,0.00000,0.00000,0.00000,65,28,26,5,72,10,27,7,ok,2,0,0.001,2,-0.08,0.47,8.88,19,0.177,8.19
2.1675,-0.05585,0.01920,0.17279,0.00000,0.00000,0.00000,64,29,27,3,71,12,29,6,ok,2,0,0.001,2,-0.08,0.47,8.88,19,0.190,8.19
2.1804,-0.04189,0.05585,0.26529,0.00000,0.00000,0.00000,65,28,29,3,72,13,29,5,ok,2,0,0.001,2,-0.20,-0.69,10.42,20,0.000,8.19
2.2028,-0.04189,0.05585,0.26529,0.00000,0.00000,0.00000,68,25,30,3,72,15,30,3,ok,2,0,0.001,2,-0.20,-0.69,10.42,20,0.013,8.19
2.2060,-0.04189,0.05585,0.26529,0.00000,0.00000,0.00000,70,21,31,2,71,16,31,3,ok,2,0,0.001,2,-0.20,-0.69,10.42,20,0.026,8.19
2.2185,-0.04189,0.05585,0.26529,0.00000,0.00000,0.00000,71,17,33,2,71,18,33,3,ok,2,0,0.001,2,-0.20,-0.69,10.42,20,0.038,8.19
2.2388,-0.04189,0.05585,0.26529,0.00000,0.00000,0.00000,71,15,34,2,72,18,34,2,ok,2,0,0.001,2,-0.20,-0.69,10.42,20,0.051,8.19
2.2435,-0.04189,0.05585,0.26529,0.00000,0.00000,0.00000,71,14,35,1,71,21,36,1,ok,2,0,0.001,2,-0.20,-0.69,10.42,20,0.063,8.19
2.2561,-0.04189,0.05585,0.26529,0.00000,0.00000,0.00000,71,11,36,1,71,22,38,1,ok,2,0,0.001,2,-0.20,-0.69,10.42,20,0.076,8.19
2.2788,-0.04189,0.05585,0.26529,0.00000,0.00000,0.00000,70,8,38,2,71,24,38,2,ok,2,0,0.001,2,-0.20,-0.69,10.42,20,0.088,8.19
2.2819,-0.04189,0.05585,0.26529,0.00000,0.00000,0.00000,69,5,39,2,72,25,40,1,ok,2,0,0.001,2,-0.20,-0.69,10.42,20,0.102,8.19
2.2946,-0.04189,0.05585,0.26529,0.00000,0.00000,0.00000,68,1,41,1,71,27,42,1,ok,2,0,0.001,2,-0.20,-0.69,10.42,20,0.114,8.19
2.3148,-0.04189,0.05585,0.26529,0.00000,0.00000,0.00000,67,-1,42,1,71,29,42,1,ok,2,0,0.001,2,-0.20,-0.69,10.42,20,0.127,8.19
2.3195,-0.04189,0.05585,0.26529,0.00000,0.00000,0.00000,66,-3,44,1,71,29,43,1,ok,2,0,0.001,2,-0.20,-0.69,10.42,20,0.139,8.19
2.3321,-0.04189,0.05585,0.26529,0.00000,0.00000,0.00000,64,-4,44,1,72,29,45,1,ok,2,0,0.001,2,-0.20,-0.69,10.42,20,0.152,8.19
2.3548,-0.04189,0.05585,0.26529,0.00000,0.00000,0.00000,63,-6,45,2,74,26,46,0,ok,2,0,0.001,2,-0.20,-0.69,10.42,20,0.164,8.19
2.3579,-0.04189,0.05585,0.26529,0.00000,0.00000,0.00000,62,-8,47,2,76,22,47,0,ok,2,0,0.001,2,-0.20,-0.69,10.42,20,0.178,8.19
2.3705,-0.04189,0.05585,0.26529,0.00000,0.00000,0.00000,60,-9,48,3,77,17,48,0,ok,2,0,0.001,2,-0.20,-0.69,10.42,20,0.190,8.19
2.3908,0.09774,0.04014,0.29671,0.00000,0.00000,0.00000,57,-10,49,3,79,14,49,0,ok,2,0,0.001,2,-0.24,0.68,10.33,21,0.000,8.19
2.3956,0.09774,0.04014,0.29671,0.00000,0.00000,0.00000,55,-11,50,3,79,14,50,0,ok,2,0,0.001,2,-0.24,0.68,10.33,21,0.012,8.19
2.4081,0.09774,0.04014,0.29671,0.00000,0.00000,0.00000,53,-12,50,5,79,12,51,0,ok,2,0,0.001,2,-0.24,0.68,10.33,21,0.025,8.19
2.4308,0.09774,0.04014,0.29671,0.00000,0.00000,0.00000,50,-11,52,5,79,8,52,0,ok,2,0,0.001,2,-0.24,0.68,10.33,21,0.038,8.19
2.4339,0.09774,0.04014,0.29671,0.00000,0.00000,0.00000,47,-11,53,5,78,5,53,0,ok,2,0,0.001,2,-0.24,0.68,10.33,21,0.051,8.19
2.4465,0.09774,0.04014,0.29671,0.00000,0.00000,0.00000,45,-11,53,6,78,3,54,0,ok,2,0,0.001,2,-0.24,0.68,10.33,21,0.064,8.19
2.4668,0.09774,0.04014,0.29671,0.00000,0.00000,0.00000,43,-11,54,6,77,-1,54,0,ok,2,0,0.001,2,-0.24,0.68,10.33,21,0.076,8.19
2.4715,0.09774,0.04014,0.29671,0.00000,0.00000,0.00000,41,-11,56,7,76,-3,55,-1,ok,2,0,0.001,2,-0.24,0.68,10.33,21,0.089,8.19
2.4841,0.09774,0.04014,0.29671,0.00000,0.00000,0.00000,38,-10,56,7,75,-4,56,0,ok,2,0,0.001,2,-0.24,0.68,10.33,21,0.101,8.19
2.5068,0.09774,0.04014,0.29671,0.00000,0.00000,0.00000,35,-9,57,7,74,-7,57,-1,ok,2,0,0.001,2,-0.24,0.68,10.33,21,0.114,8.19
2.5099,0.09774,0.04014,0.29671,0.00000,0.00000,0.00000,33,-8,57,8,71,-7,57,0,ok,2,0,0.001,2,-0.24,0.68,10.33,21,0.127,8.19
2.5224,0.09774,0.04014,0.29671,0.00000,0.00000,0.00000,29,-6,58,8,69,-9,58,0,ok,2,0,0.001,2,-0.24,0.68,10.33,21,0.140,8.19
2.5428,0.09774,0.04014,0.29671,0.00000,0.00000,0.00000,26,-4,59,9,68,-11,59,0,ok,2,0,0.001,2,-0.24,0.68,10.33,21,0.152,8.19
2.5476,0.09774,0.04014,0.29671,0.00000,0.00000,0.00000,22,-2,60,11,66,-12,60,0,ok,2,0,0.001,3,-0.24,0.68,10.33,21,0.164,8.19
2.5601,0.09774,0.04014,0.29671,0.00000,0.00000,0.00000,20,-1,61,11,64,-13,61,0,ok,2,0,0.001,3,-0.24,0.68,10.33,21,0.177,8.19
2.5828,0.09774,0.04014,0.29671,0.00000,0.00000,0.00000,19,0,62,11,62,-13,63,-3,ok,2,0,0.001,3,-0.24,0.68,10.33,21,0.190,8.19
2.5862,0.04887,-0.01920,0.31416,0.00000,0.00000,0.00000,17,3,62,12,59,-14,64,-2,ok,2,0,0.001,3,0.66,0.29,10.66,22,0.000,8.19
2.5986,0.04887,-0.01920,0.31416,0.00000,0.00000,0.00000,15,7,63,13,58,-14,65,-2,ok,2,0,0.001,3,0.66,0.29,10.66,22,0.013,8.19
2.6188,0.04887,-0.01920,0.31416,0.00000,0.00000,0.00000,13,10,63,14,55,-14,65,-1,ok,2,0,0.001,3,0.66,0.29,10.66,22,0.025,8.19
2.6238,0.04887,-0.01920,0.31416,0.00000,0.00000,0.00000,11,12,64,15,52,-13,66,-1,ok,2,0,0.001,3,0.66,0.29,10.66,22,0.038,8.19
2.6361,0.04887,-0.01920,0.31416,0.00000,0.00000,0.00000,13,13,64,16,50,-13,67,0,ok,2,0,0.001,3,0.66,0.29,10.66,22,0.050,8.19
2.6588,0.04887,-0.01920,0.31416,0.00000,0.00000,0.00000,13,13,64,17,46,-12,67,-1,ok,2,0,0.001,3,0.66,0.29,10.66,22,0.063,8.19
2.6619,0.04887,-0.01920,0.31416,0.00000,0.00000,0.00000,14,12,65,17,44,-11,68,0,ok,2,0,0.001,3,0.66,0.29,10.66,22,0.076,8.19
2.6745,0.04887,-0.01920,0.31416,0.00000,0.00000,0.00000,16,11,65,18,41,-10,69,0,ok,2,0,0.001,3,0.66,0.29,10.66,22,0.089,8.19
2.6948,0.04887,-0.01920,0.31416,0.00000,0.00000,0.00000,16,11,65,19,38,-10,70,1,ok,2,0,0.001,3,0.66,0.29,10.66,22,0.101,8.19
2.6995,0.04887,-0.01920,0.31416,0.00000,0.00000,0.00000,18,10,66,19,35,-8,70,2,ok,2,0,0.001,3,0.66,0.29,10.66,22,0.114,8.19
2.7123,0.04887,-0.01920,0.31416,0.00000,0.00000,0.00000,18,10,66,20,33,-6,71,3,ok,2,0,0.001,3,0.66,0.29,10.66,22,0.126,8.19
2.7348,0.04887,-0.01920,0.31416,0.00000,0.00000,0.00000,21,9,66,21,31,-5,71,4,ok,2,0,0.001,3,0.66,0.29,10.66,22,0.139,8.19
2.7379,0.04887,-0.01920,0.31416,0.00000,0.00000,0.00000,22,8,66,22,29,-2,72,4,ok,2,0,0.001,3,0.66,0.29,10.66,22,0.152,8.19
2.7506,0.04887,-0.01920,0.31416,0.00000,0.00000,0.00000,23,7,65,23,28,0,72,6,ok,2,0,0.001,3,0.66,0.29,10.66,22,0.165,8.19
2.7708,0.04887,-0.01920,0.31416,0.00000,0.00000,0.00000,24,6,65,24,27,4,72,7,ok,2,0,0.001,3,0.66,0.29,10.66,22,0.177,8.19
2.7757,0.04887,-0.01920,0.31416,0.00000,0.00000,0.00000,26,6,65,25,26,6,72,8,ok,2,0,0.001,3,0.66,0.29,10.66,22,0.190,8.19
2.7883,-0.08378,-0.02967,0.32463,0.00000,0.00000,0.00000,27,6,64,28,28,6,72,9,ok,2,0,0.001,3,-1.11,-1.14,10.86,23,0.000,8.19
2.8108,-0.08378,-0.02967,0.32463,0.00000,0.00000,0.00000,28,5,64,29,28,5,72,11,ok,2,0,0.001,3,-1.11,-1.14,10.86,23,0.013,8.19
2.8139,-0.08378,-0.02967,0.32463,0.00000,0.00000,0.00000,29,4,65,28,30,3,72,12,ok,2,0,0.001,3,-1.11,-1.14,10.86,23,0.026,8.19
2.8265,-0.08378,-0.02967,0.32463,0.00000,0.00000,0.00000,31,3,68,25,31,2,73,15,ok,2,0,0.001,3,-1.11,-1.14,10.86,23,0.039,8.19
2.8468,-0.08378,-0.02967,0.32463,0.00000,0.00000,0.00000,32,2,70,21,32,2,73,16,ok,2,0,0.001,3,-1.11,-1.14,10.86,23,0.051,8.19
2.8515,-0.08378,-0.02967,0.32463,0.00000,0.00000,0.00000,33,2,71,17,33,2,72,17,ok,2,0,0.001,3,-1.11,-1.14,10.86,23,0.063,8.19
2.8641,-0.08378,-0.02967,0.32463,0.00000,0.00000,0.00000,34,2,72,15,34,0,73,19,ok,2,0,0.001,3,-1.11,-1.14,10.86,23,0.076,8.19
2.8868,-0.08378,-0.02967,0.32463,0.00000,0.00000,0.00000,36,1,72,14,37,1,73,20,ok,2,0,0.001,3,-1.11,-1.14,10.86,23,0.089,8.19
2.8901,-0.08378,-0.02967,0.32463,0.00000,0.00000,0.00000,37,1,72,11,37,1,72,22,ok,2,0,0.001,3,-1.11,-1.14,10.86,23,0.102,8.19
2.9025,-0.08378,-0.02967,0.32463,0.00000,0.00000,0.00000,39,1,71,8,39,1,72,23,ok,2,0,0.001,3,-1.11,-1.14,10.86,23,0.115,8.19
2.9228,-0.08378,-0.02967,0.32463,0.00000,0.00000,0.00000,40,1,71,5,40,1,72,24,ok,2,0,0.001,3,-1.11,-1.14,10.86,23,0.127,8.19
2.9275,-0.08378,-0.02967,0.32463,0.00000,0.00000,0.00000,42,0,70,3,41,1,72,26,ok,2,0,0.001,3,-1.11,-1.14,10.86,23,0.140,8.19
2.9401,-0.08378,-0.02967,0.32463,0.00000,0.00000,0.00000,43,0,69,1,42,0,71,27,ok,2,0,0.001,3,-1.11,-1.14,10.86,23,0.152,8.19
2.9628,-0.08378,-0.02967,0.32463,0.00000,0.00000,0.00000,45,0,68,-1,44,0,71,29,ok,2,0,0.001,3,-1.11,-1.14,10.86,23,0.165,8.19
2.9660,-0.08378,-0.02967,0.32463,0.00000,0.00000,0.00000,45,0,66,-2,45,-1,72,29,ok,2,0,0.001,3,-1.11,-1.14,10.86,23,0.178,8.19
2.9786,-0.08378,-0.02967,0.32463,0.00000,0.00000,0.00000,46,1,65,-4,46,-1,73,28,ok,2,0,0.001,3,-1.11,-1.14,10.86,23,0.191,8.19
2.9988,-0.08203,-0.01745,0.33859,0.00000,0.00000,0.00000,47,1,64,-6,48,-1,75,26,ok,2,0,0.001,3,0.25,-1.29,8.88,24,0.000,8.19
3.0036,-0.08203,-0.01745,0.33859,0.00000,0.00000,0.00000,49,2,61,-7,48,0,77,20,ok,2,0,0.001,3,0.25,-1.29,8.88,24,0.012,8.19
3.0161,-0.08203,-0.01745,0.33859,0.00000,0.00000,0.00000,50,1,59,-8,49,0,78,17,ok,2,0,0.001,3,0.25,-1.29,8.88,24,0.025,8.19
3.0388,-0.08203,-0.01745,0.33859,0.00000,0.00000,0.00000,50,2,57,-9,51,0,80,13,ok,2,0,0.001,3,0.25,-1.29,8.88,24,0.038,8.19
3.0419,-0.08203,-0.01745,0.33859,0.00000,0.00000,0.00000,50,4,54,-10,52,0,80,13,ok,2,0,0.001,3,0.25,-1.29,8.88,24,0.051,8.19
3.0547,-0.08203,-0.01745,0.33859,0.00000,0.00000,0.00000,52,5,51,-9,53,0,80,10,ok,2,0,0.001,3,0.25,-1.29,8.88,24,0.063,8.19
3.0748,-0.08203,-0.01745,0.33859,0.00000,0.00000,0.00000,52,4,49,-9,54,0,80,7,ok,2,0,0.001,3,0.25,-1.29,8.88,24,0.076,8.19
3.0795,-0.08203,-0.01745,0.33859,0.00000,0.00000,0.00000,53,5,46,-9,55,1,79,3,ok,2,0,0.001,3,0.25,-1.29,8.88,24,0.088,8.19
3.0921,-0.08203,-0.01745,0.33859,0.00000,0.00000,0.00000,53,6,43,-9,56,1,79,2,ok,2,0,0.001,3,0.25,-1.29,8.88,24,0.101,8.19
3.1148,-0.08203,-0.01745,0.33859,0.00000,0.00000,0.00000,55,6,41,-9,57,1,78,-2,ok,2,0,0.001,3,0.25,-1.29,8.88,24,0.113,8.19
3.1180,-0.08203,-0.01745,0.33859,0.00000,0.00000,0.00000,56,6,39,-8,58,0,78,-3,ok,2,0,0.001,3,0.25,-1.29,8.88,24,0.127,8.19
3.1305,-0.08203,-0.01745,0.33859,0.00000,0.00000,0.00000,57,7,36,-7,58,1,76,-5,ok,2,0,0.001,3,0.25,-1.29,8.88,24,0.140,8.19
3.1508,-0.08203,-0.01745,0.33859,0.00000,0.00000,0.00000,57,8,33,-6,59,1,74,-7,ok,2,0,0.001,3,0.25,-1.29,8.88,24,0.152,8.19
3.1555,-0.08203,-0.01745,0.33859,0.00000,0.00000,0.00000,58,8,29,-5,60,1,72,-7,ok,2,0,0.001,3,0.25,-1.29,8.88,24,0.165,8.19
3.1681,-0.08203,-0.01745,0.33859,0.00000,0.00000,0.00000,59,9,26,-3,61,1,70,-9,ok,2,0,0.001,3,0.25,-1.29,8.88,24,0.177,8.19
3.1908,-0.08203,-0.01745,0.33859,0.00000,0.00000,0.00000,61,10,22,-1,62,0,69,-11,ok,2,0,0.001,3,0.25,-1.29,8.88,24,0.190,8.19
3.1943,-0.01920,-0.00175,0.36652,0.00000,0.00000,0.00000,61,10,20,0,64,-2,67,-12,ok,2,0,0.001,3,-0.63,-0.85,9.38,25,0.000,8.19
3.2068,-0.01920,-0.00175,0.36652,0.00000,0.00000,0.00000,62,11,18,1,64,-1,65,-13,ok,2,0,0.001,3,-0.63,-0.85,9.38,25,0.013,8.19
3.2268,-0.01920,-0.00175,0.36652,0.00000,0.00000,0.00000,62,12,16,3,65,0,63,-14,ok,2,0,0.001,3,-0.63,-0.85,9.38,25,0.025,8.19
3.2315,-0.01920,-0.00175,0.36652,0.00000,0.00000,0.00000,63,12,15,7,66,0,60,-14,ok,2,0,0.001,3,-0.63,-0.85,9.38,25,0.038,8.19
3.2441,-0.01920,-0.00175,0.36652,0.00000,0.00000,0.00000,63,14,13,10,66,0,58,-15,ok,2,0,0.001,3,-0.63,-0.85,9.38,25,0.050,8.19
3.2668,-0.01920,-0.00175,0.36652,0.00000,0.00000,0.00000,64,14,11,12,67,0,55,-13,ok,2,0,0.001,3,-0.63,-0.85,9.38,25,0.063,8.19
3.2699,-0.01920,-0.00175,0.36652,0.00000,0.00000,0.00000,64,15,13,13,67,1,53,-13,ok,2,0,0.001,3,-0.63,-0.85,9.38,25,0.076,8.19
3.2824,-0.01920,-0.00175,0.36652,0.00000,0.00000,0.00000,64,16,12,12,68,1,50,-12,ok,2,0,0.001,3,-0.63,-0.85,9.38,25,0.089,8.19
3.3028,-0.01920,-0.00175,0.36652,0.00000,0.00000,0.00000,65,17,14,11,69,1,47,-11,ok,2,0,0.001,3,-0.63,-0.85,9.38,25,0.101,8.19
3.3075,-0.01920,-0.00175,0.36652,0.00000,0.00000,0.00000,65,18,15,10,69,2,45,-11,ok,2,0,0.001,3,-0.63,-0.85,9.38,25,0.114,8.19
3.3201,-0.01920,-0.00175,0.36652,0.00000,0.00000,0.00000,66,18,16,10,69,2,41,-10,ok,2,0,0.001,3,-0.63,-0.85,9.38,25,0.126,8.19
3.3428,-0.01920,-0.00175,0.36652,0.00000,0.00000,0.00000,66,19,17,9,70,3,39,-9,ok,2,0,0.001,3,-0.63,-0.85,9.38,25,0.139,8.19
3.3460,-0.01920,-0.00175,0.36652,0.00000,0.00000,0.00000,66,20,18,8,70,4,35,-7,ok,2,0,0.001,3,-0.63,-0.85,9.38,25,0.152,8.19
3.3586,-0.01920,-0.00175,0.36652,0.00000,0.00000,0.00000,67,21,20,7,71,5,34,-6,ok,2,0,0.001,3,-0.63,-0.85,9.38,25,0.165,8.19
3.3788,-0.01920,-0.00175,0.36652,0.00000,0.00000,0.00000,67,22,21,7,71,6,32,-4,ok,2,0,0.001,3,-0.63,-0.85,9.38,25,0.177,8.19
3.3838,-0.01920,-0.00175,0.36652,0.00000,0.00000,0.00000,67,23,22,6,71,7,30,-1,ok,2,0,0.001,3,-0.63,-0.85,9.38,25,0.190,8.19
3.3964,0.02967,-0.01571,0.41713,0.00000,0.00000,0.00000,67,24,23,6,71,8,29,1,ok,2,0,0.001,3,-0.72,-0.12,9.05,26,0.000,8.19
3.4188,0.02967,-0.01571,0.41713,0.00000,0.00000,0.00000,66,25,25,5,71,9,27,5,ok,2,0,0.001,3,-0.72,-0.12,9.05,26,0.013,8.19
3.4220,0.02967,-0.01571,0.41713,0.00000,0.00000,0.00000,65,28,26,5,71,10,27,7,ok,2,0,0.001,3,-0.72,-0.12,9.05,26,0.026,8.19
3.4347,0.02967,-0.01571,0.41713,0.00000,0.00000,0.00000,64,29,27,4,71,12,29,6,ok,2,0,0.001,3,-0.72,-0.12,9.05,26,0.038,8.19
3.4548,0.02967,-0.01571,0.41713,0.00000,0.00000,0.00000,66,28,29,3,71,13,29,5,ok,2,0,0.001,3,-0.72,-0.12,9.05,26,0.051,8.19
3.4595,0.02967,-0.01571,0.41713,0.00000,0.00000,0.00000,68,25,30,3,72,14,30,3,ok,2,0,0.001,3,-0.72,-0.12,9.05,26,0.063,8.19
3.4721,0.02967,-0.01571,0.41713,0.00000,0.00000,0.00000,71,21,31,2,71,16,32,3,ok,2,0,0.001,3,-0.72,-0.12,9.05,26,0.076,8.19
3.4948,0.02967,-0.01571,0.41713,0.00000,0.00000,0.00000,71,17,33,2,71,18,33,2,ok,2,0,0.001,3,-0.72,-0.12,9.05,26,0.088,8.19
3.4979,0.02967,-0.01571,0.41713,0.00000,0.00000,0.00000,72,15,34,2,72,18,34,2,ok,2,0,0.001,3,-0.72,-0.12,9.05,26,0.102,8.19
3.5105,0.02967,-0.01571,0.41713,0.00000,0.00000,0.00000,71,14,35,1,71,21,36,1,ok,2,0,0.001,3,-0.72,-0.12,9.05,26,0.114,8.19
3.5308,0.02967,-0.01571,0.41713,0.00000,0.00000,0.00000,71,11,36,1,71,22,38,1,ok,2,0,0.001,3,-0.72,-0.12,9.05,26,0.127,8.19
3.5355,0.02967,-0.01571,0.41713,0.00000,0.00000,0.00000,71,8,38,2,71,23,39,2,ok,2,0,0.001,3,-0.72,-0.12,9.05,26,0.139,8.19
3.5483,0.02967,-0.01571,0.41713,0.00000,0.00000,0.00000,70,5,39,2,71,25,40,1,ok,2,0,0.001,3,-0.72,-0.12,9.05,26,0.152,8.19
3.5708,0.02967,-0.01571,0.41713,0.00000,0.00000,0.00000,69,1,41,2,70,27,42,1,ok,2,0,0.001,4,-0.72,-0.12,9.05,26,0.164,8.19
3.5740,0.02967,-0.01571,0.41713,0.00000,0.00000,0.00000,68,-1,42,1,70,28,43,1,ok,2,0,0.001,4,-0.72,-0.12,9.05,26,0.178,8.19
3.5867,0.02967,-0.01571,0.41713,0.00000,0.00000,0.00000,67,-3,44,2,71,28,44,1,ok,2,0,0.001,4,-0.72,-0.12,9.05,26,0.190,8.19
3.6068,0.02269,0.00349,0.49567,0.00000,0.00000,0.00000,64,-4,44,2,72,28,45,0,ok,2,0,0.001,4,-0.08,0.26,10.45,27,0.000,8.19
3.6116,0.02269,0.00349,0.49567,0.00000,0.00000,0.00000,64,-6,45,2,73,26,46,0,ok,2,0,0.001,4,-0.08,0.26,10.45,27,0.012,8.19
3.6241,0.02269,0.00349,0.49567,0.00000,0.00000,0.00000,63,-8,47,2,75,21,47,0,ok,2,0,0.001,4,-0.08,0.26,10.45,27,0.025,8.19
3.6468,0.02269,0.00349,0.49567,0.00000,0.00000,0.00000,60,-9,48,3,77,17,49,0,ok,2,0,0.001,4,-0.08,0.26,10.45,27,0.038,8.19
3.6500,0.02269,0.00349,0.49567,0.00000,0.00000,0.00000,58,-10,49,3,78,14,49,0,ok,2,0,0.001,4,-0.08,0.26,10.45,27,0.051,8.19
3.6625,0.02269,0.00349,0.49567,0.00000,0.00000,0.00000,56,-11,50,3,78,13,50,0,ok,2,0,0.001,4,-0.08,0.26,10.45,27,0.064,8.19
3.6828,0.02269,0.00349,0.49567,0.00000,0.00000,0.00000,54,-12,50,5,78,11,51,0,ok,2,0,0.001,4,-0.08,0.26,10.45,27,0.076,8.19
3.6876,0.02269,0.00349,0.49567,0.00000,0.00000,0.00000,51,-11,52,6,78,7,52,0,ok,2,0,0.001,4,-0.08,0.26,10.45,27,0.089,8.19
3.7001,0.02269,0.00349,0.49567,0.00000,0.00000,0.00000,48,-11,52,5,78,4,53,0,ok,2,0,0.001,4,-0.08,0.26,10.45,27,0.101,8.19
3.7228,0.02269,0.00349,0.49567,0.00000,0.00000,0.00000,46,-11,53,6,77,2,54,0,ok,2,0,0.001,4,-0.08,0.26,10.45,27,0.114,8.19
3.7261,0.02269,0.00349,0.49567,0.00000,0.00000,0.00000,43,-11,54,7,77,-1,54,1,ok,2,0,0.001,4,-0.08,0.26,10.45,27,0.127,8.19
3.7385,0.02269,0.00349,0.49567,0.00000,0.00000,0.00000,41,-11,56,7,76,-3,55,0,ok,2,0,0.001,4,-0.08,0.26,10.45,27,0.140,8.19
3.7588,0.02269,0.00349,0.49567,0.00000,0.00000,0.00000,39,-10,56,7,75,-5,56,0,ok,2,0,0.001,4,-0.08,0.26,10.45,27,0.152,8.19
3.7635,0.02269,0.00349,0.49567,0.00000,0.00000,0.00000,36,-9,57,7,73,-8,57,-1,ok,2,0,0.001,4,-0.08,0.26,10.45,27,0.164,8.19
3.7763,0.02269,0.00349,0.49567,0.00000,0.00000,0.00000,33,-8,57,8,71,-7,57,0,ok,2,0,0.001,4,-0.08,0.26,10.45,27,0.177,8.19
3.7988,0.02269,0.00349,0.49567,0.00000,0.00000,0.00000,30,-6,58,8,69,-9,58,0,ok,2,0,0.001,4,-0.08,0.26,10.45,27,0.189,8.19
3.8022,0.08378,-0.02967,0.48695,0.00000,0.00000,0.00000,27,-4,59,9,68,-11,59,0,ok,2,0,0.001,4,-0.53,0.91,10.34,28,0.000,8.19
3.8145,0.08378,-0.02967,0.48695,0.00000,0.00000,0.00000,23,-2,60,11,66,-12,60,0,ok,2,0,0.001,4,-0.53,0.91,10.34,28,0.013,8.19
3.8348,0.08378,-0.02967,0.48695,0.00000,0.00000,0.00000,21,-1,61,11,64,-13,61,0,ok,2,0,0.001,4,-0.53,0.91,10.34,28,0.025,8.19
3.8395,0.08378,-0.02967,0.48695,0.00000,0.00000,0.00000,19,0,62,11,62,-13,63,-3,ok,2,0,0.001,4,-0.53,0.91,10.34,28,0.038,8.19
3.8521,0.08378,-0.02967,0.48695,0.00000,0.00000,0.00000,17,3,62,12,59,-14,64,-2,ok,2,0,0.001,4,-0.53,0.91,10.34,28,0.050,8.19
3.8748,0.08378,-0.02967,0.48695,0.00000,0.00000,0.00000,15,7,63,13,57,-14,64,-2,ok,2,0,0.001,4,-0.53,0.91,10.34,28,0.063,8.19
3.8779,0.08378,-0.02967,0.48695,0.00000,0.00000,0.00000,13,10,63,14,55,-14,65,-1,ok,2,0,0.001,4,-0.53,0.91,10.34,28,0.076,8.19
3.8905,0.08378,-0.02967,0.48695,0.00000,0.00000,0.00000,11,13,64,15,52,-13,66,-1,ok,2,0,0.001,4,-0.53,0.91,10.34,28,0.089,8.19
3.9108,0.08378,-0.02967,0.48695,0.00000,0.00000,0.00000,13,13,64,16,49,-13,66,0,ok,2,0,0.001,4,-0.53,0.91,10.34,28,0.101,8.19
3.9156,0.08378,-0.02967,0.48695,0.00000,0.00000,0.00000,13,13,64,17,46,-12,67,-1,ok,2,0,0.001,4,-0.53,0.91,10.34,28,0.114,8.19
3.9283,0.08378,-0.02967,0.48695,0.00000,0.00000,0.00000,15,12,65,17,44,-12,68,0,ok,2,0,0.001,4,-0.53,0.91,10.34,28,0.126,8.19
3.9508,0.08378,-0.02967,0.48695,0.00000,0.00000,0.00000,16,12,65,18,41,-10,69,0,ok,2,0,0.001,4,-0.53,0.91,10.34,28,0.139,8.19
3.9540,0.08378,-0.02967,0.48695,0.00000,0.00000,0.00000,17,11,65,19,38,-10,70,1,ok,2,0,0.001,4,-0.53,0.91,10.34,28,0.152,8.19
3.9665,0.08378,-0.02967,0.48695,0.00000,0.00000,0.00000,18,10,65,19,35,-8,70,2,ok,2,0,0.001,4,-0.53,0.91,10.34,28,0.165,8.19
3.9868,0.08378,-0.02967,0.48695,0.00000,0.00000,0.00000,19,10,65,21,33,-7,71,3,ok,2,0,0.001,4,-0.53,0.91,10.34,28,0.177,8.19
3.9917,0.08378,-0.02967,0.48695,0.00000,0.00000,0.00000,21,8,66,21,31,-5,71,4,ok,2,0,0.001,4,-0.53,0.91,10.34,28,0.190,8.19
4.0044,0.02094,-0.00873,0.52709,0.00000,0.00000,0.00000,22,8,66,22,29,-2,72,4,ok,2,0,0.001,4,-0.51,-1.35,9.51,29,0.000,8.19
4.0268,0.02094,-0.00873,0.52709,0.00000,0.00000,0.00000,24,7,65,23,28,0,72,6,ok,2,0,0.001,4,-0.51,-1.35,9.51,29,0.013,8.19
4.0300,0.02094,-0.00873,0.52709,0.00000,0.00000,0.00000,25,6,65,24,26,4,72,8,ok,2,0,0.001,4,-0.51,-1.35,9.51,29,0.026,8.19
4.0425,0.02094,-0.00873,0.52709,0.00000,0.00000,0.00000,26,6,65,25,26,6,72,8,ok,2,0,0.001,4,-0.51,-1.35,9.51,29,0.039,8.19
4.0628,0.02094,-0.00873,0.52709,0.00000,0.00000,0.00000,27,5,64,28,28,5,73,9,ok,2,0,0.001,4,-0.51,-1.35,9.51,29,0.051,8.19
4.0675,0.02094,-0.00873,0.52709,0.00000,0.00000,0.00000,29,4,64,29,28,5,73,11,ok,0,0,0.001,4,-0.51,-1.35,9.51,29,0.063,8.19
4.0801,0.02094,-0.00873,0.52709,0.00000,0.00000,0.00000,30,4,65,28,29,3,73,12,ok,2,0,0.001,4,-0.51,-1.35,9.51,29,0.076,8.19
4.1028,0.02094,-0.00873,0.52709,0.00000,0.00000,0.00000,31,3,68,25,30,2,73,14,ok,2,0,0.001,4,-0.51,-1.35,9.51,29,0.089,8.19
4.1061,0.02094,-0.00873,0.52709,0.00000,0.00000,0.00000,32,3,70,21,32,2,73,15,ok,2,0,0.001,4,-0.51,-1.35,9.51,29,0.102,8.19
4.1185,0.02094,-0.00873,0.52709,0.00000,0.00000,0.00000,34,2,71,17,33,2,73,17,ok,2,0,0.001,4,-0.51,-1.35,9.51,29,0.115,8.19
4.1388,0.02094,-0.00873,0.52709,0.00000,0.00000,0.00000,35,2,71,15,34,1,73,19,ok,2,0,0.001,4,-0.51,-1.35,9.51,29,0.127,8.19
4.1435,0.02094,-0.00873,0.52709,0.00000,0.00000,0.00000,37,1,71,14,37,1,73,20,ok,2,0,0.001,4,-0.51,-1.35,9.51,29,0.139,8.19
4.1564,0.02094,-0.00873,0.52709,0.00000,0.00000,0.00000,38,1,71,11,37,1,72,22,ok,2,0,0.001,4,-0.51,-1.35,9.51,29,0.152,8.19
4.1789,0.02094,-0.00873,0.52709,0.00000,0.00000,0.00000,40,1,71,8,39,2,72,23,ok,2,0,0.001,4,-0.51,-1.35,9.51,29,0.165,8.19
4.1821,0.02094,-0.00873,0.52709,0.00000,0.00000,0.00000,41,1,70,5,40,1,73,24,ok,2,0,0.001,4,-0.51,-1.35,9.51,29,0.178,8.19
4.1950,-0.03665,-0.00175,0.52011,0.00000,0.00000,0.00000,42,0,70,3,41,1,72,26,ok,0,0,0.001,4,0.42,-0.20,8.29,30,0.000,8.19
4.2148,-0.03665,-0.00175,0.52011,0.00000,0.00000,0.00000,43,0,69,1,42,0,72,28,ok,0,0,0.001,4,0.42,-0.20,8.29,30,0.013,8.19
4.2197,-0.03665,-0.00175,0.52011,0.00000,0.00000,0.00000,45,0,67,-1,43,0,72,29,ok,2,0,0.001,4,0.42,-0.20,8.29,30,0.025,8.19
4.2325,-0.03665,-0.00175,0.52011,0.00000,0.00000,0.00000,45,0,65,-2,45,-1,73,29,ok,2,0,0.001,4,0.42,-0.20,8.29,30,0.038,8.19
4.2548,-0.03665,-0.00175,0.52011,0.00000,0.00000,0.00000,47,0,64,-4,46,0,74,28,ok,2,0,0.001,4,0.42,-0.20,8.29,30,0.050,8.19
4.2580,-0.03665,-0.00175,0.52011,0.00000,0.00000,0.00000,48,0,63,-6,47,0,76,26,ok,2,0,0.001,4,0.42,-0.20,8.29,30,0.063,8.19
4.2706,-0.03665,-0.00175,0.52011,0.00000,0.00000,0.00000,50,2,61,-7,48,0,78,21,ok,2,0,0.001,4,0.42,-0.20,8.29,30,0.076,8.19
4.2908,-0.03665,-0.00175,0.52011,0.00000,0.00000,0.00000,51,1,59,-8,49,0,79,17,ok,2,0,0.001,4,0.42,-0.20,8.29,30,0.088,8.19
4.2956,-0.03665,-0.00175,0.52011,0.00000,0.00000,0.00000,51,1,56,-8,50,0,81,14,ok,2,0,0.001,4,0.42,-0.20,8.29,30,0.101,8.19
4.3082,-0.03665,-0.00175,0.52011,0.00000,0.00000,0.00000,51,3,54,-9,51,0,81,13,ok,2,0,0.001,4,0.42,-0.20,8.29,30,0.113,8.19
4.3308,-0.03665,-0.00175,0.52011,0.00000,0.00000,0.00000,52,4,51,-9,53,0,81,10,ok,2,0,0.001,4,0.42,-0.20,8.29,30,0.126,8.19
4.3340,-0.03665,-0.00175,0.52011,0.00000,0.00000,0.00000,53,4,49,-9,54,0,80,7,ok,2,0,0.001,4,0.42,-0.20,8.29,30,0.139,8.19
4.3467,-0.03665,-0.00175,0.52011,0.00000,0.00000,0.00000,53,5,46,-9,55,1,80,4,ok,2,0,0.001,4,0.42,-0.20,8.29,30,0.152,8.19
4.3668,-0.03665,-0.00175,0.52011,0.00000,0.00000,0.00000,54,6,43,-9,56,1,79,2,ok,2,0,0.001,4,0.42,-0.20,8.29,30,0.164,8.19
4.3716,-0.03665,-0.00175,0.52011,0.00000,0.00000,0.00000,56,6,41,-9,57,1,78,-2,ok,2,0,0.001,4,0.42,-0.20,8.29,30,0.177,8.19
4.3841,-0.03665,-0.00175,0.52011,0.00000,0.00000,0.00000,56,6,39,-8,58,0,78,-3,ok,2,0,0.001,4,0.42,-0.20,8.29,30,0.189,8.19
4.4068,-0.03665,-0.00175,0.52011,0.00000,0.00000,0.00000,57,7,35,-7,58,1,77,-5,ok,2,0,0.001,4,0.42,-0.20,8.29,30,0.202,8.19
4.4103,-0.16232,-0.00349,0.68766,0.00000,0.00000,0.00000,58,8,33,-6,59,1,75,-7,ok,2,0,0.001,4,-0.02,-2.08,10.27,31,0.000,8.19
4.4226,-0.16232,-0.00349,0.68766,0.00000,0.00000,0.00000,59,8,29,-5,60,1,72,-7,ok,2,0,0.001,4,-0.02,-2.08,10.27,31,0.013,8.19
4.4428,-0.16232,-0.00349,0.68766,0.00000,0.00000,0.00000,60,9,26,-3,61,1,71,-8,ok,2,0,0.001,4,-0.02,-2.08,10.27,31,0.025,8.19
4.4476,-0.16232,-0.00349,0.68766,0.00000,0.00000,0.00000,62,10,21,-1,62,0,69,-10,ok,2,0,0.001,4,-0.02,-2.08,10.27,31,0.038,8.19
4.4601,-0.16232,-0.00349,0.68766,0.00000,0.00000,0.00000,62,10,20,0,64,-2,67,-12,ok,2,0,0.001,4,-0.02,-2.08,10.27,31,0.050,8.19
4.4828,-0.16232,-0.00349,0.68766,0.00000,0.00000,0.00000,63,11,18,1,64,-1,65,-13,ok,2,0,0.001,4,-0.02,-2.08,10.27,31,0.063,8.19
4.4862,-0.16232,-0.00349,0.68766,0.00000,0.00000,0.00000,63,11,16,4,65,0,63,-13,ok,2,0,0.001,4,-0.02,-2.08,10.27,31,0.076,8.19
4.4986,-0.16232,-0.00349,0.68766,0.00000,0.00000,0.00000,64,12,14,7,66,0,61,-14,ok,2,0,0.001,4,-0.02,-2.08,10.27,31,0.089,8.19
4.5188,-0.16232,-0.00349,0.68766,0.00000,0.00000,0.00000,63,13,13,10,66,0,59,-14,ok,2,0,0.001,4,-0.02,-2.08,10.27,31,0.101,8.19
4.5236,-0.16232,-0.00349,0.68766,0.00000,0.00000,0.00000,64,14,11,13,67,0,55,-13,ok,2,0,0.001,4,-0.02,-2.08,10.27,31,0.114,8.19
4.5362,-0.16232,-0.00349,0.68766,0.00000,0.00000,0.00000,64,15,13,13,67,1,53,-12,ok,2,0,0.001,4,-0.02,-2.08,10.27,31,0.126,8.19
4.5588,-0.16232,-0.00349,0.68766,0.00000,0.00000,0.00000,65,16,12,13,68,1,50,-12,ok,2,0,0.001,4,-0.02,-2.08,10.27,31,0.139,8.19
4.5619,-0.16232,-0.00349,0.68766,0.00000,0.00000,0.00000,66,16,14,11,69,1,47,-11,ok,2,0,0.001,4,-0.02,-2.08,10.27,31,0.152,8.19
4.5749,-0.16232,-0.00349,0.68766,0.00000,0.00000,0.00000,65,17,15,11,69,2,45,-10,ok,2,0,0.001,5,-0.02,-2.08,10.27,31,0.165,8.19
4.5948,-0.16232,-0.00349,0.68766,0.00000,0.00000,0.00000,66,18,16,10,69,2,41,-9,ok,2,0,0.001,5,-0.02,-2.08,10.27,31,0.177,8.19
4.5998,-0.16232,-0.00349,0.68766,0.00000,0.00000,0.00000,66,18,17,9,70,3,39,-8,ok,2,0,0.001,5,-0.02,-2.08,10.27,31,0.190,8.19
4.6124,-0.02443,-0.00698,0.69115,0.00000,0.00000,0.00000,66,19,18,9,70,4,35,-7,ok,2,0,0.001,5,-0.91,-0.01,8.89,32,0.000,8.19
4.6348,-0.02443,-0.00698,0.69115,0.00000,0.00000,0.00000,67,20,20,8,71,5,34,-5,ok,2,0,0.001,5,-0.91,-0.01,8.89,32,0.013,8.19
4.6380,-0.02443,-0.00698,0.69115,0.00000,0.00000,0.00000,67,22,21,7,71,6,32,-4,ok,2,0,0.001,5,-0.91,-0.01,8.89,32,0.026,8.19
4.6507,-0.02443,-0.00698,0.69115,0.00000,0.00000,0.00000,67,23,23,6,71,8,30,-1,ok,2,0,0.001,5,-0.91,-0.01,8.89,32,0.038,8.19
4.6708,-0.02443,-0.00698,0.69115,0.00000,0.00000,0.00000,67,24,24,6,71,8,28,1,ok,2,0,0.001,5,-0.91,-0.01,8.89,32,0.051,8.19
4.6755,-0.02443,-0.00698,0.69115,0.00000,0.00000,0.00000,66,25,25,5,71,9,27,5,ok,2,0,0.001,5,-0.91,-0.01,8.89,32,0.063,8.19
4.6881,-0.02443,-0.00698,0.69115,0.00000,0.00000,0.00000,65,28,26,5,71,10,26,7,ok,2,0,0.001,5,-0.91,-0.01,8.89,32,0.076,8.19
4.7108,-0.02443,-0.00698,0.69115,0.00000,0.00000,0.00000,65,29,27,4,71,12,28,6,ok,2,0,0.001,5,-0.91,-0.01,8.89,32,0.089,8.19
4.7139,-0.02443,-0.00698,0.69115,0.00000,0.00000,0.00000,66,28,28,3,71,13,29,6,ok,2,0,0.001,5,-0.91,-0.01,8.89,32,0.102,8.19
4.7265,-0.02443,-0.00698,0.69115,0.00000,0.00000,0.00000,69,25,30,3,72,14,30,4,ok,2,0,0.001,5,-0.91,-0.01,8.89,32,0.115,8.19
4.7468,-0.02443,-0.00698,0.69115,0.00000,0.00000,0.00000,71,21,31,2,71,15,31,3,ok,2,0,0.001,5,-0.91,-0.01,8.89,32,0.127,8.19
4.7515,-0.02443,-0.00698,0.69115,0.00000,0.00000,0.00000,72,17,33,2,71,18,33,3,ok,2,0,0.001,5,-0.91,-0.01,8.89,32,0.139,8.19
4.7641,-0.02443,-0.00698,0.69115,0.00000,0.00000,0.00000,72,15,34,2,72,18,34,2,ok,2,0,0.001,5,-0.91,-0.01,8.89,32,0.152,8.19
4.7868,-0.02443,-0.00698,0.69115,0.00000,0.00000,0.00000,72,14,35,2,71,21,36,1,ok,2,0,0.001,5,-0.91,-0.01,8.89,32,0.165,8.19
4.7899,-0.02443,-0.00698,0.69115,0.00000,0.00000,0.00000,72,11,36,2,71,22,38,1,ok,2,0,0.001,5,-0.91,-0.01,8.89,32,0.178,8.19
4.8030,0.04014,0.04014,0.77493,0.00000,0.00000,0.00000,71,7,38,2,71,24,39,2,ok,2,0,0.001,5,-0.70,1.19,9.35,33,0.000,8.19
4.8228,0.04014,0.04014,0.77493,0.00000,0.00000,0.00000,70,5,39,2,71,26,40,1,ok,2,0,0.001,5,-0.70,1.19,9.35,33,0.013,8.19
4.8275,0.04014,0.04014,0.77493,0.00000,0.00000,0.00000,69,2,40,2,70,28,42,1,ok,2,0,0.001,5,-0.70,1.19,9.35,33,0.025,8.19
4.8401,0.04014,0.04014,0.77493,0.00000,0.00000,0.00000,68,0,42,1,70,29,43,1,ok,2,0,0.001,5,-0.70,1.19,9.35,33,0.038,8.19
4.8628,0.04014,0.04014,0.77493,0.00000,0.00000,0.00000,67,-3,43,2,71,29,44,1,ok,2,0,0.001,5,-0.70,1.19,9.35,33,0.050,8.19
4.8660,0.04014,0.04014,0.77493,0.00000,0.00000,0.00000,65,-4,43,2,72,29,45,1,ok,2,0,0.001,5,-0.70,1.19,9.35,33,0.063,8.19
4.8785,0.04014,0.04014,0.77493,0.00000,0.00000,0.00000,64,-6,45,2,74,26,46,0,ok,2,0,0.001,5,-0.70,1.19,9.35,33,0.076,8.19
4.8988,0.04014,0.04014,0.77493,0.00000,0.00000,0.00000,63,-8,46,2,76,22,47,0,ok,2,0,0.001,5,-0.70,1.19,9.35,33,0.089,8.19
4.9035,0.04014,0.04014,0.77493,0.00000,0.00000,0.00000,61,-9,48,3,77,17,49,0,ok,2,0,0.001,5,-0.70,1.19,9.35,33,0.101,8.19
4.9161,0.04014,0.04014,0.77493,0.00000,0.00000,0.00000,59,-10,49,3,78,14,49,0,ok,2,0,0.001,5,-0.70,1.19,9.35,33,0.114,8.19
4.9388,0.04014,0.04014,0.77493,0.00000,0.00000,0.00000,56,-11,50,3,78,14,50,1,ok,2,0,0.001,5,-0.70,1.19,9.35,33,0.126,8.19
4.9422,0.04014,0.04014,0.77493,0.00000,0.00000,0.00000,54,-12,50,5,78,11,51,1,ok,2,0,0.001,5,-0.70,1.19,9.35,33,0.139,8.19
4.9546,0.04014,0.04014,0.77493,0.00000,0.00000,0.00000,51,-11,51,6,78,8,52,0,ok,2,0,0.001,5,-0.70,1.19,9.35,33,0.152,8.19
4.9748,0.04014,0.04014,0.77493,0.00000,0.00000,0.00000,49,-11,52,5,78,5,53,0,ok,2,0,0.001,5,-0.70,1.19,9.35,33,0.165,8.19
4.9796,0.04014,0.04014,0.77493,0.00000,0.00000,0.00000,47,-11,53,6,77,3,54,0,ok,2,0,0.001,5,-0.70,1.19,9.35,33,0.177,8.19
4.9923,0.04014,0.04014,0.77493,0.00000,0.00000,0.00000,44,-11,53,7,76,-1,55,1,ok,2,0,0.001,5,-0.70,1.19,9.35,33,0.190,8.19
5.0148,0.10821,-0.03316,0.76620,0.00000,0.00000,0.00000,42,-11,55,7,76,-3,55,0,ok,2,0,0.001,5,-0.23,1.36,10.05,34,0.000,8.19
5.0266,0.10821,-0.03316,0.76620,0.00000,0.00000,0.00000,39,-10,56,7,75,-4,56,0,ok,2,0,0.001,5,-0.23,1.36,10.05,34,0.013,8.19
5.0306,0.10821,-0.03316,0.76620,0.00000,0.00000,0.00000,36,-9,57,8,73,-7,57,-1,ok,2,0,0.001,5,-0.23,1.36,10.05,34,0.026,8.19
5.0508,0.10821,-0.03316,0.76620,0.00000,0.00000,0.00000,33,-8,57,8,70,-7,58,0,ok,2,0,0.001,5,-0.23,1.36,10.05,34,0.039,8.19
5.0557,0.10821,-0.03316,0.76620,0.00000,0.00000,0.00000,30,-6,58,8,69,-9,58,0,ok,2,0,0.001,5,-0.23,1.36,10.05,34,0.051,8.19
5.0684,0.10821,-0.03316,0.76620,0.00000,0.00000,0.00000,27,-4,59,9,68,-11,59,0,ok,2,0,0.001,5,-0.23,1.36,10.05,34,0.064,8.19
5.0908,0.10821,-0.03316,0.76620,0.00000,0.00000,0.00000,23,-1,60,11,66,-12,60,0,ok,2,0,0.001,5,-0.23,1.36,10.05,34,0.076,8.19
5.0940,0.10821,-0.03316,0.76620,0.00000,0.00000,0.00000,21,-1,61,11,64,-13,61,0,ok,2,0,0.002,5,-0.23,1.36,10.05,34,0.089,8.19
5.1065,0.10821,-0.03316,0.76620,0.00000,0.00000,0.00000,20,1,62,11,62,-13,63,-3,ok,2,0,0.002,5,-0.23,1.36,10.05,34,0.102,8.19
5.1268,0.10821,-0.03316,0.76620,0.00000,0.00000,0.00000,18,3,62,12,59,-14,64,-1,ok,2,0,0.002,5,-0.23,1.36,10.05,34,0.114,8.19
5.1315,0.10821,-0.03316,0.76620,0.00000,0.00000,0.00000,15,7,62,13,57,-15,65,-1,ok,2,0,0.002,5,-0.23,1.36,10.05,34,0.127,8.19
5.1441,0.10821,-0.03316,0.76620,0.00000,0.00000,0.00000,14,10,63,14,54,-14,65,-1,ok,2,0,0.002,5,-0.23,1.36,10.05,34,0.139,8.19
5.1668,0.10821,-0.03316,0.76620,0.00000,0.00000,0.00000,12,13,63,15,51,-13,66,-1,ok,2,0,0.002,5,-0.23,1.36,10.05,34,0.152,8.19
5.1700,0.10821,-0.03316,0.76620,0.00000,0.00000,0.00000,14,13,64,16,49,-13,67,0,ok,2,0,0.002,5,-0.23,1.36,10.05,34,0.165,8.19
5.1826,0.10821,-0.03316,0.76620,0.00000,0.00000,0.00000,14,13,64,17,46,-12,67,0,ok,2,0,0.002,5,-0.23,1.36,10.05,34,0.178,8.19
5.2028,0.10821,-0.03316,0.76620,0.00000,0.00000,0.00000,15,12,64,17,44,-11,68,0,ok,2,0,0.002,5,-0.23,1.36,10.05,34,0.190,8.19
5.2078,0.11170,0.03316,0.78016,0.00000,0.00000,0.00000,16,12,65,18,41,-10,69,0,ok,2,0,0.002,5,1.21,0.97,10.65,35,0.000,8.19
5.2201,0.11170,0.03316,0.78016,0.00000,0.00000,0.00000,17,11,65,19,38,-9,70,2,ok,2,0,0.002,5,1.21,0.97,10.65,35,0.013,8.19
5.2428,0.11170,0.03316,0.78016,0.00000,0.00000,0.00000,19,10,65,19,35,-8,70,2,ok,2,0,0.002,5,1.21,0.97,10.65,35,0.025,8.19
5.2461,0.11170,0.03316,0.78016,0.00000,0.00000,0.00000,19,10,65,21,33,-6,71,3,ok,2,0,0.002,5,1.21,0.97,10.65,35,0.038,8.19
5.2585,0.11170,0.03316,0.78016,0.00000,0.00000,0.00000,22,9,65,21,31,-5,71,4,ok,2,0,0.002,5,1.21,0.97,10.65,35,0.051,8.19
5.2789,0.11170,0.03316,0.78016,0.00000,0.00000,0.00000,23,8,65,22,29,-2,72,5,ok,2,0,0.002,5,1.21,0.97,10.65,35,0.063,8.19
5.2982,0.11170,0.03316,0.78016,0.00000,0.00000,0.00000,24,7,65,23,27,1,72,6,ok,2,0,0.002,5,1.21,0.97,10.65,35,0.090,8.19
5.3107,0.11170,0.03316,0.78016,0.00000,0.00000,0.00000,25,6,65,24,26,4,72,8,ok,2,0,0.002,5,1.21,0.97,10.65,35,0.103,8.19
5.3308,0.11170,0.03316,0.78016,0.00000,0.00000,0.00000,27,6,65,25,26,7,73,8,ok,2,0,0.002,5,1.21,0.97,10.65,35,0.115,8.19
5.3358,0.11170,0.03316,0.78016,0.00000,0.00000,0.00000,28,5,64,28,28,6,73,9,ok,2,0,0.002,5,1.21,0.97,10.65,35,0.128,8.19
5.3480,0.11170,0.03316,0.78016,0.00000,0.00000,0.00000,29,4,63,29,28,6,73,11,ok,2,0,0.002,5,1.21,0.97,10.65,35,0.140,8.19
5.3708,0.11170,0.03316,0.78016,0.00000,0.00000,0.00000,30,4,65,28,29,4,73,12,ok,2,0,0.002,5,1.21,0.97,10.65,35,0.153,8.19
5.3739,0.11170,0.03316,0.78016,0.00000,0.00000,0.00000,32,3,67,25,30,3,74,14,ok,2,0,0.002,5,1.21,0.97,10.65,35,0.166,8.19
5.3866,0.11170,0.03316,0.78016,0.00000,0.00000,0.00000,33,3,70,21,31,3,74,16,ok,2,0,0.002,5,1.21,0.97,10.65,35,0.179,8.19
5.4068,0.11170,0.03316,0.78016,0.00000,0.00000,0.00000,34,2,71,17,33,3,73,17,ok,2,0,0.002,5,1.21,0.97,10.65,35,0.191,8.19
5.4119,0.05585,0.00873,0.76096,0.00000,0.00000,0.00000,35,2,71,15,34,1,73,19,ok,2,0,0.002,5,-0.48,0.62,10.02,36,0.000,8.19
5.4241,0.05585,0.00873,0.76096,0.00000,0.00000,0.00000,37,1,71,14,36,2,74,20,ok,2,0,0.002,5,-0.48,0.62,10.02,36,0.013,8.19
5.4468,0.05585,0.00873,0.76096,0.00000,0.00000,0.00000,38,1,71,11,36,2,73,22,ok,2,0,0.002,5,-0.48,0.62,10.02,36,0.025,8.19
5.4500,0.05585,0.00873,0.76096,0.00000,0.00000,0.00000,40,1,71,8,38,2,73,24,ok,2,0,0.002,5,-0.48,0.62,10.02,36,0.038,8.19
5.4626,0.05585,0.00873,0.76096,0.00000,0.00000,0.00000,41,1,70,6,40,1,73,25,ok,2,0,0.002,5,-0.48,0.62,10.02,36,0.051,8.19
5.4828,0.05585,0.00873,0.76096,0.00000,0.00000,0.00000,43,0,70,3,40,2,73,26,ok,2,0,0.002,5,-0.48,0.62,10.02,36,0.064,8.19
5.4878,0.05585,0.00873,0.76096,0.00000,0.00000,0.00000,44,0,68,1,42,1,73,28,ok,2,0,0.002,5,-0.48,0.62,10.02,36,0.076,8.19
5.5001,0.05585,0.00873,0.76096,0.00000,0.00000,0.00000,46,0,67,0,43,1,72,29,ok,2,0,0.002,5,-0.48,0.62,10.02,36,0.089,8.19
5.5228,0.05585,0.00873,0.76096,0.00000,0.00000,0.00000,46,0,65,-2,44,0,73,29,ok,2,0,0.002,5,-0.48,0.62,10.02,36,0.101,8.19
5.5259,0.05585,0.00873,0.76096,0.00000,0.00000,0.00000,47,0,64,-4,46,0,74,28,ok,2,0,0.002,5,-0.48,0.62,10.02,36,0.114,8.19
5.5386,0.05585,0.00873,0.76096,0.00000,0.00000,0.00000,49,1,63,-6,47,0,76,26,ok,2,0,0.002,5,-0.48,0.62,10.02,36,0.127,8.19
5.5588,0.05585,0.00873,0.76096,0.00000,0.00000,0.00000,50,2,61,-7,48,0,78,21,ok,2,0,0.002,5,-0.48,0.62,10.02,36,0.140,8.19
5.5638,0.05585,0.00873,0.76096,0.00000,0.00000,0.00000,51,1,59,-8,49,0,79,17,ok,2,0,0.002,5,-0.48,0.62,10.02,36,0.152,8.19
5.5761,0.05585,0.00873,0.76096,0.00000,0.00000,0.00000,51,1,56,-8,50,0,81,14,ok,2,0,0.002,5,-0.48,0.62,10.02,36,0.165,8.19
5.5988,0.05585,0.00873,0.76096,0.00000,0.00000,0.00000,52,4,54,-9,51,0,81,13,ok,2,0,0.002,5,-0.48,0.62,10.02,36,0.177,8.19
5.6022,-0.09948,-0.01396,0.82205,0.00000,0.00000,0.00000,53,5,51,-9,52,0,81,10,ok,2,0,0.002,6,-0.96,-0.05,11.45,37,0.000,8.19
5.6146,-0.09948,-0.01396,0.82205,0.00000,0.00000,0.00000,53,4,48,-9,53,0,81,7,ok,2,0,0.002,6,-0.96,-0.05,11.45,37,0.013,8.19
5.6351,-0.09948,-0.01396,0.82205,0.00000,0.00000,0.00000,54,5,46,-8,54,1,80,4,ok,2,0,0.002,6,-0.96,-0.05,11.45,37,0.025,8.19
5.6407,-0.09948,-0.01396,0.82205,0.00000,0.00000,0.00000,55,5,43,-9,55,0,80,3,ok,2,0,0.002,6,-0.96,-0.05,11.45,37,0.038,8.19
5.6521,-0.09948,-0.01396,0.82205,0.00000,0.00000,0.00000,57,6,41,-9,56,1,79,-1,ok,2,0,0.002,6,-0.96,-0.05,11.45,37,0.050,8.19
5.6748,-0.09948,-0.01396,0.82205,0.00000,0.00000,0.00000,57,6,39,-8,57,0,79,-3,ok,2,0,0.002,6,-0.96,-0.05,11.45,37,0.063,8.19
5.6779,-0.09948,-0.01396,0.82205,0.00000,0.00000,0.00000,58,7,35,-7,58,1,77,-4,ok,2,0,0.002,6,-0.96,-0.05,11.45,37,0.076,8.19
5.6907,-0.09948,-0.01396,0.82205,0.00000,0.00000,0.00000,58,7,33,-6,59,1,75,-7,ok,2,0,0.002,6,-0.96,-0.05,11.45,37,0.089,8.19
5.7108,-0.09948,-0.01396,0.82205,0.00000,0.00000,0.00000,59,8,29,-5,60,1,72,-7,ok,2,0,0.002,6,-0.96,-0.05,11.45,37,0.101,8.19
5.7158,-0.09948,-0.01396,0.82205,0.00000,0.00000,0.00000,60,9,26,-3,61,1,71,-9,ok,2,0,0.002,6,-0.96,-0.05,11.45,37,0.114,8.19
5.7280,-0.09948,-0.01396,0.82205,0.00000,0.00000,0.00000,61,10,22,-1,62,1,70,-11,ok,2,0,0.002,6,-0.96,-0.05,11.45,37,0.126,8.19
5.7508,-0.09948,-0.01396,0.82205,0.00000,0.00000,0.00000,62,10,20,0,64,-1,67,-12,ok,2,0,0.002,6,-0.96,-0.05,11.45,37,0.139,8.19
5.7539,-0.09948,-0.01396,0.82205,0.00000,0.00000,0.00000,63,11,18,1,64,-1,65,-13,ok,2,0,0.002,6,-0.96,-0.05,11.45,37,0.152,8.19
5.7668,-0.09948,-0.01396,0.82205,0.00000,0.00000,0.00000,63,12,16,4,65,0,63,-13,ok,2,0,0.002,6,-0.96,-0.05,11.45,37,0.165,8.19
5.7868,-0.09948,-0.01396,0.82205,0.00000,0.00000,0.00000,64,12,14,7,65,0,61,-14,ok,2,0,0.002,6,-0.96,-0.05,11.45,37,0.177,8.19
5.7917,-0.09948,-0.01396,0.82205,0.00000,0.00000,0.00000,64,13,13,10,66,0,59,-14,ok,2,0,0.002,6,-0.96,-0.05,11.45,37,0.190,8.19
5.8041,-0.09948,-0.01396,0.82205,0.00000,0.00000,0.00000,64,14,11,12,67,0,55,-13,ok,2,0,0.002,6,-0.96,-0.05,11.45,37,0.202,8.19
5.8268,-0.03142,0.04712,0.82554,0.00000,0.00000,0.00000,65,15,12,13,67,0,53,-12,ok,2,0,0.002,6,1.46,0.54,9.54,38,0.000,8.19
5.8299,-0.03142,0.04712,0.82554,0.00000,0.00000,0.00000,65,16,12,13,68,1,51,-12,ok,2,0,0.002,6,1.46,0.54,9.54,38,0.013,8.19
5.8426,-0.03142,0.04712,0.82554,0.00000,0.00000,0.00000,66,17,14,11,68,2,47,-11,ok,2,0,0.002,6,1.46,0.54,9.54,38,0.026,8.19
5.8628,-0.03142,0.04712,0.82554,0.00000,0.00000,0.00000,66,18,15,11,69,2,45,-10,ok,2,0,0.002,6,1.46,0.54,9.54,38,0.038,8.19
5.8676,-0.03142,0.04712,0.82554,0.00000,0.00000,0.00000,66,18,15,10,69,3,42,-9,ok,2,0,0.002,6,1.46,0.54,9.54,38,0.051,8.19
5.8800,-0.03142,0.04712,0.82554,0.00000,0.00000,0.00000,67,19,17,9,70,4,39,-8,ok,2,0,0.002,6,1.46,0.54,9.54,38,0.063,8.19
5.9028,-0.03142,0.04712,0.82554,0.00000,0.00000,0.00000,67,20,17,9,70,5,36,-7,ok,2,0,0.002,6,1.46,0.54,9.54,38,0.076,8.19
5.9059,-0.03142,0.04712,0.82554,0.00000,0.00000,0.00000,68,21,19,8,71,5,34,-5,ok,2,0,0.002,6,1.46,0.54,9.54,38,0.089,8.19
5.9186,-0.03142,0.04712,0.82554,0.00000,0.00000,0.00000,68,22,20,7,71,6,32,-4,ok,2,0,0.002,6,1.46,0.54,9.54,38,0.102,8.19
5.9388,-0.03142,0.04712,0.82554,0.00000,0.00000,0.00000,67,23,22,6,70,8,30,-1,ok,2,0,0.002,6,1.46,0.54,9.54,38,0.114,8.19
5.9438,-0.03142,0.04712,0.82554,0.00000,0.00000,0.00000,68,24,23,6,71,8,29,2,ok,2,0,0.002,6,1.46,0.54,9.54,38,0.127,8.19
5.9561,-0.03142,0.04712,0.82554,0.00000,0.00000,0.00000,67,25,24,5,71,9,28,5,ok,2,0,0.002,6,1.46,0.54,9.54,38,0.139,8.19
5.9789,-0.03142,0.04712,0.82554,0.00000,0.00000,0.00000,66,28,26,5,71,11,27,7,ok,2,0,0.002,6,1.46,0.54,9.54,38,0.152,8.19
5.9820,-0.03142,0.04712,0.82554,0.00000,0.00000,0.00000,65,29,27,4,71,12,29,6,ok,2,0,0.002,6,1.46,0.54,9.54,38,0.165,8.19
5.9946,-0.03142,0.04712,0.82554,0.00000,0.00000,0.00000,67,28,28,4,71,13,29,6,ok,2,0,0.002,6,1.46,0.54,9.54,38,0.178,8.19
6.0148,-0.03142,0.04712,0.82554,0.00000,0.00000,0.00000,69,25,29,3,72,15,31,4,ok,2,0,0.002,6,1.46,0.54,9.54,38,0.190,8.19
6.0199,-0.05236,0.08727,0.92153,0.00000,0.00000,0.00000,71,21,31,2,71,16,32,3,ok,2,0,0.002,6,0.75,-0.29,9.85,39,0.000,8.19
6.0321,-0.05236,0.08727,0.92153,0.00000,0.00000,0.00000,72,17,32,2,71,18,33,3,ok,2,0,0.002,6,0.75,-0.29,9.85,39,0.013,8.19
6.0548,-0.05236,0.08727,0.92153,0.00000,0.00000,0.00000,73,15,33,2,72,19,35,2,ok,2,0,0.002,6,0.75,-0.29,9.85,39,0.025,8.19
6.0581,-0.05236,0.08727,0.92153,0.00000,0.00000,0.00000,72,14,35,2,71,21,36,2,ok,2,0,0.002,6,0.75,-0.29,9.85,39,0.038,8.19
6.0706,-0.05236,0.08727,0.92153,0.00000,0.00000,0.00000,72,11,36,2,71,23,38,2,ok,2,0,0.002,6,0.75,-0.29,9.85,39,0.051,8.19
6.0908,-0.05236,0.08727,0.92153,0.00000,0.00000,0.00000,71,8,37,2,71,24,39,2,ok,2,0,0.002,6,0.75,-0.29,9.85,39,0.063,8.19
6.0959,-0.05236,0.08727,0.92153,0.00000,0.00000,0.00000,71,5,39,2,71,26,41,2,ok,2,0,0.002,6,0.75,-0.29,9.85,39,0.076,8.19
6.1081,-0.05236,0.08727,0.92153,0.00000,0.00000,0.00000,70,1,40,2,70,28,42,2,ok,2,0,0.002,6,0.75,-0.29,9.85,39,0.088,8.19
6.1308,-0.05236,0.08727,0.92153,0.00000,0.00000,0.00000,69,-1,41,1,70,29,43,2,ok,2,0,0.002,6,0.75,-0.29,9.85,39,0.101,8.19
6.1339,-0.05236,0.08727,0.92153,0.00000,0.00000,0.00000,67,-3,43,2,71,29,44,1,ok,2,0,0.002,6,0.75,-0.29,9.85,39,0.114,8.19
6.1466,-0.05236,0.08727,0.92153,0.00000,0.00000,0.00000,65,-4,43,2,72,29,45,1,ok,2,0,0.002,6,0.75,-0.29,9.85,39,0.127,8.19
6.1668,-0.05236,0.08727,0.92153,0.00000,0.00000,0.00000,64,-6,45,2,74,27,46,0,ok,2,0,0.002,6,0.75,-0.29,9.85,39,0.139,8.19
6.1718,-0.05236,0.08727,0.92153,0.00000,0.00000,0.00000,63,-8,46,2,76,22,47,0,ok,2,0,0.002,6,0.75,-0.29,9.85,39,0.152,8.19
6.1841,-0.05236,0.08727,0.92153,0.00000,0.00000,0.00000,61,-9,48,3,77,17,49,1,ok,2,0,0.002,6,0.75,-0.29,9.85,39,0.164,8.19
6.2068,-0.05236,0.08727,0.92153,0.00000,0.00000,0.00000,59,-10,49,3,79,15,49,1,ok,2,0,0.002,6,0.75,-0.29,9.85,39,0.177,8.19
6.2099,-0.05236,0.08727,0.92153,0.00000,0.00000,0.00000,56,-11,50,3,79,14,50,1,ok,2,0,0.002,6,0.75,-0.29,9.85,39,0.190,8.19
6.2229,0.08378,-0.02967,0.90059,0.00000,0.00000,0.00000,54,-12,50,5,79,12,51,1,ok,2,0,0.002,6,-0.33,0.82,9.92,40,0.000,8.19
6.2428,0.08378,-0.02967,0.90059,0.00000,0.00000,0.00000,51,-12,51,6,79,8,52,0,ok,2,0,0.002,6,-0.33,0.82,9.92,40,0.012,8.19
6.2476,0.08378,-0.02967,0.90059,0.00000,0.00000,0.00000,48,-12,52,5,78,5,53,0,ok,2,0,0.002,6,-0.33,0.82,9.92,40,0.025,8.19
6.2601,0.08378,-0.02967,0.90059,0.00000,0.00000,0.00000,46,-11,53,6,77,3,54,0,ok,2,0,0.002,6,-0.33,0.82,9.92,40,0.037,8.19
6.2828,0.08378,-0.02967,0.90059,0.00000,0.00000,0.00000,44,-11,54,7,76,0,55,0,ok,2,0,0.002,6,-0.33,0.82,9.92,40,0.050,8.19
6.2859,0.08378,-0.02967,0.90059,0.00000,0.00000,0.00000,42,-11,56,7,76,-3,55,0,ok,2,0,0.002,6,-0.33,0.82,9.92,40,0.063,8.19
6.2987,0.08378,-0.02967,0.90059,0.00000,0.00000,0.00000,39,-10,56,7,75,-4,56,0,ok,2,0,0.002,6,-0.33,0.82,9.92,40,0.076,8.19
6.3188,0.08378,-0.02967,0.90059,0.00000,0.00000,0.00000,36,-9,57,7,73,-7,57,-1,ok,2,0,0.002,6,-0.33,0.82,9.92,40,0.089,8.19
6.3236,0.08378,-0.02967,0.90059,0.00000,0.00000,0.00000,34,-8,57,8,70,-7,57,0,ok,2,0,0.002,6,-0.33,0.82,9.92,40,0.101,8.19
6.3361,0.08378,-0.02967,0.90059,0.00000,0.00000,0.00000,30,-6,58,8,69,-9,58,0,ok,2,0,0.002,6,-0.33,0.82,9.92,40,0.114,8.19
6.3588,0.08378,-0.02967,0.90059,0.00000,0.00000,0.00000,28,-4,59,9,68,-11,59,1,ok,2,0,0.002,6,-0.33,0.82,9.92,40,0.126,8.19
6.3619,0.08378,-0.02967,0.90059,0.00000,0.00000,0.00000,23,-1,60,11,66,-12,60,0,ok,2,0,0.002,6,-0.33,0.82,9.92,40,0.139,8.19
6.3745,0.08378,-0.02967,0.90059,0.00000,0.00000,0.00000,22,-1,61,11,64,-13,61,0,ok,2,0,0.002,6,-0.33,0.82,9.92,40,0.152,8.19
6.3948,0.08378,-0.02967,0.90059,0.00000,0.00000,0.00000,20,1,62,12,62,-13,63,-2,ok,2,0,0.002,6,-0.33,0.82,9.92,40,0.165,8.19
6.3996,0.08378,-0.02967,0.90059,0.00000,0.00000,0.00000,18,3,62,12,59,-14,64,-1,ok,2,0,0.002,6,-0.33,0.82,9.92,40,0.177,8.19
6.4124,0.08378,-0.02967,0.90059,0.00000,0.00000,0.00000,16,7,63,13,57,-14,65,-1,ok,2,0,0.002,6,-0.33,0.82,9.92,40,0.189,8.19
6.4348,0.13265,0.01920,0.92153,0.00000,0.00000,0.00000,14,10,63,14,54,-14,65,-1,ok,2,0,0.002,6,1.00,1.48,10.49,41,0.000,8.19
6.4381,0.13265,0.01920,0.92153,0.00000,0.00000,0.00000,12,13,63,15,51,-12,66,-1,ok,2,0,0.002,6,1.00,1.48,10.49,41,0.013,8.19
6.4506,0.13265,0.01920,0.92153,0.00000,0.00000,0.00000,14,13,63,16,49,-12,67,0,ok,2,0,0.002,6,1.00,1.48,10.49,41,0.026,8.19
6.4708,0.13265,0.01920,0.92153,0.00000,0.00000,0.00000,14,13,63,17,46,-11,67,0,ok,2,0,0.002,6,1.00,1.48,10.49,41,0.038,8.19
6.4758,0.13265,0.01920,0.92153,0.00000,0.00000,0.00000,15,12,64,17,44,-11,68,0,ok,2,0,0.002,6,1.00,1.48,10.49,41,0.051,8.19
6.4881,0.13265,0.01920,0.92153,0.00000,0.00000,0.00000,17,12,64,18,41,-10,69,1,ok,2,0,0.002,6,1.00,1.48,10.49,41,0.064,8.19
6.5108,0.13265,0.01920,0.92153,0.00000,0.00000,0.00000,17,11,65,19,38,-9,70,2,ok,2,0,0.002,6,1.00,1.48,10.49,41,0.076,8.19
6.5139,0.13265,0.01920,0.92153,0.00000,0.00000,0.00000,19,10,65,20,35,-7,70,2,ok,2,0,0.002,6,1.00,1.48,10.49,41,0.089,8.19
6.5266,0.13265,0.01920,0.92153,0.00000,0.00000,0.00000,20,10,65,21,33,-6,71,3,ok,2,0,0.002,6,1.00,1.48,10.49,41,0.102,8.19
6.5468,0.13265,0.01920,0.92153,0.00000,0.00000,0.00000,22,9,65,21,31,-5,71,5,ok,2,0,0.002,6,1.00,1.48,10.49,41,0.114,8.19
6.5518,0.13265,0.01920,0.92153,0.00000,0.00000,0.00000,23,8,65,22,28,-1,72,5,ok,2,0,0.002,6,1.00,1.48,10.49,41,0.127,8.19
6.5640,0.13265,0.01920,0.92153,0.00000,0.00000,0.00000,24,7,65,23,27,1,72,6,ok,2,0,0.002,6,1.00,1.48,10.49,41,0.139,8.19
6.5868,0.13265,0.01920,0.92153,0.00000,0.00000,0.00000,26,6,65,24,26,4,72,8,ok,0,0,0.002,6,1.00,1.48,10.49,41,0.152,8.19
6.5899,0.13265,0.01920,0.92153,0.00000,0.00000,0.00000,27,6,65,25,26,7,73,8,ok,0,0,0.002,6,1.00,1.48,10.49,41,0.165,8.19
6.6027,0.13265,0.01920,0.92153,0.00000,0.00000,0.00000,28,5,64,28,27,6,73,9,ok,0,0,0.002,6,1.00,1.48,10.49,41,0.178,8.19
6.6228,0.05236,0.03491,0.87441,0.00000,0.00000,0.00000,29,4,63,29,28,6,73,11,ok,0,0,0.002,7,-0.21,0.71,10.02,42,0.000,8.19
6.6278,0.05236,0.03491,0.87441,0.00000,0.00000,0.00000,31,4,65,28,29,4,73,13,ok,0,0,0.002,7,-0.21,0.71,10.02,42,0.013,8.19
6.6400,0.05236,0.03491,0.87441,0.00000,0.00000,0.00000,32,3,67,25,30,3,74,15,ok,2,0,0.002,7,-0.21,0.71,10.02,42,0.025,8.19
6.6628,0.05236,0.03491,0.87441,0.00000,0.00000,0.00000,33,3,69,21,31,3,74,16,ok,2,0,0.002,7,-0.21,0.71,10.02,42,0.038,8.19
6.6659,0.05236,0.03491,0.87441,0.00000,0.00000,0.00000,35,2,70,17,33,2,73,18,ok,2,0,0.002,7,-0.21,0.71,10.02,42,0.051,8.19
6.6786,0.05236,0.03491,0.87441,0.00000,0.00000,0.00000,36,2,71,15,34,1,73,20,ok,2,0,0.002,7,-0.21,0.71,10.02,42,0.064,8.19
6.6988,0.05236,0.03491,0.87441,0.00000,0.00000,0.00000,37,1,71,15,36,2,74,20,ok,2,0,0.002,7,-0.21,0.71,10.02,42,0.076,8.19
6.7038,0.05236,0.03491,0.87441,0.00000,0.00000,0.00000,39,1,71,11,36,2,73,22,ok,0,0,0.002,7,-0.21,0.71,10.02,42,0.089,8.19
6.7161,0.05236,0.03491,0.87441,0.00000,0.00000,0.00000,40,1,71,8,38,2,73,24,ok,0,0,0.002,7,-0.21,0.71,10.02,42,0.101,8.19
6.7388,0.05236,0.03491,0.87441,0.00000,0.00000,0.00000,41,1,70,6,40,2,73,25,ok,0,0,0.002,7,-0.21,0.71,10.02,42,0.114,8.19
6.7419,0.05236,0.03491,0.87441,0.00000,0.00000,0.00000,43,0,69,3,41,2,73,26,ok,0,0,0.002,7,-0.21,0.71,10.02,42,0.127,8.19
6.7548,0.05236,0.03491,0.87441,0.00000,0.00000,0.00000,44,0,68,1,42,1,73,28,ok,0,0,0.002,7,-0.21,0.71,10.02,42,0.140,8.19
6.7748,0.05236,0.03491,0.87441,0.00000,0.00000,0.00000,46,0,67,-1,43,1,72,29,ok,0,0,0.002,7,-0.21,0.71,10.02,42,0.152,8.19
6.7796,0.05236,0.03491,0.87441,0.00000,0.00000,0.00000,46,0,65,-2,44,0,73,29,ok,0,0,0.002,7,-0.21,0.71,10.02,42,0.165,8.19
6.7920,0.05236,0.03491,0.87441,0.00000,0.00000,0.00000,48,0,64,-4,46,0,74,29,ok,0,0,0.002,7,-0.21,0.71,10.02,42,0.177,8.19
6.8148,0.05236,0.03491,0.87441,0.00000,0.00000,0.00000,49,0,63,-6,47,0,76,26,ok,0,0,0.002,7,-0.21,0.71,10.02,42,0.190,8.19
6.8180,0.05236,0.03491,0.87441,0.00000,0.00000,0.00000,50,2,61,-7,48,1,78,21,ok,0,0,0.002,7,-0.21,0.71,10.02,42,0.203,8.19
6.8309,-0.09250,0.01396,0.96866,0.00000,0.00000,0.00000,51,1,59,-8,49,1,79,17,ok,2,0,0.002,7,-1.41,-0.46,9.92,43,0.000,8.19
6.8508,-0.09250,0.01396,0.96866,0.00000,0.00000,0.00000,52,1,56,-8,50,0,81,14,ok,2,0,0.002,7,-1.41,-0.46,9.92,43,0.013,8.19
6.8556,-0.09250,0.01396,0.96866,0.00000,0.00000,0.00000,52,3,54,-9,51,0,81,14,ok,2,0,0.002,7,-1.41,-0.46,9.92,43,0.025,8.19
6.8681,-0.09250,0.01396,0.96866,0.00000,0.00000,0.00000,53,4,51,-9,52,0,81,11,ok,2,0,0.002,7,-1.41,-0.46,9.92,43,0.038,8.19
6.8908,-0.09250,0.01396,0.96866,0.00000,0.00000,0.00000,54,4,48,-9,53,0,81,8,ok,2,0,0.002,7,-1.41,-0.46,9.92,43,0.050,8.19
6.8939,-0.09250,0.01396,0.96866,0.00000,0.00000,0.00000,54,5,46,-8,54,1,80,4,ok,2,0,0.002,7,-1.41,-0.46,9.92,43,0.063,8.19
6.9066,-0.09250,0.01396,0.96866,0.00000,0.00000,0.00000,55,6,43,-9,55,1,80,3,ok,2,0,0.002,7,-1.41,-0.46,9.92,43,0.076,8.19
6.9268,-0.09250,0.01396,0.96866,0.00000,0.00000,0.00000,57,6,41,-9,56,2,79,-1,ok,2,0,0.002,7,-1.41,-0.46,9.92,43,0.088,8.19
6.9316,-0.09250,0.01396,0.96866,0.00000,0.00000,0.00000,57,6,38,-8,57,1,79,-3,ok,2,0,0.002,7,-1.41,-0.46,9.92,43,0.101,8.19
6.9440,-0.09250,0.01396,0.96866,0.00000,0.00000,0.00000,58,7,35,-7,58,1,77,-5,ok,2,0,0.002,7,-1.41,-0.46,9.92,43,0.113,8.19
6.9668,-0.09250,0.01396,0.96866,0.00000,0.00000,0.00000,58,8,33,-6,59,2,75,-7,ok,2,0,0.002,7,-1.41,-0.46,9.92,43,0.126,8.19
6.9699,-0.09250,0.01396,0.96866,0.00000,0.00000,0.00000,59,8,29,-5,60,2,72,-7,ok,2,0,0.002,7,-1.41,-0.46,9.92,43,0.139,8.19
6.9827,-0.09250,0.01396,0.96866,0.00000,0.00000,0.00000,60,9,26,-3,61,2,71,-9,ok,2,0,0.002,7,-1.41,-0.46,9.92,43,0.152,8.19
7.0028,-0.09250,0.01396,0.96866,0.00000,0.00000,0.00000,62,10,21,-1,62,1,70,-11,ok,2,0,0.002,7,-1.41,-0.46,9.92,43,0.164,8.19
7.0078,-0.09250,0.01396,0.96866,0.00000,0.00000,0.00000,62,10,20,0,64,-1,67,-12,ok,2,0,0.002,7,-1.41,-0.46,9.92,43,0.177,8.19
7.0201,-0.09250,0.01396,0.96866,0.00000,0.00000,0.00000,63,11,18,1,64,0,65,-13,ok,2,0,0.002,7,-1.41,-0.46,9.92,43,0.189,8.19
7.0428,-0.04363,0.01745,0.98437,0.00000,0.00000,0.00000,63,11,16,4,65,0,63,-13,ok,2,0,0.002,7,-0.09,-0.11,9.04,44,0.000,8.19
7.0459,-0.04363,0.01745,0.98437,0.00000,0.00000,0.00000,64,12,14,7,65,0,61,-14,ok,2,0,0.002,7,-0.09,-0.11,9.04,44,0.013,8.19
7.0586,-0.04363,0.01745,0.98437,0.00000,0.00000,0.00000,64,13,12,10,66,1,59,-14,ok,2,0,0.002,7,-0.09,-0.11,9.04,44,0.026,8.19
7.0788,-0.04363,0.01745,0.98437,0.00000,0.00000,0.00000,65,14,11,12,67,1,56,-13,ok,2,0,0.002,7,-0.09,-0.11,9.04,44,0.039,8.19
7.0838,-0.04363,0.01745,0.98437,0.00000,0.00000,0.00000,65,15,12,13,67,1,53,-12,ok,2,0,0.002,7,-0.09,-0.11,9.04,44,0.051,8.19
7.0961,-0.04363,0.01745,0.98437,0.00000,0.00000,0.00000,65,16,12,13,68,1,51,-12,ok,2,0,0.002,7,-0.09,-0.11,9.04,44,0.064,8.19
7.1188,-0.04363,0.01745,0.98437,0.00000,0.00000,0.00000,66,17,14,12,68,2,47,-11,ok,2,0,0.002,7,-0.09,-0.11,9.04,44,0.076,8.19
7.1219,-0.04363,0.01745,0.98437,0.00000,0.00000,0.00000,66,18,15,11,69,3,45,-10,ok,2,0,0.002,7,-0.09,-0.11,9.04,44,0.089,8.19
7.1347,-0.04363,0.01745,0.98437,0.00000,0.00000,0.00000,67,18,15,10,69,3,42,-9,ok,2,0,0.002,7,-0.09,-0.11,9.04,44,0.102,8.19
7.1548,-0.04363,0.01745,0.98437,0.00000,0.00000,0.00000,67,19,17,9,69,4,40,-8,ok,2,0,0.002,7,-0.09,-0.11,9.04,44,0.115,8.19
7.1596,-0.04363,0.01745,0.98437,0.00000,0.00000,0.00000,67,20,17,9,70,5,36,-7,ok,2,0,0.002,7,-0.09,-0.11,9.04,44,0.127,8.19
7.1723,-0.04363,0.01745,0.98437,0.00000,0.00000,0.00000,68,21,19,8,71,5,35,-5,ok,2,0,0.002,7,-0.09,-0.11,9.04,44,0.140,8.19
7.1948,-0.04363,0.01745,0.98437,0.00000,0.00000,0.00000,68,22,21,7,71,6,32,-3,ok,2,0,0.002,7,-0.09,-0.11,9.04,44,0.152,8.19
7.1979,-0.04363,0.01745,0.98437,0.00000,0.00000,0.00000,68,23,22,7,70,8,30,0,ok,2,0,0.002,7,-0.09,-0.11,9.04,44,0.165,8.19
7.2106,-0.04363,0.01745,0.98437,0.00000,0.00000,0.00000,68,24,23,6,71,8,29,2,ok,2,0,0.002,7,-0.09,-0.11,9.04,44,0.178,8.19
7.2308,-0.04363,0.01745,0.98437,0.00000,0.00000,0.00000,67,25,24,5,71,9,28,5,ok,2,0,0.002,7,-0.09,-0.11,9.04,44,0.191,8.19
7.2359,-0.00349,0.03491,1.04022,0.00000,0.00000,0.00000,66,28,26,5,71,11,27,7,ok,2,0,0.002,7,1.34,-0.94,10.71,45,0.000,8.19
7.2481,-0.00349,0.03491,1.04022,0.00000,0.00000,0.00000,66,29,27,4,71,12,29,6,ok,2,0,0.002,7,1.34,-0.94,10.71,45,0.013,8.19
7.2708,-0.00349,0.03491,1.04022,0.00000,0.00000,0.00000,67,28,28,4,71,14,29,6,ok,2,0,0.002,7,1.34,-0.94,10.71,45,0.025,8.19
7.2739,-0.00349,0.03491,1.04022,0.00000,0.00000,0.00000,69,25,30,3,72,15,31,4,ok,2,0,0.002,7,1.34,-0.94,10.71,45,0.038,8.19
7.2866,-0.00349,0.03491,1.04022,0.00000,0.00000,0.00000,72,21,31,2,71,16,32,3,ok,2,0,0.002,7,1.34,-0.94,10.71,45,0.051,8.19
7.3068,-0.00349,0.03491,1.04022,0.00000,0.00000,0.00000,72,17,32,2,71,18,33,3,ok,2,0,0.002,7,1.34,-0.94,10.71,45,0.064,8.19
7.3117,-0.00349,0.03491,1.04022,0.00000,0.00000,0.00000,73,15,33,2,72,19,35,2,ok,2,0,0.002,7,1.34,-0.94,10.71,45,0.076,8.19
7.3240,-0.00349,0.03491,1.04022,0.00000,0.00000,0.00000,72,14,35,2,71,21,36,1,ok,2,0,0.002,7,1.34,-0.94,10.71,45,0.088,8.19
7.3468,-0.00349,0.03491,1.04022,0.00000,0.00000,0.00000,72,11,36,2,71,22,38,1,ok,2,0,0.002,7,1.34,-0.94,10.71,45,0.101,8.19
7.3499,-0.00349,0.03491,1.04022,0.00000,0.00000,0.00000,71,7,38,2,71,24,39,2,ok,2,0,0.002,7,1.34,-0.94,10.71,45,0.114,8.19
7.3626,-0.00349,0.03491,1.04022,0.00000,0.00000,0.00000,71,5,39,2,71,26,41,2,ok,2,0,0.002,7,1.34,-0.94,10.71,45,0.127,8.19
7.3828,-0.00349,0.03491,1.04022,0.00000,0.00000,0.00000,70,1,40,2,70,28,42,2,ok,2,0,0.002,7,1.34,-0.94,10.71,45,0.140,8.19
7.3878,-0.00349,0.03491,1.04022,0.00000,0.00000,0.00000,69,-1,41,2,70,29,43,2,ok,2,0,0.002,7,1.34,-0.94,10.71,45,0.152,8.19
7.4000,-0.00349,0.03491,1.04022,0.00000,0.00000,0.00000,68,-3,43,2,70,29,44,1,ok,2,0,0.002,7,1.34,-0.94,10.71,45,0.165,8.19
7.4228,-0.00349,0.03491,1.04022,0.00000,0.00000,0.00000,65,-4,43,2,72,29,45,1,ok,2,0,0.002,7,1.34,-0.94,10.71,45,0.177,8.19
7.4261,-0.00349,0.03491,1.04022,0.00000,0.00000,0.00000,64,-6,45,2,73,26,46,0,ok,2,0,0.002,7,1.34,-0.94,10.71,45,0.190,8.19
7.4389,0.07679,0.02793,1.11527,0.00000,0.00000,0.00000,64,-8,46,2,75,22,48,0,ok,2,0,0.002,7,0.56,1.30,9.68,46,0.000,8.19
7.4588,0.07679,0.02793,1.11527,0.00000,0.00000,0.00000,61,-9,48,3,77,18,49,0,ok,2,0,0.002,7,0.56,1.30,9.68,46,0.013,8.19
7.4636,0.07679,0.02793,1.11527,0.00000,0.00000,0.00000,59,-10,49,3,78,15,50,0,ok,2,0,0.002,7,0.56,1.30,9.68,46,0.025,8.19
7.4762,0.07679,0.02793,1.11527,0.00000,0.00000,0.00000,57,-11,50,3,78,14,50,0,ok,2,0,0.002,7,0.56,1.30,9.68,46,0.037,8.19
7.4988,0.07679,0.02793,1.11527,0.00000,0.00000,0.00000,54,-12,50,5,78,12,51,0,ok,2,0,0.002,7,0.56,1.30,9.68,46,0.050,8.19
7.5020,0.07679,0.02793,1.11527,0.00000,0.00000,0.00000,52,-11,51,6,78,8,52,0,ok,2,0,0.002,7,0.56,1.30,9.68,46,0.063,8.19
7.5146,0.07679,0.02793,1.11527,0.00000,0.00000,0.00000,49,-11,52,5,78,5,53,0,ok,2,0,0.002,7,0.56,1.30,9.68,46,0.076,8.19
7.5348,0.07679,0.02793,1.11527,0.00000,0.00000,0.00000,47,-11,53,6,77,3,54,0,ok,2,0,0.002,7,0.56,1.30,9.68,46,0.089,8.19
7.5396,0.07679,0.02793,1.11527,0.00000,0.00000,0.00000,44,-11,53,7,76,0,55,1,ok,2,0,0.002,7,0.56,1.30,9.68,46,0.101,8.19
7.5521,0.07679,0.02793,1.11527,0.00000,0.00000,0.00000,42,-11,55,7,76,-3,55,0,ok,2,0,0.002,7,0.56,1.30,9.68,46,0.114,8.19
7.5748,0.07679,0.02793,1.11527,0.00000,0.00000,0.00000,40,-10,55,7,75,-4,57,1,ok,2,0,0.002,7,0.56,1.30,9.68,46,0.126,8.19
7.5779,0.07679,0.02793,1.11527,0.00000,0.00000,0.00000,37,-9,57,8,73,-7,57,-1,ok,2,0,0.002,7,0.56,1.30,9.68,46,0.139,8.19
7.5906,0.07679,0.02793,1.11527,0.00000,0.00000,0.00000,34,-8,57,9,70,-7,58,0,ok,2,0,0.002,7,0.56,1.30,9.68,46,0.152,8.19
7.6108,0.07679,0.02793,1.11527,0.00000,0.00000,0.00000,31,-6,58,9,69,-9,58,0,ok,2,0,0.002,7,0.56,1.30,9.68,46,0.165,8.19
7.6157,0.07679,0.02793,1.11527,0.00000,0.00000,0.00000,28,-4,58,9,68,-10,60,1,ok,2,0,0.002,7,0.56,1.30,9.68,46,0.177,8.19
7.6283,0.07679,0.02793,1.11527,0.00000,0.00000,0.00000,24,-2,60,11,66,-12,60,0,ok,2,0,0.002,8,0.56,1.30,9.68,46,0.190,8.19
7.6508,0.06807,-0.04712,1.12574,0.00000,0.00000,0.00000,22,-1,61,11,64,-12,61,0,ok,2,0,0.002,8,-0.07,0.50,10.75,47,0.000,8.19
7.6541,0.06807,-0.04712,1.12574,0.00000,0.00000,0.00000,20,1,61,12,62,-13,64,-2,ok,2,0,0.002,8,-0.07,0.50,10.75,47,0.013,8.19
7.6667,0.06807,-0.04712,1.12574,0.00000,0.00000,0.00000,18,3,62,12,59,-14,64,-1,ok,2,0,0.002,8,-0.07,0.50,10.75,47,0.026,8.19
7.6868,0.06807,-0.04712,1.12574,0.00000,0.00000,0.00000,16,6,62,13,57,-14,65,-1,ok,2,0,0.002,8,-0.07,0.50,10.75,47,0.039,8.19
7.6916,0.06807,-0.04712,1.12574,0.00000,0.00000,0.00000,14,10,62,14,54,-13,66,-1,ok,2,0,0.002,8,-0.07,0.50,10.75,47,0.051,8.19
7.7040,0.06807,-0.04712,1.12574,0.00000,0.00000,0.00000,12,13,63,15,51,-12,66,-1,ok,2,0,0.002,8,-0.07,0.50,10.75,47,0.063,8.19
7.7268,0.06807,-0.04712,1.12574,0.00000,0.00000,0.00000,14,13,63,16,49,-12,67,0,ok,2,0,0.002,8,-0.07,0.50,10.75,47,0.076,8.19
7.7301,0.06807,-0.04712,1.12574,0.00000,0.00000,0.00000,14,13,64,17,46,-11,68,0,ok,2,0,0.002,8,-0.07,0.50,10.75,47,0.089,8.19
7.7426,0.06807,-0.04712,1.12574,0.00000,0.00000,0.00000,16,12,64,17,44,-11,68,1,ok,2,0,0.002,8,-0.07,0.50,10.75,47,0.102,8.19
7.7628,0.06807,-0.04712,1.12574,0.00000,0.00000,0.00000,17,12,64,18,41,-10,69,1,ok,2,0,0.002,8,-0.07,0.50,10.75,47,0.115,8.19
7.7676,0.06807,-0.04712,1.12574,0.00000,0.00000,0.00000,17,11,65,19,38,-9,70,2,ok,2,0,0.002,8,-0.07,0.50,10.75,47,0.127,8.19
7.7801,0.06807,-0.04712,1.12574,0.00000,0.00000,0.00000,19,10,65,20,34,-8,70,2,ok,2,0,0.002,8,-0.07,0.50,10.75,47,0.139,8.19
7.8028,0.06807,-0.04712,1.12574,0.00000,0.00000,0.00000,20,10,65,21,33,-6,71,3,ok,2,0,0.002,8,-0.07,0.50,10.75,47,0.152,8.19
7.8059,0.06807,-0.04712,1.12574,0.00000,0.00000,0.00000,22,9,66,22,31,-5,71,5,ok,2,0,0.002,8,-0.07,0.50,10.75,47,0.165,8.19
7.8188,0.06807,-0.04712,1.12574,0.00000,0.00000,0.00000,23,8,66,23,28,-2,72,5,ok,2,0,0.002,8,-0.07,0.50,10.75,47,0.178,8.19
7.8388,0.00000,0.03840,1.16413,0.00000,0.00000,0.00000,25,7,65,23,27,0,72,6,ok,2,0,0.002,8,-0.33,0.74,11.14,48,0.000,8.19
7.8436,0.00000,0.03840,1.16413,0.00000,0.00000,0.00000,26,6,65,24,26,4,72,8,ok,2,0,0.002,8,-0.33,0.74,11.14,48,0.012,8.19
7.8560,0.00000,0.03840,1.16413,0.00000,0.00000,0.00000,27,6,64,25,26,7,72,9,ok,2,0,0.002,8,-0.33,0.74,11.14,48,0.025,8.19
7.8788,0.00000,0.03840,1.16413,0.00000,0.00000,0.00000,28,6,63,28,27,6,73,10,ok,2,0,0.002,8,-0.33,0.74,11.14,48,0.038,8.19
7.8819,0.00000,0.03840,1.16413,0.00000,0.00000,0.00000,30,5,63,29,28,6,73,12,ok,2,0,0.002,8,-0.33,0.74,11.14,48,0.051,8.19
7.8946,0.00000,0.03840,1.16413,0.00000,0.00000,0.00000,31,4,64,28,29,4,73,13,ok,2,0,0.002,8,-0.33,0.74,11.14,48,0.064,8.19
7.9148,0.00000,0.03840,1.16413,0.00000,0.00000,0.00000,32,3,67,25,30,3,73,15,ok,2,0,0.002,8,-0.33,0.74,11.14,48,0.076,8.19
7.9197,0.00000,0.03840,1.16413,0.00000,0.00000,0.00000,33,3,69,21,31,3,74,16,ok,2,0,0.002,8,-0.33,0.74,11.14,48,0.088,8.19
7.9322,0.00000,0.03840,1.16413,0.00000,0.00000,0.00000,35,2,70,17,33,3,73,18,ok,2,0,0.002,8,-0.33,0.74,11.14,48,0.101,8.19
7.9548,0.00000,0.03840,1.16413,0.00000,0.00000,0.00000,36,2,71,15,34,2,73,20,ok,2,0,0.002,8,-0.33,0.74,11.14,48,0.114,8.19
7.9579,0.00000,0.03840,1.16413,0.00000,0.00000,0.00000,38,1,71,15,36,2,74,20,ok,2,0,0.002,8,-0.33,0.74,11.14,48,0.127,8.19
7.9706,0.00000,0.03840,1.16413,0.00000,0.00000,0.00000,39,1,71,11,37,2,73,23,ok,2,0,0.002,8,-0.33,0.74,11.14,48,0.140,8.19
7.9908,0.00000,0.03840,1.16413,0.00000,0.00000,0.00000,41,1,70,8,39,2,72,24,ok,2,0,0.002,8,-0.33,0.74,11.14,48,0.152,8.19
7.9958,0.00000,0.03840,1.16413,0.00000,0.00000,0.00000,42,1,70,5,40,2,73,25,ok,2,0,0.002,8,-0.33,0.74,11.14,48,0.165,8.19
8.0081,0.00000,0.03840,1.16413,0.00000,0.00000,0.00000,43,0,69,3,41,2,73,27,ok,2,0,0.002,8,-0.33,0.74,11.14,48,0.177,8.19
8.0308,0.00000,0.03840,1.16413,0.00000,0.00000,0.00000,44,0,68,1,42,1,72,28,ok,2,0,0.002,8,-0.33,0.74,11.14,48,0.190,8.19
8.0342,-0.00349,-0.00873,1.15541,0.00000,0.00000,0.00000,46,0,67,-1,43,1,72,29,ok,2,0,0.002,8,-1.03,-1.12,8.92,49,0.000,8.19
8.0466,-0.00349,-0.00873,1.15541,0.00000,0.00000,0.00000,46,0,65,-2,44,0,73,29,ok,2,0,0.002,8,-1.03,-1.12,8.92,49,0.013,8.19
8.0668,-0.00349,-0.00873,1.15541,0.00000,0.00000,0.00000,48,1,64,-4,46,0,74,29,ok,2,0,0.002,8,-1.03,-1.12,8.92,49,0.025,8.19
8.0718,-0.00349,-0.00873,1.15541,0.00000,0.00000,0.00000,49,1,63,-6,47,0,76,26,ok,2,0,0.002,8,-1.03,-1.12,8.92,49,0.038,8.19
8.0840,-0.00349,-0.00873,1.15541,0.00000,0.00000,0.00000,50,2,61,-7,48,0,78,21,ok,2,0,0.002,8,-1.03,-1.12,8.92,49,0.050,8.19
8.1068,-0.00349,-0.00873,1.15541,0.00000,0.00000,0.00000,52,1,59,-8,48,0,79,17,ok,2,0,0.002,8,-1.03,-1.12,8.92,49,0.063,8.19
8.1099,-0.00349,-0.00873,1.15541,0.00000,0.00000,0.00000,52,2,56,-8,50,0,81,14,ok,2,0,0.002,8,-1.03,-1.12,8.92,49,0.076,8.19
8.1226,-0.00349,-0.00873,1.15541,0.00000,0.00000,0.00000,52,4,54,-9,51,0,81,14,ok,2,0,0.002,8,-1.03,-1.12,8.92,49,0.089,8.19
8.1428,-0.00349,-0.00873,1.15541,0.00000,0.00000,0.00000,53,5,51,-9,52,0,81,11,ok,2,0,0.002,8,-1.03,-1.12,8.92,49,0.101,8.19
8.1478,-0.00349,-0.00873,1.15541,0.00000,0.00000,0.00000,54,4,48,-9,53,0,81,7,ok,2,0,0.002,8,-1.03,-1.12,8.92,49,0.114,8.19
8.1601,-0.00349,-0.00873,1.15541,0.00000,0.00000,0.00000,54,5,46,-9,54,1,80,4,ok,2,0,0.002,8,-1.03,-1.12,8.92,49,0.126,8.19
8.1828,-0.00349,-0.00873,1.15541,0.00000,0.00000,0.00000,55,6,43,-9,55,1,80,2,ok,2,0,0.002,8,-1.03,-1.12,8.92,49,0.139,8.19
8.1859,-0.00349,-0.00873,1.15541,0.00000,0.00000,0.00000,57,6,41,-9,56,2,79,-1,ok,2,0,0.002,8,-1.03,-1.12,8.92,49,0.152,8.19
8.1986,-0.00349,-0.00873,1.15541,0.00000,0.00000,0.00000,57,6,38,-8,57,1,78,-3,ok,2,0,0.002,8,-1.03,-1.12,8.92,49,0.165,8.19
8.2188,-0.00349,-0.00873,1.15541,0.00000,0.00000,0.00000,59,7,35,-7,58,1,77,-5,ok,2,0,0.002,8,-1.03,-1.12,8.92,49,0.177,8.19
8.2236,-0.00349,-0.00873,1.15541,0.00000,0.00000,0.00000,59,8,32,-6,58,2,75,-7,ok,2,0,0.002,8,-1.03,-1.12,8.92,49,0.190,8.19
8.2363,-0.14137,-0.04014,1.24791,0.00000,0.00000,0.00000,60,8,28,-5,60,2,72,-7,ok,2,0,0.002,8,-0.62,-1.39,9.34,50,0.000,8.19
8.2588,-0.14137,-0.04014,1.24791,0.00000,0.00000,0.00000,61,9,26,-3,60,1,71,-8,ok,2,0,0.002,8,-0.62,-1.39,9.34,50,0.013,8.19
8.2621,-0.14137,-0.04014,1.24791,0.00000,0.00000,0.00000,63,10,21,-1,61,0,70,-10,ok,2,0,0.002,8,-0.62,-1.39,9.34,50,0.026,8.19
8.2746,-0.14137,-0.04014,1.24791,0.00000,0.00000,0.00000,63,10,19,0,64,-2,68,-11,ok,2,0,0.002,8,-0.62,-1.39,9.34,50,0.039,8.19
8.2948,-0.14137,-0.04014,1.24791,0.00000,0.00000,0.00000,64,11,18,2,64,-1,65,-12,ok,2,0,0.002,8,-0.62,-1.39,9.34,50,0.051,8.19
8.2996,-0.14137,-0.04014,1.24791,0.00000,0.00000,0.00000,64,12,16,4,65,0,64,-13,ok,2,0,0.002,8,-0.62,-1.39,9.34,50,0.064,8.19
8.3121,-0.14137,-0.04014,1.24791,0.00000,0.00000,0.00000,64,12,14,7,65,0,61,-13,ok,2,0,0.002,8,-0.62,-1.39,9.34,50,0.076,8.19
8.3348,-0.14137,-0.04014,1.24791,0.00000,0.00000,0.00000,64,13,12,11,66,1,59,-14,ok,2,0,0.002,8,-0.62,-1.39,9.34,50,0.089,8.19
8.3381,-0.14137,-0.04014,1.24791,0.00000,0.00000,0.00000,65,14,11,13,67,0,56,-12,ok,2,0,0.002,8,-0.62,-1.39,9.34,50,0.102,8.19
8.3506,-0.14137,-0.04014,1.24791,0.00000,0.00000,0.00000,65,15,12,13,67,1,53,-12,ok,2,0,0.002,8,-0.62,-1.39,9.34,50,0.115,8.19
8.3708,-0.14137,-0.04014,1.24791,0.00000,0.00000,0.00000,65,16,12,13,68,1,51,-12,ok,2,0,0.002,8,-0.62,-1.39,9.34,50,0.127,8.19
8.3756,-0.14137,-0.04014,1.24791,0.00000,0.00000,0.00000,66,17,14,12,68,1,47,-11,ok,2,0,0.002,8,-0.62,-1.39,9.34,50,0.140,8.19
8.3883,-0.14137,-0.04014,1.24791,0.00000,0.00000,0.00000,66,18,15,11,69,2,45,-10,ok,2,0,0.002,8,-0.62,-1.39,9.34,50,0.152,8.19
8.4108,-0.14137,-0.04014,1.24791,0.00000,0.00000,0.00000,67,18,15,11,69,3,42,-9,ok,2,0,0.002,8,-0.62,-1.39,9.34,50,0.165,8.19
8.4139,-0.14137,-0.04014,1.24791,0.00000,0.00000,0.00000,67,18,17,9,69,3,39,-8,ok,2,0,0.002,8,-0.62,-1.39,9.34,50,0.178,8.19
8.4266,-0.14137,-0.04014,1.24791,0.00000,0.00000,0.00000,67,20,18,9,70,4,35,-6,ok,2,0,0.002,8,-0.62,-1.39,9.34,50,0.191,8.19
8.4468,-0.01396,0.07330,1.29329,0.00000,0.00000,0.00000,68,21,20,8,71,5,34,-5,ok,2,0,0.002,8,1.71,-0.87,11.22,51,0.000,8.19
8.4516,-0.01396,0.07330,1.29329,0.00000,0.00000,0.00000,68,22,21,7,70,7,32,-3,ok,2,0,0.002,8,1.71,-0.87,11.22,51,0.013,8.19
8.4640,-0.01396,0.07330,1.29329,0.00000,0.00000,0.00000,68,23,22,7,70,8,30,-1,ok,2,0,0.002,8,1.71,-0.87,11.22,51,0.025,8.19
8.4868,-0.01396,0.07330,1.29329,0.00000,0.00000,0.00000,68,24,23,6,71,9,29,2,ok,2,0,0.002,8,1.71,-0.87,11.22,51,0.038,8.19
8.4901,-0.01396,0.07330,1.29329,0.00000,0.00000,0.00000,67,25,24,5,71,10,27,5,ok,2,0,0.002,8,1.71,-0.87,11.22,51,0.051,8.19
8.5026,-0.01396,0.07330,1.29329,0.00000,0.00000,0.00000,66,28,25,5,71,11,27,7,ok,2,0,0.002,8,1.71,-0.87,11.22,51,0.064,8.19
8.5228,-0.01396,0.07330,1.29329,0.00000,0.00000,0.00000,66,29,27,4,71,13,29,6,ok,2,0,0.002,8,1.71,-0.87,11.22,51,0.076,8.19
8.5276,-0.01396,0.07330,1.29329,0.00000,0.00000,0.00000,67,28,28,4,71,14,29,6,ok,2,0,0.002,8,1.71,-0.87,11.22,51,0.088,8.19
8.5403,-0.01396,0.07330,1.29329,0.00000,0.00000,0.00000,69,25,29,3,72,15,31,4,ok,2,0,0.002,8,1.71,-0.87,11.22,51,0.101,8.19
8.5628,-0.01396,0.07330,1.29329,0.00000,0.00000,0.00000,72,21,30,2,71,16,32,3,ok,2,0,0.002,8,1.71,-0.87,11.22,51,0.114,8.19
8.5659,-0.01396,0.07330,1.29329,0.00000,0.00000,0.00000,73,17,32,2,71,18,33,3,ok,2,0,0.002,8,1.71,-0.87,11.22,51,0.127,8.19
8.5787,-0.01396,0.07330,1.29329,0.00000,0.00000,0.00000,73,15,33,2,72,19,35,3,ok,2,0,0.002,8,1.71,-0.87,11.22,51,0.140,8.19
8.5988,-0.01396,0.07330,1.29329,0.00000,0.00000,0.00000,73,14,35,2,71,22,37,2,ok,2,0,0.002,8,1.71,-0.87,11.22,51,0.152,8.19
8.6036,-0.01396,0.07330,1.29329,0.00000,0.00000,0.00000,73,11,36,2,71,23,39,2,ok,2,0,0.003,8,1.71,-0.87,11.22,51,0.165,8.19
8.6161,-0.01396,0.07330,1.29329,0.00000,0.00000,0.00000,72,7,37,2,71,25,39,2,ok,2,0,0.003,8,1.71,-0.87,11.22,51,0.177,8.19
8.6388,-0.01396,0.07330,1.29329,0.00000,0.00000,0.00000,71,5,38,2,71,26,41,2,ok,2,0,0.003,8,1.71,-0.87,11.22,51,0.190,8.19
8.6422,0.08203,0.03491,1.36485,0.00000,0.00000,0.00000,70,1,40,2,70,28,42,2,ok,2,0,0.003,9,0.83,1.26,9.38,52,0.000,8.19
8.6546,0.08203,0.03491,1.36485,0.00000,0.00000,0.00000,69,0,41,1,70,29,43,2,ok,2,0,0.003,9,0.83,1.26,9.38,52,0.013,8.19
8.6748,0.08203,0.03491,1.36485,0.00000,0.00000,0.00000,68,-3,43,2,71,30,44,1,ok,2,0,0.003,9,0.83,1.26,9.38,52,0.025,8.19
8.6797,0.08203,0.03491,1.36485,0.00000,0.00000,0.00000,66,-4,43,2,72,30,45,1,ok,2,0,0.003,9,0.83,1.26,9.38,52,0.038,8.19
8.6921,0.08203,0.03491,1.36485,0.00000,0.00000,0.00000,65,-6,45,2,73,27,47,0,ok,2,0,0.003,9,0.83,1.26,9.38,52,0.050,8.19
8.7148,0.08203,0.03491,1.36485,0.00000,0.00000,0.00000,64,-8,46,2,75,22,48,0,ok,2,0,0.003,9,0.83,1.26,9.38,52,0.063,8.19
8.7179,0.08203,0.03491,1.36485,0.00000,0.00000,0.00000,62,-9,48,3,77,18,49,1,ok,2,0,0.003,9,0.83,1.26,9.38,52,0.076,8.19
8.7306,0.08203,0.03491,1.36485,0.00000,0.00000,0.00000,60,-10,49,3,78,15,50,1,ok,2,0,0.003,9,0.83,1.26,9.38,52,0.089,8.19
8.7508,0.08203,0.03491,1.36485,0.00000,0.00000,0.00000,57,-10,49,3,78,14,50,1,ok,2,0,0.003,9,0.83,1.26,9.38,52,0.101,8.19
8.7558,0.08203,0.03491,1.36485,0.00000,0.00000,0.00000,55,-11,50,5,78,12,52,1,ok,2,0,0.003,9,0.83,1.26,9.38,52,0.114,8.19
8.7681,0.08203,0.03491,1.36485,0.00000,0.00000,0.00000,52,-11,51,6,78,8,52,1,ok,2,0,0.003,9,0.83,1.26,9.38,52,0.126,8.19
8.7908,0.08203,0.03491,1.36485,0.00000,0.00000,0.00000,50,-11,52,5,78,5,54,1,ok,2,0,0.003,9,0.83,1.26,9.38,52,0.139,8.19
8.7939,0.08203,0.03491,1.36485,0.00000,0.00000,0.00000,48,-11,53,6,77,3,55,0,ok,2,0,0.003,9,0.83,1.26,9.38,52,0.152,8.19
8.8068,0.08203,0.03491,1.36485,0.00000,0.00000,0.00000,45,-11,53,7,76,0,55,1,ok,2,0,0.003,9,0.83,1.26,9.38,52,0.165,8.19
8.8268,0.08203,0.03491,1.36485,0.00000,0.00000,0.00000,43,-11,55,7,76,-2,56,0,ok,2,0,0.003,9,0.83,1.26,9.38,52,0.177,8.19
8.8317,0.08203,0.03491,1.36485,0.00000,0.00000,0.00000,40,-10,55,7,75,-4,57,1,ok,2,0,0.003,9,0.83,1.26,9.38,52,0.190,8.19
8.8443,0.07330,-0.06458,1.35612,0.00000,0.00000,0.00000,37,-9,56,8,73,-7,58,0,ok,2,0,0.003,9,-0.47,0.73,9.63,53,0.000,8.19
8.8668,0.07330,-0.06458,1.35612,0.00000,0.00000,0.00000,35,-8,57,9,70,-7,58,0,ok,2,0,0.003,9,-0.47,0.73,9.63,53,0.013,8.19
8.8699,0.07330,-0.06458,1.35612,0.00000,0.00000,0.00000,31,-6,58,9,69,-9,59,0,ok,2,0,0.003,9,-0.47,0.73,9.63,53,0.026,8.19
8.8828,0.07330,-0.06458,1.35612,0.00000,0.00000,0.00000,28,-4,58,9,68,-11,60,1,ok,2,0,0.003,9,-0.47,0.73,9.63,53,0.039,8.19
8.9028,0.07330,-0.06458,1.35612,0.00000,0.00000,0.00000,24,-2,60,11,66,-12,61,0,ok,2,0,0.003,9,-0.47,0.73,9.63,53,0.051,8.19
8.9076,0.07330,-0.06458,1.35612,0.00000,0.00000,0.00000,22,-1,61,11,63,-13,62,0,ok,2,0,0.003,9,-0.47,0.73,9.63,53,0.064,8.19
8.9201,0.07330,-0.06458,1.35612,0.00000,0.00000,0.00000,21,1,62,12,62,-13,64,-2,ok,2,0,0.003,9,-0.47,0.73,9.63,53,0.076,8.19
8.9428,0.07330,-0.06458,1.35612,0.00000,0.00000,0.00000,19,3,62,13,59,-14,64,-1,ok,2,0,0.003,9,-0.47,0.73,9.63,53,0.089,8.19
8.9459,0.07330,-0.06458,1.35612,0.00000,0.00000,0.00000,16,7,62,13,57,-14,65,-1,ok,2,0,0.003,9,-0.47,0.73,9.63,53,0.102,8.19
8.9588,0.07330,-0.06458,1.35612,0.00000,0.00000,0.00000,14,10,62,15,54,-14,66,0,ok,2,0,0.003,9,-0.47,0.73,9.63,53,0.115,8.19
8.9788,0.07330,-0.06458,1.35612,0.00000,0.00000,0.00000,13,13,63,15,51,-13,66,-1,ok,2,0,0.003,9,-0.47,0.73,9.63,53,0.127,8.19
8.9839,0.07330,-0.06458,1.35612,0.00000,0.00000,0.00000,15,13,63,16,49,-13,67,0,ok,2,0,0.003,9,-0.47,0.73,9.63,53,0.140,8.19
8.9961,0.07330,-0.06458,1.35612,0.00000,0.00000,0.00000,15,13,63,17,46,-12,67,0,ok,2,0,0.003,9,-0.47,0.73,9.63,53,0.152,8.19
9.0188,0.07330,-0.06458,1.35612,0.00000,0.00000,0.00000,16,12,64,18,43,-11,68,1,ok,2,0,0.003,9,-0.47,0.73,9.63,53,0.165,8.19
9.0220,0.07330,-0.06458,1.35612,0.00000,0.00000,0.00000,17,12,64,19,40,-10,69,1,ok,2,0,0.003,9,-0.47,0.73,9.63,53,0.178,8.19
9.0349,0.07330,-0.06458,1.35612,0.00000,0.00000,0.00000,18,11,65,19,37,-10,70,2,ok,2,0,0.003,9,-0.47,0.73,9.63,53,0.191,8.19
9.0548,-0.00698,0.00175,1.37183,0.00000,0.00000,0.00000,20,10,65,20,34,-8,70,2,ok,2,0,0.003,9,-0.17,-0.19,8.27,54,0.000,8.19
9.0598,-0.00698,0.00175,1.37183,0.00000,0.00000,0.00000,20,10,65,21,33,-6,71,3,ok,2,0,0.003,9,-0.17,-0.19,8.27,54,0.012,8.19
9.0721,-0.00698,0.00175,1.37183,0.00000,0.00000,0.00000,23,9,65,22,31,-5,71,5,ok,2,0,0.003,9,-0.17,-0.19,8.27,54,0.025,8.19
9.0948,-0.00698,0.00175,1.37183,0.00000,0.00000,0.00000,24,8,65,23,28,-2,72,5,ok,2,0,0.003,9,-0.17,-0.19,8.27,54,0.038,8.19
9.0979,-0.00698,0.00175,1.37183,0.00000,0.00000,0.00000,25,7,65,23,27,0,72,7,ok,2,0,0.003,9,-0.17,-0.19,8.27,54,0.051,8.19
9.1106,-0.00698,0.00175,1.37183,0.00000,0.00000,0.00000,26,6,65,25,26,4,72,8,ok,2,0,0.003,9,-0.17,-0.19,8.27,54,0.063,8.19
9.1308,-0.00698,0.00175,1.37183,0.00000,0.00000,0.00000,28,6,64,25,26,6,73,9,ok,2,0,0.003,9,-0.17,-0.19,8.27,54,0.076,8.19
9.1358,-0.00698,0.00175,1.37183,0.00000,0.00000,0.00000,29,6,63,28,27,6,73,10,ok,2,0,0.003,9,-0.17,-0.19,8.27,54,0.088,8.19
9.1481,-0.00698,0.00175,1.37183,0.00000,0.00000,0.00000,30,4,63,29,28,6,73,12,ok,2,0,0.003,9,-0.17,-0.19,8.27,54,0.101,8.19
9.1708,-0.00698,0.00175,1.37183,0.00000,0.00000,0.00000,31,4,64,28,29,4,73,13,ok,2,0,0.003,9,-0.17,-0.19,8.27,54,0.113,8.19
9.1739,-0.00698,0.00175,1.37183,0.00000,0.00000,0.00000,32,3,67,25,30,3,73,15,ok,2,0,0.003,9,-0.17,-0.19,8.27,54,0.127,8.19
9.1866,-0.00698,0.00175,1.37183,0.00000,0.00000,0.00000,33,3,69,21,31,3,73,16,ok,2,0,0.003,9,-0.17,-0.19,8.27,54,0.139,8.19
9.2068,-0.00698,0.00175,1.37183,0.00000,0.00000,0.00000,35,2,70,17,33,3,73,18,ok,2,0,0.003,9,-0.17,-0.19,8.27,54,0.152,8.19
9.2116,-0.00698,0.00175,1.37183,0.00000,0.00000,0.00000,36,2,71,15,34,1,73,20,ok,2,0,0.003,9,-0.17,-0.19,8.27,54,0.164,8.19
9.2242,-0.00698,0.00175,1.37183,0.00000,0.00000,0.00000,38,1,71,15,36,2,74,21,ok,2,0,0.003,9,-0.17,-0.19,8.27,54,0.177,8.19
9.2468,-0.00698,0.00175,1.37183,0.00000,0.00000,0.00000,39,1,71,11,36,2,73,23,ok,2,0,0.003,9,-0.17,-0.19,8.27,54,0.189,8.19
9.2501,0.00524,0.01047,1.34216,0.00000,0.00000,0.00000,41,1,70,8,38,2,72,24,ok,2,0,0.003,9,-0.15,0.59,10.15,55,0.000,8.19
9.2626,0.00524,0.01047,1.34216,0.00000,0.00000,0.00000,42,1,70,6,40,1,73,25,ok,2,0,0.003,9,-0.15,0.59,10.15,55,0.013,8.19
9.2828,0.00524,0.01047,1.34216,0.00000,0.00000,0.00000,43,0,69,3,41,2,73,27,ok,2,0,0.003,9,-0.15,0.59,10.15,55,0.025,8.19
9.2879,0.00524,0.01047,1.34216,0.00000,0.00000,0.00000,45,0,68,1,42,1,72,28,ok,2,0,0.003,9,-0.15,0.59,10.15,55,0.038,8.19
9.3001,0.00524,0.01047,1.34216,0.00000,0.00000,0.00000,46,0,67,0,43,1,72,29,ok,2,0,0.003,9,-0.15,0.59,10.15,55,0.050,8.19
9.3228,0.00524,0.01047,1.34216,0.00000,0.00000,0.00000,46,0,65,-2,44,0,73,29,ok,2,0,0.003,9,-0.15,0.59,10.15,55,0.063,8.19
9.3259,0.00524,0.01047,1.34216,0.00000,0.00000,0.00000,48,1,64,-4,46,0,74,29,ok,2,0,0.003,9,-0.15,0.59,10.15,55,0.076,8.19
9.3386,0.00524,0.01047,1.34216,0.00000,0.00000,0.00000,49,1,63,-6,47,0,76,26,ok,2,0,0.003,9,-0.15,0.59,10.15,55,0.089,8.19
9.3588,0.00524,0.01047,1.34216,0.00000,0.00000,0.00000,51,2,61,-7,48,0,78,21,ok,2,0,0.003,9,-0.15,0.59,10.15,55,0.101,8.19
9.3636,0.00524,0.01047,1.34216,0.00000,0.00000,0.00000,52,1,58,-8,48,0,79,17,ok,2,0,0.003,9,-0.15,0.59,10.15,55,0.114,8.19
9.3763,0.00524,0.01047,1.34216,0.00000,0.00000,0.00000,52,2,56,-8,50,0,81,14,ok,2,0,0.003,9,-0.15,0.59,10.15,55,0.126,8.19
9.3988,0.00524,0.01047,1.34216,0.00000,0.00000,0.00000,52,4,54,-9,51,0,81,14,ok,2,0,0.003,9,-0.15,0.59,10.15,55,0.139,8.19
9.4019,0.00524,0.01047,1.34216,0.00000,0.00000,0.00000,53,5,51,-9,52,1,81,11,ok,2,0,0.003,9,-0.15,0.59,10.15,55,0.152,8.19
9.4146,0.00524,0.01047,1.34216,0.00000,0.00000,0.00000,54,4,48,-9,53,1,81,7,ok,2,0,0.003,9,-0.15,0.59,10.15,55,0.165,8.19
9.4348,0.00524,0.01047,1.34216,0.00000,0.00000,0.00000,55,5,46,-8,54,1,80,4,ok,2,0,0.003,9,-0.15,0.59,10.15,55,0.177,8.19
9.4399,-0.09425,-0.01571,1.43292,0.00000,0.00000,0.00000,55,6,43,-9,55,1,80,3,ok,2,0,0.003,9,-1.10,-0.74,10.16,56,0.000,8.19
9.4522,-0.09425,-0.01571,1.43292,0.00000,0.00000,0.00000,57,6,41,-9,56,1,79,-1,ok,2,0,0.003,9,-1.10,-0.74,10.16,56,0.013,8.19
9.4748,-0.09425,-0.01571,1.43292,0.00000,0.00000,0.00000,58,6,38,-8,57,0,79,-3,ok,2,0,0.003,9,-1.10,-0.74,10.16,56,0.025,8.19
9.4779,-0.09425,-0.01571,1.43292,0.00000,0.00000,0.00000,59,7,35,-7,58,1,77,-4,ok,2,0,0.003,9,-1.10,-0.74,10.16,56,0.038,8.19
9.4907,-0.09425,-0.01571,1.43292,0.00000,0.00000,0.00000,59,8,32,-5,58,2,75,-6,ok,2,0,0.003,9,-1.10,-0.74,10.16,56,0.051,8.19
9.5108,-0.09425,-0.01571,1.43292,0.00000,0.00000,0.00000,60,8,28,-5,59,2,73,-7,ok,2,0,0.003,9,-1.10,-0.74,10.16,56,0.064,8.19
9.5156,-0.09425,-0.01571,1.43292,0.00000,0.00000,0.00000,61,9,26,-3,60,2,71,-8,ok,2,0,0.003,9,-1.10,-0.74,10.16,56,0.076,8.19
9.5282,-0.09425,-0.01571,1.43292,0.00000,0.00000,0.00000,62,10,21,-1,61,1,70,-10,ok,2,0,0.003,9,-1.10,-0.74,10.16,56,0.089,8.19
9.5508,-0.09425,-0.01571,1.43292,0.00000,0.00000,0.00000,63,10,20,1,64,-1,68,-11,ok,2,0,0.003,9,-1.10,-0.74,10.16,56,0.101,8.19
9.5539,-0.09425,-0.01571,1.43292,0.00000,0.00000,0.00000,64,11,18,2,64,0,65,-13,ok,2,0,0.003,9,-1.10,-0.74,10.16,56,0.114,8.19
9.5666,-0.09425,-0.01571,1.43292,0.00000,0.00000,0.00000,64,11,16,4,65,0,64,-13,ok,2,0,0.003,9,-1.10,-0.74,10.16,56,0.127,8.19
9.5868,-0.09425,-0.01571,1.43292,0.00000,0.00000,0.00000,64,12,14,7,65,0,61,-13,ok,2,0,0.003,9,-1.10,-0.74,10.16,56,0.140,8.19
9.5917,-0.09425,-0.01571,1.43292,0.00000,0.00000,0.00000,64,14,12,11,66,1,59,-14,ok,2,0,0.003,9,-1.10,-0.74,10.16,56,0.152,8.19
9.6040,-0.09425,-0.01571,1.43292,0.00000,0.00000,0.00000,65,14,10,13,67,1,56,-12,ok,2,0,0.003,9,-1.10,-0.74,10.16,56,0.165,8.19
9.6268,-0.09425,-0.01571,1.43292,0.00000,0.00000,0.00000,65,15,12,13,67,1,53,-12,ok,2,0,0.003,9,-1.10,-0.74,10.16,56,0.177,8.19
9.6299,-0.09425,-0.01571,1.43292,0.00000,0.00000,0.00000,66,16,12,13,68,1,51,-11,ok,2,0,0.003,9,-1.10,-0.74,10.16,56,0.190,8.19
9.6429,0.00524,-0.04538,1.42768,0.00000,0.00000,0.00000,67,17,13,12,68,1,48,-11,ok,2,0,0.003,9,0.59,0.28,10.99,57,0.000,8.19
9.6628,0.00524,-0.04538,1.42768,0.00000,0.00000,0.00000,67,18,15,11,68,2,45,-10,ok,2,0,0.003,9,0.59,0.28,10.99,57,0.012,8.19
9.6677,0.00524,-0.04538,1.42768,0.00000,0.00000,0.00000,67,18,15,11,68,3,42,-9,ok,2,0,0.003,10,0.59,0.28,10.99,57,0.025,8.19
9.6801,0.00524,-0.04538,1.42768,0.00000,0.00000,0.00000,68,19,17,9,69,4,40,-9,ok,2,0,0.003,10,0.59,0.28,10.99,57,0.038,8.19
9.7028,0.00524,-0.04538,1.42768,0.00000,0.00000,0.00000,68,20,18,9,69,5,36,-7,ok,2,0,0.003,10,0.59,0.28,10.99,57,0.050,8.19
9.7061,0.00524,-0.04538,1.42768,0.00000,0.00000,0.00000,69,21,20,8,70,5,35,-5,ok,2,0,0.003,10,0.59,0.28,10.99,57,0.063,8.19
9.7186,0.00524,-0.04538,1.42768,0.00000,0.00000,0.00000,69,22,21,7,70,6,32,-3,ok,2,0,0.003,10,0.59,0.28,10.99,57,0.076,8.19
9.7388,0.00524,-0.04538,1.42768,0.00000,0.00000,0.00000,68,23,22,7,70,8,30,0,ok,2,0,0.003,10,0.59,0.28,10.99,57,0.089,8.19
9.7436,0.00524,-0.04538,1.42768,0.00000,0.00000,0.00000,68,24,23,6,71,8,29,2,ok,2,0,0.003,10,0.59,0.28,10.99,57,0.101,8.19
9.7561,0.00524,-0.04538,1.42768,0.00000,0.00000,0.00000,68,25,24,5,71,9,28,6,ok,2,0,0.003,10,0.59,0.28,10.99,57,0.114,8.19
9.7788,0.00524,-0.04538,1.42768,0.00000,0.00000,0.00000,67,28,25,5,71,10,27,8,ok,2,0,0.003,10,0.59,0.28,10.99,57,0.126,8.19
9.7821,0.00524,-0.04538,1.42768,0.00000,0.00000,0.00000,66,29,27,4,70,12,29,6,ok,2,0,0.003,10,0.59,0.28,10.99,57,0.139,8.19
9.7947,0.00524,-0.04538,1.42768,0.00000,0.00000,0.00000,68,28,28,4,71,13,30,6,ok,2,0,0.003,10,0.59,0.28,10.99,57,0.152,8.19
9.8148,0.00524,-0.04538,1.42768,0.00000,0.00000,0.00000,70,25,29,3,71,15,31,4,ok,2,0,0.003,10,0.59,0.28,10.99,57,0.165,8.19
9.8197,0.00524,-0.04538,1.42768,0.00000,0.00000,0.00000,72,21,31,3,70,16,32,3,ok,2,0,0.003,10,0.59,0.28,10.99,57,0.177,8.19
9.8321,0.00524,-0.04538,1.42768,0.00000,0.00000,0.00000,73,17,32,3,70,18,34,3,ok,2,0,0.003,10,0.59,0.28,10.99,57,0.190,8.19
9.8548,0.02793,0.04014,1.50273,0.00000,0.00000,0.00000,73,15,33,3,71,19,35,2,ok,2,0,0.003,10,1.19,-0.48,10.60,58,0.000,8.19
9.8579,0.02793,0.04014,1.50273,0.00000,0.00000,0.00000,73,14,35,2,70,21,37,1,ok,2,0,0.003,10,1.19,-0.48,10.60,58,0.013,8.19
9.8706,0.02793,0.04014,1.50273,0.00000,0.00000,0.00000,73,11,36,2,70,22,39,1,ok,2,0,0.003,10,1.19,-0.48,10.60,58,0.026,8.19
9.8908,0.02793,0.04014,1.50273,0.00000,0.00000,0.00000,72,8,37,2,70,24,39,2,ok,2,0,0.003,10,1.19,-0.48,10.60,58,0.039,8.19
9.8958,0.02793,0.04014,1.50273,0.00000,0.00000,0.00000,72,5,38,2,71,26,41,2,ok,2,0,0.003,10,1.19,-0.48,10.60,58,0.051,8.19
9.9080,0.02793,0.04014,1.50273,0.00000,0.00000,0.00000,71,2,40,2,70,28,42,2,ok,2,0,0.003,10,1.19,-0.48,10.60,58,0.063,8.19
9.9308,0.02793,0.04014,1.50273,0.00000,0.00000,0.00000,70,0,41,2,70,29,43,2,ok,2,0,0.003,10,1.19,-0.48,10.60,58,0.076,8.19
9.9339,0.02793,0.04014,1.50273,0.00000,0.00000,0.00000,68,-3,43,2,70,29,44,1,ok,2,0,0.003,10,1.19,-0.48,10.60,58,0.089,8.19
9.9468,0.02793,0.04014,1.50273,0.00000,0.00000,0.00000,66,-4,43,2,72,29,45,1,ok,2,0,0.003,10,1.19,-0.48,10.60,58,0.102,8.19
9.9668,0.02793,0.04014,1.50273,0.00000,0.00000,0.00000,65,-6,45,3,73,27,47,0,ok,2,0,0.003,10,1.19,-0.48,10.60,58,0.114,8.19
9.9716,0.02793,0.04014,1.50273,0.00000,0.00000,0.00000,64,-8,46,3,75,22,48,0,ok,2,0,0.003,10,1.19,-0.48,10.60,58,0.127,8.19
9.9841,0.02793,0.04014,1.50273,0.00000,0.00000,0.00000,62,-9,47,4,76,17,49,1,ok,2,0,0.003,10,1.19,-0.48,10.60,58,0.140,8.19
10.0068,0.02793,0.04014,1.50273,0.00000,0.00000,0.00000,60,-10,49,3,78,15,50,1,ok,2,0,0.003,10,1.19,-0.48,10.60,58,0.152,8.19
10.0099,0.02793,0.04014,1.50273,0.00000,0.00000,0.00000,57,-10,49,3,78,14,50,1,ok,2,0,0.003,10,1.19,-0.48,10.60,58,0.165,8.19
10.0306,0.02793,0.04014,1.50273,0.00000,0.00000,0.00000,55,-11,49,5,78,12,52,1,ok,2,0,0.003,10,1.19,-0.48,10.60,58,0.178,8.19
10.0468,0.02793,0.04014,1.50273,0.00000,0.00000,0.00000,52,-11,51,6,78,8,52,1,ok,2,0,0.003,10,1.19,-0.48,10.60,58,0.191,8.19
10.0502,0.08552,0.01396,1.49051,0.00000,0.00000,0.00000,50,-11,52,6,78,5,54,1,ok,2,0,0.003,10,-0.42,1.03,11.23,59,0.000,8.19
10.0628,0.08552,0.01396,1.49051,0.00000,0.00000,0.00000,48,-11,53,6,77,3,55,0,ok,2,0,0.003,10,-0.42,1.03,11.23,59,0.013,8.19
10.0828,0.08552,0.01396,1.49051,0.00000,0.00000,0.00000,45,-11,53,7,76,0,55,1,ok,2,0,0.003,10,-0.42,1.03,11.23,59,0.025,8.19
10.0875,0.08552,0.01396,1.49051,0.00000,0.00000,0.00000,43,-11,55,7,76,-2,56,0,ok,2,0,0.003,10,-0.42,1.03,11.23,59,0.038,8.19
10.1003,0.08552,0.01396,1.49051,0.00000,0.00000,0.00000,40,-10,55,7,75,-4,57,1,ok,2,0,0.003,10,-0.42,1.03,11.23,59,0.050,8.19
10.1228,0.08552,0.01396,1.49051,0.00000,0.00000,0.00000,37,-9,56,8,73,-7,57,-1,ok,2,0,0.003,10,-0.42,1.03,11.23,59,0.063,8.19
10.1260,0.08552,0.01396,1.49051,0.00000,0.00000,0.00000,34,-8,57,8,70,-7,58,0,ok,2,0,0.003,10,-0.42,1.03,11.23,59,0.076,8.19
10.1385,0.08552,0.01396,1.49051,0.00000,0.00000,0.00000,31,-6,57,9,69,-9,58,0,ok,2,0,0.003,10,-0.42,1.03,11.23,59,0.089,8.19
10.1588,0.08552,0.01396,1.49051,0.00000,0.00000,0.00000,28,-4,58,9,68,-10,60,1,ok,2,0,0.003,10,-0.42,1.03,11.23,59,0.101,8.19
10.1635,0.08552,0.01396,1.49051,0.00000,0.00000,0.00000,24,-1,59,11,66,-12,61,1,ok,2,0,0.003,10,-0.42,1.03,11.23,59,0.114,8.19
10.1762,0.08552,0.01396,1.49051,0.00000,0.00000,0.00000,23,-1,60,11,63,-12,61,0,ok,2,0,0.003,10,-0.42,1.03,11.23,59,0.126,8.19
10.1988,0.08552,0.01396,1.49051,0.00000,0.00000,0.00000,21,1,61,12,62,-13,64,-2,ok,2,0,0.003,10,-0.42,1.03,11.23,59,0.139,8.19
10.2020,0.08552,0.01396,1.49051,0.00000,0.00000,0.00000,19,3,61,12,59,-13,64,-1,ok,2,0,0.003,10,-0.42,1.03,11.23,59,0.152,8.19
10.2145,0.08552,0.01396,1.49051,0.00000,0.00000,0.00000,16,7,62,13,57,-14,65,-1,ok,2,0,0.003,10,-0.42,1.03,11.23,59,0.165,8.19
10.2348,0.08552,0.01396,1.49051,0.00000,0.00000,0.00000,15,10,62,14,54,-13,66,0,ok,2,0,0.003,10,-0.42,1.03,11.23,59,0.177,8.19
10.2397,0.08552,0.01396,1.49051,0.00000,0.00000,0.00000,13,13,63,15,51,-12,66,-1,ok,2,0,0.003,10,-0.42,1.03,11.23,59,0.190,8.19
10.2524,0.12392,0.00524,1.51844,0.00000,0.00000,0.00000,15,13,63,16,49,-12,67,0,ok,2,0,0.003,10,0.27,1.21,9.78,60,0.000,8.19
10.2748,0.12392,0.00524,1.51844,0.00000,0.00000,0.00000,15,13,63,17,46,-11,68,0,ok,2,0,0.003,10,0.27,1.21,9.78,60,0.012,8.19
10.2782,0.12392,0.00524,1.51844,0.00000,0.00000,0.00000,16,12,64,17,44,-10,69,1,ok,2,0,0.003,10,0.27,1.21,9.78,60,0.026,8.19
10.2906,0.12392,0.00524,1.51844,0.00000,0.00000,0.00000,17,12,64,18,40,-9,70,1,ok,2,0,0.003,10,0.27,1.21,9.78,60,0.039,8.19
10.3108,0.12392,0.00524,1.51844,0.00000,0.00000,0.00000,18,11,65,19,38,-9,70,2,ok,2,0,0.003,10,0.27,1.21,9.78,60,0.051,8.19
10.3158,0.12392,0.00524,1.51844,0.00000,0.00000,0.00000,20,10,65,20,34,-7,70,3,ok,2,0,0.003,10,0.27,1.21,9.78,60,0.064,8.19
10.3282,0.12392,0.00524,1.51844,0.00000,0.00000,0.00000,20,10,65,21,33,-6,71,3,ok,2,0,0.003,10,0.27,1.21,9.78,60,0.076,8.19
10.3508,0.12392,0.00524,1.51844,0.00000,0.00000,0.00000,23,9,65,22,31,-4,72,5,ok,2,0,0.003,10,0.27,1.21,9.78,60,0.089,8.19
10.3540,0.12392,0.00524,1.51844,0.00000,0.00000,0.00000,24,8,65,23,28,-1,72,5,ok,2,0,0.003,10,0.27,1.21,9.78,60,0.102,8.19
10.3665,0.12392,0.00524,1.51844,0.00000,0.00000,0.00000,25,7,65,23,27,1,72,7,ok,2,0,0.003,10,0.27,1.21,9.78,60,0.114,8.19
10.3868,0.12392,0.00524,1.51844,0.00000,0.00000,0.00000,27,6,65,24,26,4,72,8,ok,2,0,0.003,10,0.27,1.21,9.78,60,0.127,8.19
10.3915,0.12392,0.00524,1.51844,0.00000,0.00000,0.00000,28,6,64,25,25,7,73,9,ok,2,0,0.003,10,0.27,1.21,9.78,60,0.139,8.19
10.4041,0.12392,0.00524,1.51844,0.00000,0.00000,0.00000,29,5,64,28,27,6,73,10,ok,2,0,0.003,10,0.27,1.21,9.78,60,0.152,8.19
10.4268,0.12392,0.00524,1.51844,0.00000,0.00000,0.00000,30,4,63,29,27,6,73,12,ok,2,0,0.003,10,0.27,1.21,9.78,60,0.165,8.19
10.4300,0.12392,0.00524,1.51844,0.00000,0.00000,0.00000,31,4,64,28,29,4,73,13,ok,2,0,0.003,10,0.27,1.21,9.78,60,0.178,8.19
10.4427,0.12392,0.00524,1.51844,0.00000,0.00000,0.00000,33,3,67,25,30,3,74,15,ok,2,0,0.003,10,0.27,1.21,9.78,60,0.190,8.19
10.4628,0.05760,0.00349,1.46608,0.00000,0.00000,0.00000,34,3,69,21,31,3,74,16,ok,2,0,0.003,10,0.04,0.29,9.38,61,0.000,8.19
10.4678,0.05760,0.00349,1.46608,0.00000,0.00000,0.00000,35,2,70,18,32,3,73,18,ok,2,0,0.003,10,0.04,0.29,9.38,61,0.012,8.19
10.4801,0.05760,0.00349,1.46608,0.00000,0.00000,0.00000,37,2,71,16,33,1,73,20,ok,2,0,0.003,10,0.04,0.29,9.38,61,0.025,8.19
10.5028,0.05760,0.00349,1.46608,0.00000,0.00000,0.00000,38,1,71,15,36,2,74,21,ok,2,0,0.003,10,0.04,0.29,9.38,61,0.038,8.19
10.5060,0.05760,0.00349,1.46608,0.00000,0.00000,0.00000,40,1,71,12,36,2,73,23,ok,2,0,0.003,10,0.04,0.29,9.38,61,0.051,8.19
10.5185,0.05760,0.00349,1.46608,0.00000,0.00000,0.00000,41,1,70,9,38,2,73,24,ok,2,0,0.003,10,0.04,0.29,9.38,61,0.063,8.19
10.5388,0.05760,0.00349,1.46608,0.00000,0.00000,0.00000,42,1,70,6,39,1,74,25,ok,2,0,0.003,10,0.04,0.29,9.38,61,0.076,8.19
10.5436,0.05760,0.00349,1.46608,0.00000,0.00000,0.00000,44,0,69,4,40,2,73,27,ok,2,0,0.003,10,0.04,0.29,9.38,61,0.089,8.19
10.5561,0.05760,0.00349,1.46608,0.00000,0.00000,0.00000,45,0,68,2,41,1,73,28,ok,2,0,0.003,10,0.04,0.29,9.38,61,0.101,8.19
10.5788,0.05760,0.00349,1.46608,0.00000,0.00000,0.00000,47,0,67,0,43,1,73,29,ok,2,0,0.003,10,0.04,0.29,9.38,61,0.114,8.19
10.5822,0.05760,0.00349,1.46608,0.00000,0.00000,0.00000,47,0,65,-1,44,0,74,29,ok,2,0,0.003,10,0.04,0.29,9.38,61,0.127,8.19
10.5945,0.05760,0.00349,1.46608,0.00000,0.00000,0.00000,48,0,64,-3,45,0,75,29,ok,2,0,0.003,10,0.04,0.29,9.38,61,0.140,8.19
10.6148,0.05760,0.00349,1.46608,0.00000,0.00000,0.00000,50,1,63,-6,47,0,77,26,ok,2,0,0.003,10,0.04,0.29,9.38,61,0.152,8.19
10.6196,0.05760,0.00349,1.46608,0.00000,0.00000,0.00000,51,2,61,-6,47,0,78,21,ok,2,0,0.003,10,0.04,0.29,9.38,61,0.165,8.19
10.6321,0.05760,0.00349,1.46608,0.00000,0.00000,0.00000,52,1,58,-8,48,0,80,17,ok,2,0,0.003,10,0.04,0.29,9.38,61,0.177,8.19
10.6548,0.05760,0.00349,1.46608,0.00000,0.00000,0.00000,52,1,56,-8,49,0,81,14,ok,2,0,0.003,10,0.04,0.29,9.38,61,0.190,8.19
10.6584,-0.08901,-0.00524,1.53589,0.00000,0.00000,0.00000,52,4,53,-9,51,0,81,14,ok,2,0,0.003,10,-0.38,-0.44,10.31,62,0.000,8.19
10.6707,-0.08901,-0.00524,1.53589,0.00000,0.00000,0.00000,54,5,51,-9,52,0,81,11,ok,2,0,0.003,10,-0.38,-0.44,10.31,62,0.013,8.19
10.6908,-0.08901,-0.00524,1.53589,0.00000,0.00000,0.00000,54,4,48,-9,53,0,81,8,ok,2,0,0.003,11,-0.38,-0.44,10.31,62,0.025,8.19
10.6956,-0.08901,-0.00524,1.53589,0.00000,0.00000,0.00000,55,5,45,-8,54,1,81,5,ok,2,0,0.003,11,-0.38,-0.44,10.31,62,0.038,8.19
10.7081,-0.08901,-0.00524,1.53589,0.00000,0.00000,0.00000,55,6,43,-8,55,1,80,3,ok,2,0,0.003,11,-0.38,-0.44,10.31,62,0.050,8.19
10.7308,-0.08901,-0.00524,1.53589,0.00000,0.00000,0.00000,57,6,40,-9,56,1,79,-1,ok,2,0,0.003,11,-0.38,-0.44,10.31,62,0.063,8.19
10.7342,-0.08901,-0.00524,1.53589,0.00000,0.00000,0.00000,58,6,38,-8,57,1,79,-3,ok,2,0,0.003,11,-0.38,-0.44,10.31,62,0.076,8.19
10.7465,-0.08901,-0.00524,1.53589,0.00000,0.00000,0.00000,59,7,35,-6,57,1,77,-4,ok,2,0,0.003,11,-0.38,-0.44,10.31,62,0.089,8.19
10.7668,-0.08901,-0.00524,1.53589,0.00000,0.00000,0.00000,59,8,32,-5,58,2,76,-6,ok,2,0,0.003,11,-0.38,-0.44,10.31,62,0.101,8.19
10.7715,-0.08901,-0.00524,1.53589,0.00000,0.00000,0.00000,60,8,28,-4,59,2,73,-7,ok,2,0,0.003,11,-0.38,-0.44,10.31,62,0.114,8.19
10.7841,-0.08901,-0.00524,1.53589,0.00000,0.00000,0.00000,61,9,26,-3,60,2,71,-8,ok,2,0,0.003,11,-0.38,-0.44,10.31,62,0.126,8.19
10.8068,-0.08901,-0.00524,1.53589,0.00000,0.00000,0.00000,62,10,21,-1,61,1,70,-10,ok,2,0,0.003,11,-0.38,-0.44,10.31,62,0.139,8.19
10.8100,-0.08901,-0.00524,1.53589,0.00000,0.00000,0.00000,63,10,19,0,64,-1,68,-11,ok,2,0,0.003,11,-0.38,-0.44,10.31,62,0.152,8.19
10.8228,-0.08901,-0.00524,1.53589,0.00000,0.00000,0.00000,64,11,18,2,64,0,65,-13,ok,2,0,0.003,11,-0.38,-0.44,10.31,62,0.165,8.19
10.8468,-0.08901,-0.00524,1.53589,0.00000,0.00000,0.00000,64,12,16,4,65,1,64,-13,ok,2,0,0.003,11,-0.38,-0.44,10.31,62,0.177,8.19
10.8502,-0.04538,-0.00698,1.56905,0.00000,0.00000,0.00000,65,12,14,7,65,0,61,-13,ok,2,0,0.003,11,0.14,-0.07,11.09,63,0.000,8.19
10.8626,-0.04538,-0.00698,1.56905,0.00000,0.00000,0.00000,65,14,12,11,66,1,59,-14,ok,2,0,0.003,11,0.14,-0.07,11.09,63,0.013,8.19
10.8828,-0.04538,-0.00698,1.56905,0.00000,0.00000,0.00000,65,14,10,13,66,1,56,-12,ok,2,0,0.003,11,0.14,-0.07,11.09,63,0.025,8.19
10.8876,-0.04538,-0.00698,1.56905,0.00000,0.00000,0.00000,66,15,12,13,67,1,53,-12,ok,2,0,0.003,11,0.14,-0.07,11.09,63,0.038,8.19
10.9001,-0.04538,-0.00698,1.56905,0.00000,0.00000,0.00000,66,16,12,13,68,2,51,-12,ok,2,0,0.003,11,0.14,-0.07,11.09,63,0.050,8.19
10.9228,-0.04538,-0.00698,1.56905,0.00000,0.00000,0.00000,67,17,13,12,68,2,48,-11,ok,2,0,0.003,11,0.14,-0.07,11.09,63,0.063,8.19
10.9259,-0.04538,-0.00698,1.56905,0.00000,0.00000,0.00000,67,18,15,11,68,3,46,-10,ok,2,0,0.003,11,0.14,-0.07,11.09,63,0.076,8.19
10.9387,-0.04538,-0.00698,1.56905,0.00000,0.00000,0.00000,67,18,15,10,68,3,42,-9,ok,2,0,0.003,11,0.14,-0.07,11.09,63,0.089,8.19
10.9588,-0.04538,-0.00698,1.56905,0.00000,0.00000,0.00000,68,19,17,9,69,4,40,-8,ok,2,0,0.003,11,0.14,-0.07,11.09,63,0.101,8.19
10.9636,-0.04538,-0.00698,1.56905,0.00000,0.00000,0.00000,68,20,17,9,69,5,36,-6,ok,2,0,0.003,11,0.14,-0.07,11.09,63,0.114,8.19
10.9761,-0.04538,-0.00698,1.56905,0.00000,0.00000,0.00000,69,21,19,8,70,5,35,-5,ok,2,0,0.003,11,0.14,-0.07,11.09,63,0.126,8.19
10.9988,-0.04538,-0.00698,1.56905,0.00000,0.00000,0.00000,69,22,20,7,70,7,32,-3,ok,2,0,0.003,11,0.14,-0.07,11.09,63,0.139,8.19
11.0019,-0.04538,-0.00698,1.56905,0.00000,0.00000,0.00000,68,23,22,7,70,8,30,0,ok,2,0,0.003,11,0.14,-0.07,11.09,63,0.152,8.19
11.0146,-0.04538,-0.00698,1.56905,0.00000,0.00000,0.00000,68,24,23,6,71,9,29,2,ok,2,0,0.003,11,0.14,-0.07,11.09,63,0.165,8.19
11.0348,-0.04538,-0.00698,1.56905,0.00000,0.00000,0.00000,68,25,24,6,71,9,28,6,ok,2,0,0.003,11,0.14,-0.07,11.09,63,0.177,8.19
11.0398,-0.04538,-0.00698,1.56905,0.00000,0.00000,0.00000,67,28,25,5,71,11,27,8,ok,2,0,0.003,11,0.14,-0.07,11.09,63,0.190,8.19
11.0522,-0.04538,-0.00698,1.56905,0.00000,0.00000,0.00000,66,29,27,4,71,12,29,7,ok,2,0,0.003,11,0.14,-0.07,11.09,63,0.202,8.19
11.0748,0.02094,0.01571,1.63363,0.00000,0.00000,0.00000,68,28,28,4,71,13,30,6,ok,2,0,0.003,11,1.66,-0.72,10.30,64,0.000,8.19
11.0779,0.02094,0.01571,1.63363,0.00000,0.00000,0.00000,70,25,29,3,71,15,31,4,ok,2,0,0.003,11,1.66,-0.72,10.30,64,0.013,8.19
11.0906,0.02094,0.01571,1.63363,0.00000,0.00000,0.00000,72,21,30,3,71,16,32,3,ok,2,0,0.003,11,1.66,-0.72,10.30,64,0.026,8.19
11.1108,0.02094,0.01571,1.63363,0.00000,0.00000,0.00000,73,17,32,3,71,18,34,3,ok,2,0,0.003,11,1.66,-0.72,10.30,64,0.038,8.19
11.1156,0.02094,0.01571,1.63363,0.00000,0.00000,0.00000,73,15,33,2,71,19,35,2,ok,2,0,0.003,11,1.66,-0.72,10.30,64,0.051,8.19
11.1281,0.02094,0.01571,1.63363,0.00000,0.00000,0.00000,73,14,35,2,70,21,37,2,ok,2,0,0.003,11,1.66,-0.72,10.30,64,0.063,8.19
11.1508,0.02094,0.01571,1.63363,0.00000,0.00000,0.00000,73,11,36,2,70,23,39,2,ok,2,0,0.003,11,1.66,-0.72,10.30,64,0.076,8.19
11.1541,0.02094,0.01571,1.63363,0.00000,0.00000,0.00000,72,8,37,2,70,24,39,2,ok,2,0,0.003,11,1.66,-0.72,10.30,64,0.089,8.19
11.1667,0.02094,0.01571,1.63363,0.00000,0.00000,0.00000,72,5,38,2,71,26,41,2,ok,2,0,0.003,11,1.66,-0.72,10.30,64,0.102,8.19
11.1868,0.02094,0.01571,1.63363,0.00000,0.00000,0.00000,71,1,40,2,70,28,42,2,ok,2,0,0.003,11,1.66,-0.72,10.30,64,0.115,8.19
11.1916,0.02094,0.01571,1.63363,0.00000,0.00000,0.00000,70,0,41,2,70,29,43,2,ok,2,0,0.003,11,1.66,-0.72,10.30,64,0.127,8.19
11.2043,0.02094,0.01571,1.63363,0.00000,0.00000,0.00000,68,-3,43,2,70,29,44,1,ok,2,0,0.003,11,1.66,-0.72,10.30,64,0.140,8.19
11.2268,0.02094,0.01571,1.63363,0.00000,0.00000,0.00000,66,-4,43,2,71,29,46,1,ok,2,0,0.003,11,1.66,-0.72,10.30,64,0.152,8.19
11.2299,0.02094,0.01571,1.63363,0.00000,0.00000,0.00000,65,-6,45,3,73,27,47,1,ok,2,0,0.003,11,1.66,-0.72,10.30,64,0.165,8.19
11.2426,0.02094,0.01571,1.63363,0.00000,0.00000,0.00000,64,-8,46,3,75,22,48,1,ok,2,0,0.003,11,1.66,-0.72,10.30,64,0.178,8.19
11.2628,0.02094,0.01571,1.63363,0.00000,0.00000,0.00000,62,-9,47,4,76,17,49,1,ok,2,0,0.003,11,1.66,-0.72,10.30,64,0.190,8.19
11.2679,0.09250,0.04712,1.65632,0.00000,0.00000,0.00000,60,-10,49,3,78,15,50,1,ok,2,0,0.003,11,0.79,1.26,9.77,65,0.000,8.19
11.2800,0.09250,0.04712,1.65632,0.00000,0.00000,0.00000,57,-10,49,3,78,14,50,1,ok,2,0,0.003,11,0.79,1.26,9.77,65,0.013,8.19
11.3028,0.09250,0.04712,1.65632,0.00000,0.00000,0.00000,55,-11,49,5,78,12,52,1,ok,2,0,0.003,11,0.79,1.26,9.77,65,0.025,8.19
11.3059,0.09250,0.04712,1.65632,0.00000,0.00000,0.00000,52,-11,51,6,78,9,53,0,ok,2,0,0.003,11,0.79,1.26,9.77,65,0.038,8.19
11.3186,0.09250,0.04712,1.65632,0.00000,0.00000,0.00000,50,-11,52,6,78,6,54,1,ok,2,0,0.003,11,0.79,1.26,9.77,65,0.051,8.19
11.3388,0.09250,0.04712,1.65632,0.00000,0.00000,0.00000,48,-10,53,6,77,3,55,0,ok,2,0,0.003,11,0.79,1.26,9.77,65,0.064,8.19
11.3437,0.09250,0.04712,1.65632,0.00000,0.00000,0.00000,45,-11,53,7,76,0,55,1,ok,2,0,0.003,11,0.79,1.26,9.77,65,0.076,8.19
11.3561,0.09250,0.04712,1.65632,0.00000,0.00000,0.00000,43,-11,55,7,76,-2,56,0,ok,2,0,0.003,11,0.79,1.26,9.77,65,0.089,8.19
11.3788,0.09250,0.04712,1.65632,0.00000,0.00000,0.00000,41,-10,55,7,75,-4,57,1,ok,2,0,0.003,11,0.79,1.26,9.77,65,0.101,8.19
11.3821,0.09250,0.04712,1.65632,0.00000,0.00000,0.00000,37,-9,56,8,73,-7,58,0,ok,2,0,0.003,11,0.79,1.26,9.77,65,0.114,8.19
11.3946,0.09250,0.04712,1.65632,0.00000,0.00000,0.00000,35,-7,56,9,70,-6,58,0,ok,2,0,0.003,11,0.79,1.26,9.77,65,0.127,8.19
11.4148,0.09250,0.04712,1.65632,0.00000,0.00000,0.00000,31,-6,57,9,69,-8,59,1,ok,2,0,0.003,11,0.79,1.26,9.77,65,0.140,8.19
11.4197,0.09250,0.04712,1.65632,0.00000,0.00000,0.00000,29,-4,58,10,68,-10,60,1,ok,2,0,0.003,11,0.79,1.26,9.77,65,0.152,8.19
11.4320,0.09250,0.04712,1.65632,0.00000,0.00000,0.00000,24,-1,59,11,65,-11,61,1,ok,2,0,0.003,11,0.79,1.26,9.77,65,0.164,8.19
11.4548,0.09250,0.04712,1.65632,0.00000,0.00000,0.00000,23,-1,60,11,63,-12,62,0,ok,2,0,0.003,11,0.79,1.26,9.77,65,0.177,8.19
11.4580,0.09250,0.04712,1.65632,0.00000,0.00000,0.00000,21,1,61,12,62,-12,64,-2,ok,2,0,0.003,11,0.79,1.26,9.77,65,0.190,8.19
11.4709,0.05760,-0.03665,1.67377,0.00000,0.00000,0.00000,19,3,61,12,59,-13,64,-1,ok,2,0,0.003,11,-0.51,0.36,9.94,66,0.000,8.19
11.4908,0.05760,-0.03665,1.67377,0.00000,0.00000,0.00000,17,7,62,13,57,-14,65,-1,ok,2,0,0.003,11,-0.51,0.36,9.94,66,0.012,8.19
11.4958,0.05760,-0.03665,1.67377,0.00000,0.00000,0.00000,15,10,62,14,54,-13,66,0,ok,2,0,0.003,11,-0.51,0.36,9.94,66,0.025,8.19
11.5080,0.05760,-0.03665,1.67377,0.00000,0.00000,0.00000,13,13,63,15,51,-12,66,0,ok,2,0,0.003,11,-0.51,0.36,9.94,66,0.038,8.19
11.5308,0.05760,-0.03665,1.67377,0.00000,0.00000,0.00000,15,13,63,16,49,-12,67,1,ok,2,0,0.003,11,-0.51,0.36,9.94,66,0.050,8.19
11.5339,0.05760,-0.03665,1.67377,0.00000,0.00000,0.00000,15,13,63,17,46,-11,68,0,ok,2,0,0.003,11,-0.51,0.36,9.94,66,0.063,8.19
11.5468,0.05760,-0.03665,1.67377,0.00000,0.00000,0.00000,16,12,64,17,44,-11,69,1,ok,2,0,0.003,11,-0.51,0.36,9.94,66,0.076,8.19
11.5668,0.05760,-0.03665,1.67377,0.00000,0.00000,0.00000,18,12,64,19,40,-9,70,1,ok,2,0,0.003,11,-0.51,0.36,9.94,66,0.089,8.19
11.5716,0.05760,-0.03665,1.67377,0.00000,0.00000,0.00000,18,11,65,19,38,-9,70,2,ok,2,0,0.003,11,-0.51,0.36,9.94,66,0.101,8.19
11.5841,0.05760,-0.03665,1.67377,0.00000,0.00000,0.00000,20,10,65,20,34,-7,70,3,ok,2,0,0.003,11,-0.51,0.36,9.94,66,0.114,8.19
11.6068,0.05760,-0.03665,1.67377,0.00000,0.00000,0.00000,21,10,65,21,33,-6,71,4,ok,2,0,0.003,11,-0.51,0.36,9.94,66,0.126,8.19
11.6099,0.05760,-0.03665,1.67377,0.00000,0.00000,0.00000,23,9,65,22,31,-5,71,5,ok,2,0,0.003,11,-0.51,0.36,9.94,66,0.139,8.19
11.6226,0.05760,-0.03665,1.67377,0.00000,0.00000,0.00000,24,8,65,23,28,-1,72,5,ok,2,0,0.003,11,-0.51,0.36,9.94,66,0.152,8.19
11.6428,0.05760,-0.03665,1.67377,0.00000,0.00000,0.00000,25,7,65,23,27,1,72,7,ok,2,0,0.003,11,-0.51,0.36,9.94,66,0.164,8.19
11.6476,0.05760,-0.03665,1.67377,0.00000,0.00000,0.00000,27,6,65,25,26,4,72,8,ok,2,0,0.003,11,-0.51,0.36,9.94,66,0.177,8.19
11.6604,0.05760,-0.03665,1.67377,0.00000,0.00000,0.00000,28,6,64,25,25,7,73,9,ok,2,0,0.003,11,-0.51,0.36,9.94,66,0.190,8.19
11.6828,-0.03665,0.01396,1.68075,0.00000,0.00000,0.00000,29,6,64,28,27,6,73,10,ok,2,0,0.003,11,-0.30,0.60,9.54,67,0.000,8.19
11.6859,-0.03665,0.01396,1.68075,0.00000,0.00000,0.00000,30,5,63,30,28,6,73,12,ok,2,0,0.003,11,-0.30,0.60,9.54,67,0.013,8.19
11.6986,-0.03665,0.01396,1.68075,0.00000,0.00000,0.00000,32,4,64,28,29,4,73,13,ok,2,0,0.003,12,-0.30,0.60,9.54,67,0.026,8.19
11.7188,-0.03665,0.01396,1.68075,0.00000,0.00000,0.00000,33,3,67,25,30,3,73,15,ok,2,0,0.003,12,-0.30,0.60,9.54,67,0.039,8.19
11.7239,-0.03665,0.01396,1.68075,0.00000,0.00000,0.00000,34,3,69,22,31,3,74,16,ok,2,0,0.003,12,-0.30,0.60,9.54,67,0.051,8.19
11.7361,-0.03665,0.01396,1.68075,0.00000,0.00000,0.00000,36,2,70,18,32,3,73,18,ok,2,0,0.003,12,-0.30,0.60,9.54,67,0.064,8.19
11.7588,-0.03665,0.01396,1.68075,0.00000,0.00000,0.00000,37,2,71,16,33,1,73,20,ok,2,0,0.003,12,-0.30,0.60,9.54,67,0.076,8.19
11.7619,-0.03665,0.01396,1.68075,0.00000,0.00000,0.00000,38,1,71,15,36,2,74,21,ok,2,0,0.003,12,-0.30,0.60,9.54,67,0.089,8.19
11.7746,-0.03665,0.01396,1.68075,0.00000,0.00000,0.00000,40,1,71,12,36,2,73,23,ok,2,0,0.003,12,-0.30,0.60,9.54,67,0.102,8.19
11.7948,-0.03665,0.01396,1.68075,0.00000,0.00000,0.00000,41,1,70,9,38,2,73,24,ok,2,0,0.003,12,-0.30,0.60,9.54,67,0.115,8.19
11.7998,-0.03665,0.01396,1.68075,0.00000,0.00000,0.00000,42,1,70,6,40,2,73,25,ok,2,0,0.003,12,-0.30,0.60,9.54,67,0.127,8.19
11.8121,-0.03665,0.01396,1.68075,0.00000,0.00000,0.00000,44,0,69,3,40,2,73,27,ok,2,0,0.003,12,-0.30,0.60,9.54,67,0.140,8.19
11.8348,-0.03665,0.01396,1.68075,0.00000,0.00000,0.00000,45,0,68,1,42,1,72,28,ok,2,0,0.003,12,-0.30,0.60,9.54,67,0.152,8.19
11.8381,-0.03665,0.01396,1.68075,0.00000,0.00000,0.00000,47,0,67,0,43,1,72,29,ok,2,0,0.003,12,-0.30,0.60,9.54,67,0.165,8.19
11.8506,-0.03665,0.01396,1.68075,0.00000,0.00000,0.00000,47,0,65,-1,44,0,73,29,ok,2,0,0.003,12,-0.30,0.60,9.54,67,0.178,8.19
11.8708,-0.03665,0.01396,1.68075,0.00000,0.00000,0.00000,48,1,64,-4,46,0,74,29,ok,2,0,0.003,12,-0.30,0.60,9.54,67,0.191,8.19
11.8758,-0.05411,-0.00349,1.67901,0.00000,0.00000,0.00000,50,1,63,-6,47,0,76,27,ok,2,0,0.003,12,-0.02,-0.85,10.82,68,0.000,8.19
11.8881,-0.05411,-0.00349,1.67901,0.00000,0.00000,0.00000,51,2,61,-7,48,0,78,21,ok,2,0,0.003,12,-0.02,-0.85,10.82,68,0.013,8.19
11.9108,-0.05411,-0.00349,1.67901,0.00000,0.00000,0.00000,52,1,58,-8,48,0,79,18,ok,2,0,0.003,12,-0.02,-0.85,10.82,68,0.025,8.19
11.9139,-0.05411,-0.00349,1.67901,0.00000,0.00000,0.00000,52,1,56,-8,50,0,81,14,ok,2,0,0.003,12,-0.02,-0.85,10.82,68,0.038,8.19
11.9266,-0.05411,-0.00349,1.67901,0.00000,0.00000,0.00000,52,4,53,-9,51,0,81,14,ok,2,0,0.003,12,-0.02,-0.85,10.82,68,0.051,8.19
11.9468,-0.05411,-0.00349,1.67901,0.00000,0.00000,0.00000,53,5,51,-9,52,1,81,11,ok,2,0,0.003,12,-0.02,-0.85,10.82,68,0.063,8.19
11.9519,-0.05411,-0.00349,1.67901,0.00000,0.00000,0.00000,54,4,48,-9,53,1,81,7,ok,2,0,0.003,12,-0.02,-0.85,10.82,68,0.076,8.19
11.9641,-0.05411,-0.00349,1.67901,0.00000,0.00000,0.00000,55,5,46,-8,54,1,80,4,ok,2,0,0.003,12,-0.02,-0.85,10.82,68,0.089,8.19
11.9868,-0.05411,-0.00349,1.67901,0.00000,0.00000,0.00000,55,6,43,-9,55,1,80,3,ok,2,0,0.003,12,-0.02,-0.85,10.82,68,0.101,8.19
11.9901,-0.05411,-0.00349,1.67901,0.00000,0.00000,0.00000,57,6,41,-9,56,2,79,-1,ok,2,0,0.003,12,-0.02,-0.85,10.82,68,0.114,8.19
12.0026,-0.05411,-0.00349,1.67901,0.00000,0.00000,0.00000,58,6,38,-8,57,1,79,-3,ok,2,0,0.003,12,-0.02,-0.85,10.82,68,0.127,8.19
12.0228,-0.05411,-0.00349,1.67901,0.00000,0.00000,0.00000,59,7,35,-7,57,1,77,-4,ok,2,0,0.003,12,-0.02,-0.85,10.82,68,0.139,8.19
12.0276,-0.05411,-0.00349,1.67901,0.00000,0.00000,0.00000,59,8,32,-6,58,2,75,-6,ok,2,0,0.003,12,-0.02,-0.85,10.82,68,0.152,8.19
12.0401,-0.05411,-0.00349,1.67901,0.00000,0.00000,0.00000,60,8,28,-5,59,2,72,-7,ok,2,0,0.003,12,-0.02,-0.85,10.82,68,0.164,8.19
12.0629,-0.05411,-0.00349,1.67901,0.00000,0.00000,0.00000,61,9,25,-3,60,2,71,-8,ok,2,0,0.003,12,-0.02,-0.85,10.82,68,0.177,8.19
12.0661,-0.05411,-0.00349,1.67901,0.00000,0.00000,0.00000,63,10,21,-1,61,1,70,-10,ok,2,0,0.003,12,-0.02,-0.85,10.82,68,0.190,8.19
12.0789,-0.07679,0.03316,1.70868,0.00000,0.00000,0.00000,63,10,19,0,63,-1,68,-11,ok,2,0,0.003,12,0.23,-0.42,10.27,69,0.000,8.19
12.0988,-0.07679,0.03316,1.70868,0.00000,0.00000,0.00000,64,11,18,2,64,0,66,-12,ok,2,0,0.003,12,0.23,-0.42,10.27,69,0.012,8.19
12.1037,-0.07679,0.03316,1.70868,0.00000,0.00000,0.00000,64,12,16,4,65,1,64,-13,ok,2,0,0.003,12,0.23,-0.42,10.27,69,0.025,8.19
12.1163,-0.07679,0.03316,1.70868,0.00000,0.00000,0.00000,65,12,14,7,65,1,61,-13,ok,2,0,0.003,12,0.23,-0.42,10.27,69,0.038,8.19
12.1388,-0.07679,0.03316,1.70868,0.00000,0.00000,0.00000,65,14,12,11,66,1,59,-14,ok,2,0,0.003,12,0.23,-0.42,10.27,69,0.050,8.19
12.1419,-0.07679,0.03316,1.70868,0.00000,0.00000,0.00000,66,14,10,13,66,1,56,-12,ok,2,0,0.003,12,0.23,-0.42,10.27,69,0.063,8.19
12.1548,-0.07679,0.03316,1.70868,0.00000,0.00000,0.00000,66,15,12,13,67,1,54,-12,ok,2,0,0.003,12,0.23,-0.42,10.27,69,0.076,8.19
12.1748,-0.07679,0.03316,1.70868,0.00000,0.00000,0.00000,66,16,12,13,68,2,51,-11,ok,2,0,0.003,12,0.23,-0.42,10.27,69,0.088,8.19
12.1796,-0.07679,0.03316,1.70868,0.00000,0.00000,0.00000,67,17,13,12,68,2,48,-10,ok,2,0,0.003,12,0.23,-0.42,10.27,69,0.101,8.19
12.1920,-0.07679,0.03316,1.70868,0.00000,0.00000,0.00000,67,18,14,11,68,3,46,-10,ok,2,0,0.003,12,0.23,-0.42,10.27,69,0.113,8.19
12.2148,-0.07679,0.03316,1.70868,0.00000,0.00000,0.00000,67,18,15,11,68,4,42,-9,ok,2,0,0.003,12,0.23,-0.42,10.27,69,0.126,8.19
12.2179,-0.07679,0.03316,1.70868,0.00000,0.00000,0.00000,68,19,17,9,69,4,40,-8,ok,2,0,0.003,12,0.23,-0.42,10.27,69,0.139,8.19
