# run_gait log  cmd_fwd=0.100 hz=80.0 fw_balance=off policy_yaw_sign=-1
t,roll,pitch,yaw,gx,gy,gz,j0,j1,j2,j3,j4,j5,j6,j7,guard_state,hottest_j,hottest_tier,hottest_frac,duty_s,ax,ay,az,imu_n,imu_age_s,volt
0.0309,-0.01396,0.01047,0.00000,0.00000,0.00000,0.00000,21,-1,59,7,66,-12,61,0,ok,4,0,0.000,0,0.11,-0.18,9.99,8,0.021,nan
0.0343,-0.01396,0.01047,0.00000,0.00000,0.00000,0.00000,19,0,61,8,64,-12,63,-1,ok,4,0,0.000,0,0.11,-0.18,9.99,8,0.043,nan
0.0473,-0.01396,0.01047,0.00000,0.00000,0.00000,0.00000,17,2,61,9,61,-13,64,0,ok,4,0,0.000,0,0.11,-0.18,9.99,8,0.055,8.01
0.0669,-0.01396,0.01047,0.00000,0.00000,0.00000,0.00000,15,6,62,9,59,-13,64,0,ok,4,0,0.000,0,0.11,-0.18,9.99,8,0.068,8.01
0.0718,-0.01396,0.01047,0.00000,0.00000,0.00000,0.00000,13,9,62,11,56,-13,65,1,ok,4,0,0.000,0,0.11,-0.18,9.99,8,0.080,8.01
0.0842,-0.01396,0.01047,0.00000,0.00000,0.00000,0.00000,11,11,63,11,53,-12,65,1,ok,4,0,0.000,0,0.11,-0.18,9.99,8,0.093,8.01
0.1069,-0.01396,0.01047,0.00000,0.00000,0.00000,0.00000,13,12,63,12,51,-12,66,2,ok,4,0,0.000,0,0.11,-0.18,9.99,8,0.105,8.01
0.1101,-0.01396,0.01047,0.00000,0.00000,0.00000,0.00000,13,11,63,13,48,-12,66,2,ok,4,0,0.000,0,0.11,-0.18,9.99,8,0.119,8.01
0.1227,-0.01396,0.01047,0.00000,0.00000,0.00000,0.00000,14,10,64,14,45,-12,66,3,ok,4,0,0.000,0,0.11,-0.18,9.99,8,0.131,8.01
0.1429,-0.01396,0.01047,0.00000,0.00000,0.00000,0.00000,15,9,64,15,42,-11,67,3,ok,4,0,0.000,0,0.11,-0.18,9.99,8,0.144,8.01
0.1477,-0.01396,0.01047,0.00000,0.00000,0.00000,0.00000,16,9,65,15,39,-10,68,4,ok,4,0,0.000,0,0.11,-0.18,9.99,8,0.156,8.01
0.1603,-0.01396,0.01047,0.00000,0.00000,0.00000,0.00000,18,8,65,16,36,-8,68,4,ok,4,0,0.000,0,0.11,-0.18,9.99,8,0.169,8.01
0.1828,-0.01047,-0.06632,0.00000,0.00000,0.00000,0.00000,18,7,65,17,34,-7,69,5,ok,4,0,0.000,0,-1.79,0.36,11.36,9,0.000,8.01
0.1859,-0.01047,-0.06632,0.00000,0.00000,0.00000,0.00000,21,6,67,18,32,-6,69,6,ok,4,0,0.000,0,-1.79,0.36,11.36,9,0.013,8.01
0.1985,-0.01047,-0.06632,0.00000,0.00000,0.00000,0.00000,22,5,67,19,30,-3,70,6,ok,4,0,0.000,0,-1.79,0.36,11.36,9,0.026,8.01
0.2189,-0.01047,-0.06632,0.00000,0.00000,0.00000,0.00000,23,5,66,21,28,0,70,8,ok,4,0,0.000,0,-1.79,0.36,11.36,9,0.038,8.01
0.2238,-0.01047,-0.06632,0.00000,0.00000,0.00000,0.00000,24,4,66,22,27,3,70,9,ok,4,0,0.000,0,-1.79,0.36,11.36,9,0.051,8.01
0.2360,-0.01047,-0.06632,0.00000,0.00000,0.00000,0.00000,25,4,66,23,27,6,71,9,ok,4,0,0.000,0,-1.79,0.36,11.36,9,0.063,8.01
0.2588,-0.01047,-0.06632,0.00000,0.00000,0.00000,0.00000,27,4,65,26,29,5,71,10,ok,4,0,0.000,0,-1.79,0.36,11.36,9,0.076,8.01
0.2618,-0.01047,-0.06632,0.00000,0.00000,0.00000,0.00000,28,3,65,28,29,5,72,10,ok,4,0,0.000,0,-1.79,0.36,11.36,9,0.089,8.01
0.2746,-0.01047,-0.06632,0.00000,0.00000,0.00000,0.00000,29,3,66,26,30,3,72,12,ok,4,0,0.000,0,-1.79,0.36,11.36,9,0.102,8.01
0.2949,-0.01047,-0.06632,0.00000,0.00000,0.00000,0.00000,30,2,69,24,31,3,73,13,ok,4,0,0.000,0,-1.79,0.36,11.36,9,0.114,8.01
0.3006,-0.01047,-0.06632,0.00000,0.00000,0.00000,0.00000,31,1,72,20,32,3,73,14,ok,4,0,0.000,0,-1.79,0.36,11.36,9,0.127,8.01
0.3130,-0.01047,-0.06632,0.00000,0.00000,0.00000,0.00000,32,0,73,17,33,3,72,16,ok,4,0,0.000,0,-1.79,0.36,11.36,9,0.139,8.01
0.3350,-0.01047,-0.06632,0.00000,0.00000,0.00000,0.00000,33,0,73,15,34,2,72,18,ok,4,0,0.000,0,-1.79,0.36,11.36,9,0.152,8.01
0.3393,-0.01047,-0.06632,0.00000,0.00000,0.00000,0.00000,34,-1,73,15,37,2,74,19,ok,4,0,0.000,0,-1.79,0.36,11.36,9,0.166,8.01
0.3518,-0.01047,-0.06632,0.00000,0.00000,0.00000,0.00000,36,-1,73,12,37,2,73,21,ok,4,0,0.000,0,-1.79,0.36,11.36,9,0.178,8.01
0.3750,-0.15533,-0.09948,0.02793,0.00000,0.00000,0.00000,37,-1,73,9,39,2,72,22,ok,4,0,0.000,0,-0.97,-1.30,9.32,10,0.000,8.01
0.3791,-0.15533,-0.09948,0.02793,0.00000,0.00000,0.00000,38,-1,72,6,40,1,73,23,ok,4,0,0.000,0,-0.97,-1.30,9.32,10,0.015,8.01
0.3919,-0.15533,-0.09948,0.02793,0.00000,0.00000,0.00000,39,-2,72,4,41,0,72,25,ok,4,0,0.000,0,-0.97,-1.30,9.32,10,0.027,8.01
0.4109,-0.15533,-0.09948,0.02793,0.00000,0.00000,0.00000,40,-2,70,2,42,0,72,27,ok,4,0,0.000,0,-0.97,-1.30,9.32,10,0.040,8.01
0.4157,-0.15533,-0.09948,0.02793,0.00000,0.00000,0.00000,42,-2,69,0,43,-1,71,28,ok,4,0,0.000,0,-0.97,-1.30,9.32,10,0.052,8.01
0.4283,-0.15533,-0.09948,0.02793,0.00000,0.00000,0.00000,42,-2,67,-1,44,-2,72,28,ok,4,0,0.000,0,-0.97,-1.30,9.32,10,0.065,8.01
0.4509,-0.15533,-0.09948,0.02793,0.00000,0.00000,0.00000,44,-2,66,-3,46,-2,73,28,ok,4,0,0.000,0,-0.97,-1.30,9.32,10,0.077,8.01
0.4541,-0.15533,-0.09948,0.02793,0.00000,0.00000,0.00000,45,-2,65,-5,47,-2,75,26,ok,4,0,0.000,0,-0.97,-1.30,9.32,10,0.091,8.01
0.4665,-0.15533,-0.09948,0.02793,0.00000,0.00000,0.00000,47,0,63,-7,48,-2,77,20,ok,4,0,0.000,0,-0.97,-1.30,9.32,10,0.103,8.01
0.4869,-0.15533,-0.09948,0.02793,0.00000,0.00000,0.00000,48,0,61,-8,49,-2,78,17,ok,4,0,0.000,0,-0.97,-1.30,9.32,10,0.116,8.01
0.4915,-0.15533,-0.09948,0.02793,0.00000,0.00000,0.00000,49,0,58,-9,50,-1,79,14,ok,4,0,0.000,0,-0.97,-1.30,9.32,10,0.128,8.01
0.5043,-0.15533,-0.09948,0.02793,0.00000,0.00000,0.00000,49,2,56,-10,52,-2,79,13,ok,4,0,0.000,0,-0.97,-1.30,9.32,10,0.141,8.01
0.5268,-0.15533,-0.09948,0.02793,0.00000,0.00000,0.00000,51,4,52,-10,54,-1,79,11,ok,4,0,0.000,1,-0.97,-1.30,9.32,10,0.153,8.01
0.5300,-0.15533,-0.09948,0.02793,0.00000,0.00000,0.00000,51,4,49,-10,55,-1,79,7,ok,4,0,0.000,1,-0.97,-1.30,9.32,10,0.167,8.01
0.5425,-0.15533,-0.09948,0.02793,0.00000,0.00000,0.00000,52,5,47,-10,56,0,78,4,ok,4,0,0.000,1,-0.97,-1.30,9.32,10,0.179,8.01
0.5669,-0.15533,-0.09948,0.02793,0.00000,0.00000,0.00000,53,5,44,-10,57,-1,78,2,ok,4,0,0.000,1,-0.97,-1.30,9.32,10,0.192,8.01
0.5701,-0.04538,0.04014,0.03840,0.00000,0.00000,0.00000,55,6,42,-10,58,0,77,-1,ok,4,0,0.000,1,-0.39,-0.03,9.48,11,0.000,8.01
0.5831,-0.04538,0.04014,0.03840,0.00000,0.00000,0.00000,55,6,39,-9,59,0,77,-3,ok,4,0,0.000,1,-0.39,-0.03,9.48,11,0.013,8.01
0.6029,-0.04538,0.04014,0.03840,0.00000,0.00000,0.00000,56,6,36,-8,59,1,76,-5,ok,4,0,0.000,1,-0.39,-0.03,9.48,11,0.025,8.01
0.6077,-0.04538,0.04014,0.03840,0.00000,0.00000,0.00000,56,7,33,-7,60,2,74,-7,ok,4,0,0.000,1,-0.39,-0.03,9.48,11,0.038,8.01
0.6203,-0.04538,0.04014,0.03840,0.00000,0.00000,0.00000,58,8,29,-6,60,1,71,-7,ok,2,0,0.000,1,-0.39,-0.03,9.48,11,0.050,8.01
0.6428,-0.04538,0.04014,0.03840,0.00000,0.00000,0.00000,59,8,26,-4,61,1,70,-9,ok,2,0,0.000,1,-0.39,-0.03,9.48,11,0.063,8.01
0.6459,-0.04538,0.04014,0.03840,0.00000,0.00000,0.00000,60,10,22,-2,62,1,69,-10,ok,2,0,0.000,1,-0.39,-0.03,9.48,11,0.076,8.01
0.6585,-0.04538,0.04014,0.03840,0.00000,0.00000,0.00000,60,10,20,-1,64,-1,67,-12,ok,2,0,0.000,1,-0.39,-0.03,9.48,11,0.089,8.01
0.6789,-0.04538,0.04014,0.03840,0.00000,0.00000,0.00000,61,10,19,0,65,0,64,-13,ok,2,0,0.000,1,-0.39,-0.03,9.48,11,0.101,8.01
0.6836,-0.04538,0.04014,0.03840,0.00000,0.00000,0.00000,62,11,17,3,66,1,63,-13,ok,2,0,0.000,1,-0.39,-0.03,9.48,11,0.114,8.01
0.6960,-0.04538,0.04014,0.03840,0.00000,0.00000,0.00000,62,12,14,6,67,0,60,-14,ok,2,0,0.000,1,-0.39,-0.03,9.48,11,0.126,8.01
0.7189,-0.04538,0.04014,0.03840,0.00000,0.00000,0.00000,62,13,13,10,67,1,59,-14,ok,2,0,0.000,1,-0.39,-0.03,9.48,11,0.139,8.01
0.7219,-0.04538,0.04014,0.03840,0.00000,0.00000,0.00000,62,14,11,12,68,1,55,-13,ok,2,0,0.000,1,-0.39,-0.03,9.48,11,0.152,8.01
0.7346,-0.04538,0.04014,0.03840,0.00000,0.00000,0.00000,63,14,13,13,68,1,53,-13,ok,2,0,0.000,1,-0.39,-0.03,9.48,11,0.165,8.01
0.7549,-0.04538,0.04014,0.03840,0.00000,0.00000,0.00000,63,16,12,13,69,1,50,-12,ok,2,0,0.000,1,-0.39,-0.03,9.48,11,0.177,8.01
0.7598,-0.04538,0.04014,0.03840,0.00000,0.00000,0.00000,64,16,14,11,69,1,47,-11,ok,2,0,0.000,1,-0.39,-0.03,9.48,11,0.190,8.01
0.7723,0.05411,0.00349,0.06632,0.00000,0.00000,0.00000,64,17,15,10,70,2,45,-10,ok,2,0,0.000,1,-0.62,0.60,10.46,12,0.000,8.01
0.7948,0.05411,0.00349,0.06632,0.00000,0.00000,0.00000,65,18,16,10,70,3,42,-9,ok,2,0,0.000,1,-0.62,0.60,10.46,12,0.013,8.01
0.7979,0.05411,0.00349,0.06632,0.00000,0.00000,0.00000,65,18,17,9,70,4,39,-9,ok,2,0,0.000,1,-0.62,0.60,10.46,12,0.026,8.01
0.8108,0.05411,0.00349,0.06632,0.00000,0.00000,0.00000,65,20,18,8,70,5,35,-7,ok,2,0,0.000,1,-0.62,0.60,10.46,12,0.038,8.01
0.8309,0.05411,0.00349,0.06632,0.00000,0.00000,0.00000,66,21,20,7,71,5,34,-6,ok,2,0,0.000,1,-0.62,0.60,10.46,12,0.051,8.01
0.8357,0.05411,0.00349,0.06632,0.00000,0.00000,0.00000,66,22,21,6,72,6,32,-4,ok,2,0,0.000,1,-0.62,0.60,10.46,12,0.063,8.01
0.8481,0.05411,0.00349,0.06632,0.00000,0.00000,0.00000,66,23,22,6,71,8,30,-1,ok,2,0,0.000,1,-0.62,0.60,10.46,12,0.076,8.01
0.8708,0.05411,0.00349,0.06632,0.00000,0.00000,0.00000,66,24,23,5,72,8,28,1,ok,2,0,0.000,1,-0.62,0.60,10.46,12,0.088,8.01
0.8739,0.05411,0.00349,0.06632,0.00000,0.00000,0.00000,66,25,25,5,72,9,27,5,ok,2,0,0.000,1,-0.62,0.60,10.46,12,0.102,8.01
0.8866,0.05411,0.00349,0.06632,0.00000,0.00000,0.00000,65,28,26,4,72,10,27,7,ok,2,0,0.000,1,-0.62,0.60,10.46,12,0.114,8.01
0.9069,0.05411,0.00349,0.06632,0.00000,0.00000,0.00000,64,29,27,3,71,12,29,6,ok,2,0,0.000,1,-0.62,0.60,10.46,12,0.127,8.01
0.9117,0.05411,0.00349,0.06632,0.00000,0.00000,0.00000,66,28,28,3,72,13,29,6,ok,2,0,0.000,1,-0.62,0.60,10.46,12,0.139,8.01
0.9240,0.05411,0.00349,0.06632,0.00000,0.00000,0.00000,68,25,30,3,72,14,31,3,ok,2,0,0.000,1,-0.62,0.60,10.46,12,0.152,8.01
0.9468,0.05411,0.00349,0.06632,0.00000,0.00000,0.00000,70,21,31,2,71,16,32,3,ok,2,0,0.000,1,-0.62,0.60,10.46,12,0.164,8.01
0.9499,0.05411,0.00349,0.06632,0.00000,0.00000,0.00000,71,17,33,2,71,18,33,3,ok,2,0,0.000,1,-0.62,0.60,10.46,12,0.178,8.01
0.9628,0.05411,0.00349,0.06632,0.00000,0.00000,0.00000,71,15,34,2,72,18,34,2,ok,2,0,0.000,1,-0.62,0.60,10.46,12,0.190,8.01
0.9829,0.00873,-0.02443,0.11868,0.00000,0.00000,0.00000,71,14,36,1,71,21,36,1,ok,2,0,0.000,1,0.99,-0.35,9.15,13,0.000,8.01
0.9876,0.00873,-0.02443,0.11868,0.00000,0.00000,0.00000,71,11,37,1,71,22,38,1,ok,2,0,0.000,1,0.99,-0.35,9.15,13,0.012,8.01
1.0001,0.00873,-0.02443,0.11868,0.00000,0.00000,0.00000,70,7,38,2,71,23,39,2,ok,2,0,0.000,1,0.99,-0.35,9.15,13,0.025,8.01
1.0228,0.00873,-0.02443,0.11868,0.00000,0.00000,0.00000,70,4,39,2,71,25,41,1,ok,2,0,0.000,1,0.99,-0.35,9.15,13,0.038,8.01
1.0261,0.00873,-0.02443,0.11868,0.00000,0.00000,0.00000,68,1,41,2,71,27,42,1,ok,2,0,0.000,1,0.99,-0.35,9.15,13,0.051,8.01
1.0386,0.00873,-0.02443,0.11868,0.00000,0.00000,0.00000,67,-1,42,1,71,28,43,1,ok,2,0,0.000,1,0.99,-0.35,9.15,13,0.063,8.01
1.0589,0.00873,-0.02443,0.11868,0.00000,0.00000,0.00000,66,-3,44,2,71,28,44,1,ok,2,0,0.000,1,0.99,-0.35,9.15,13,0.076,8.01
1.0638,0.00873,-0.02443,0.11868,0.00000,0.00000,0.00000,64,-4,44,2,72,28,45,0,ok,2,0,0.000,1,0.99,-0.35,9.15,13,0.089,8.01
1.0760,0.00873,-0.02443,0.11868,0.00000,0.00000,0.00000,63,-6,46,2,74,26,46,0,ok,2,0,0.000,1,0.99,-0.35,9.15,13,0.101,8.01
1.0988,0.00873,-0.02443,0.11868,0.00000,0.00000,0.00000,62,-8,47,2,76,21,47,0,ok,2,0,0.000,1,0.99,-0.35,9.15,13,0.113,8.01
1.1019,0.00873,-0.02443,0.11868,0.00000,0.00000,0.00000,59,-9,49,3,77,17,48,0,ok,2,0,0.000,1,0.99,-0.35,9.15,13,0.127,8.01
1.1145,0.00873,-0.02443,0.11868,0.00000,0.00000,0.00000,57,-10,50,3,79,14,49,0,ok,2,0,0.000,1,0.99,-0.35,9.15,13,0.139,8.01
1.1349,0.00873,-0.02443,0.11868,0.00000,0.00000,0.00000,55,-11,50,3,79,13,49,0,ok,2,0,0.000,1,0.99,-0.35,9.15,13,0.152,8.01
1.1396,0.00873,-0.02443,0.11868,0.00000,0.00000,0.00000,53,-12,50,5,79,11,51,0,ok,2,0,0.000,1,0.99,-0.35,9.15,13,0.164,8.01
1.1520,0.00873,-0.02443,0.11868,0.00000,0.00000,0.00000,50,-11,52,6,79,7,51,0,ok,2,0,0.000,1,0.99,-0.35,9.15,13,0.177,8.01
1.1789,0.00873,-0.02443,0.11868,0.00000,0.00000,0.00000,47,-11,53,5,78,4,53,0,ok,2,0,0.000,1,0.99,-0.35,9.15,13,0.189,8.01
1.1822,0.11868,-0.01571,0.09250,0.00000,0.00000,0.00000,45,-11,54,6,78,2,53,0,ok,2,0,0.000,1,-0.11,1.10,10.63,14,0.000,8.01
1.1948,0.11868,-0.01571,0.09250,0.00000,0.00000,0.00000,42,-11,54,7,77,-1,54,0,ok,2,0,0.000,1,-0.11,1.10,10.63,14,0.013,8.01
1.2149,0.11868,-0.01571,0.09250,0.00000,0.00000,0.00000,40,-11,56,7,76,-3,55,-1,ok,2,0,0.000,1,-0.11,1.10,10.63,14,0.025,8.01
1.2196,0.11868,-0.01571,0.09250,0.00000,0.00000,0.00000,38,-10,56,7,75,-5,56,0,ok,2,0,0.000,1,-0.11,1.10,10.63,14,0.038,8.01
1.2322,0.11868,-0.01571,0.09250,0.00000,0.00000,0.00000,35,-9,57,7,73,-8,57,-2,ok,2,0,0.000,1,-0.11,1.10,10.63,14,0.050,8.01
1.2548,0.11868,-0.01571,0.09250,0.00000,0.00000,0.00000,32,-8,58,8,71,-7,57,-1,ok,2,0,0.000,1,-0.11,1.10,10.63,14,0.063,8.01
1.2579,0.11868,-0.01571,0.09250,0.00000,0.00000,0.00000,29,-6,58,8,70,-10,57,0,ok,2,0,0.000,1,-0.11,1.10,10.63,14,0.076,8.01
1.2706,0.11868,-0.01571,0.09250,0.00000,0.00000,0.00000,26,-4,59,9,68,-11,59,0,ok,2,0,0.000,1,-0.11,1.10,10.63,14,0.089,8.01
1.2909,0.11868,-0.01571,0.09250,0.00000,0.00000,0.00000,22,-1,60,10,66,-13,60,0,ok,2,0,0.000,1,-0.11,1.10,10.63,14,0.101,8.01
1.2956,0.11868,-0.01571,0.09250,0.00000,0.00000,0.00000,20,-1,61,11,64,-13,61,0,ok,2,0,0.000,1,-0.11,1.10,10.63,14,0.114,8.01
1.3081,0.11868,-0.01571,0.09250,0.00000,0.00000,0.00000,19,1,62,11,62,-14,63,-3,ok,2,0,0.000,1,-0.11,1.10,10.63,14,0.126,8.01
1.3309,0.11868,-0.01571,0.09250,0.00000,0.00000,0.00000,17,3,62,12,59,-14,63,-2,ok,2,0,0.000,1,-0.11,1.10,10.63,14,0.139,8.01
1.3339,0.11868,-0.01571,0.09250,0.00000,0.00000,0.00000,14,7,63,13,58,-15,64,-2,ok,2,0,0.000,1,-0.11,1.10,10.63,14,0.152,8.01
1.3466,0.11868,-0.01571,0.09250,0.00000,0.00000,0.00000,12,10,63,14,55,-14,65,-1,ok,2,0,0.000,1,-0.11,1.10,10.63,14,0.165,8.01
1.3669,0.11868,-0.01571,0.09250,0.00000,0.00000,0.00000,11,13,64,15,52,-13,66,-2,ok,2,0,0.000,1,-0.11,1.10,10.63,14,0.177,8.01
1.3717,0.11868,-0.01571,0.09250,0.00000,0.00000,0.00000,12,13,64,16,49,-13,67,-1,ok,2,0,0.000,1,-0.11,1.10,10.63,14,0.190,8.01
1.3843,0.05585,-0.02269,0.09250,0.00000,0.00000,0.00000,12,13,64,17,46,-12,67,-1,ok,2,0,0.000,1,0.20,0.28,9.54,15,0.000,8.01
1.4069,0.05585,-0.02269,0.09250,0.00000,0.00000,0.00000,14,12,65,17,44,-12,68,0,ok,2,0,0.000,1,0.20,0.28,9.54,15,0.012,8.01
1.4100,0.05585,-0.02269,0.09250,0.00000,0.00000,0.00000,15,12,65,18,41,-10,69,0,ok,2,0,0.000,1,0.20,0.28,9.54,15,0.026,8.01
1.4226,0.05585,-0.02269,0.09250,0.00000,0.00000,0.00000,16,11,65,19,38,-10,69,1,ok,4,0,0.000,1,0.20,0.28,9.54,15,0.039,8.01
1.4429,0.05585,-0.02269,0.09250,0.00000,0.00000,0.00000,18,10,66,19,35,-8,70,2,ok,4,0,0.000,1,0.20,0.28,9.54,15,0.051,8.01
1.4478,0.05585,-0.02269,0.09250,0.00000,0.00000,0.00000,18,10,66,20,33,-7,71,3,ok,4,0,0.000,1,0.20,0.28,9.54,15,0.064,8.01
1.4601,0.05585,-0.02269,0.09250,0.00000,0.00000,0.00000,20,8,66,21,31,-5,71,4,ok,4,0,0.000,1,0.20,0.28,9.54,15,0.076,8.01
1.4829,0.05585,-0.02269,0.09250,0.00000,0.00000,0.00000,21,8,66,22,29,-2,72,4,ok,4,0,0.000,1,0.20,0.28,9.54,15,0.089,8.01
1.4859,0.05585,-0.02269,0.09250,0.00000,0.00000,0.00000,23,7,66,23,28,0,72,6,ok,4,0,0.000,1,0.20,0.28,9.54,15,0.102,8.01
1.4988,0.05585,-0.02269,0.09250,0.00000,0.00000,0.00000,24,6,66,24,27,4,72,7,ok,4,0,0.000,1,0.20,0.28,9.54,15,0.115,8.01
1.5189,0.05585,-0.02269,0.09250,0.00000,0.00000,0.00000,25,6,65,25,26,6,72,8,ok,4,0,0.000,1,0.20,0.28,9.54,15,0.127,8.01
1.5236,0.05585,-0.02269,0.09250,0.00000,0.00000,0.00000,26,5,64,28,28,5,72,9,ok,4,0,0.000,1,0.20,0.28,9.54,15,0.140,8.01
1.5360,0.05585,-0.02269,0.09250,0.00000,0.00000,0.00000,28,5,64,29,28,5,72,11,ok,4,0,0.000,1,0.20,0.28,9.54,15,0.152,8.01
1.5588,0.05585,-0.02269,0.09250,0.00000,0.00000,0.00000,29,4,65,27,30,3,72,12,ok,4,0,0.000,2,0.20,0.28,9.54,15,0.165,8.01
1.5619,0.05585,-0.02269,0.09250,0.00000,0.00000,0.00000,30,3,68,24,31,2,73,14,ok,4,0,0.000,2,0.20,0.28,9.54,15,0.178,8.01
1.5747,0.05585,-0.02269,0.09250,0.00000,0.00000,0.00000,31,3,70,21,32,2,73,15,ok,4,0,0.000,2,0.20,0.28,9.54,15,0.191,8.01
1.5950,0.05760,0.03665,0.08029,0.00000,0.00000,0.00000,33,2,71,17,33,2,72,17,ok,4,0,0.000,2,-0.91,0.78,9.86,16,0.000,8.01
1.5997,0.05760,0.03665,0.08029,0.00000,0.00000,0.00000,34,2,72,15,34,1,72,19,ok,4,0,0.000,2,-0.91,0.78,9.86,16,0.013,8.01
1.6121,0.05760,0.03665,0.08029,0.00000,0.00000,0.00000,36,1,71,14,37,1,73,20,ok,4,0,0.000,2,-0.91,0.78,9.86,16,0.025,8.01
1.6348,0.05760,0.03665,0.08029,0.00000,0.00000,0.00000,37,1,71,11,37,1,72,22,ok,4,0,0.000,2,-0.91,0.78,9.86,16,0.038,8.01
1.6379,0.05760,0.03665,0.08029,0.00000,0.00000,0.00000,39,1,71,8,39,2,72,23,ok,4,0,0.000,2,-0.91,0.78,9.86,16,0.051,8.01
1.6506,0.05760,0.03665,0.08029,0.00000,0.00000,0.00000,40,1,70,5,40,1,73,24,ok,4,0,0.000,2,-0.91,0.78,9.86,16,0.064,8.01
1.6709,0.05760,0.03665,0.08029,0.00000,0.00000,0.00000,41,0,70,3,41,2,72,26,ok,4,0,0.000,2,-0.91,0.78,9.86,16,0.076,8.01
1.6757,0.05760,0.03665,0.08029,0.00000,0.00000,0.00000,43,0,69,1,42,1,72,27,ok,4,0,0.000,2,-0.91,0.78,9.86,16,0.089,8.01
1.6880,0.05760,0.03665,0.08029,0.00000,0.00000,0.00000,44,0,68,-1,44,1,72,29,ok,4,0,0.000,2,-0.91,0.78,9.86,16,0.101,8.01
1.7109,0.05760,0.03665,0.08029,0.00000,0.00000,0.00000,44,0,65,-2,45,0,73,29,ok,4,0,0.001,2,-0.91,0.78,9.86,16,0.114,8.01
1.7141,0.05760,0.03665,0.08029,0.00000,0.00000,0.00000,46,0,64,-4,46,0,74,28,ok,4,0,0.001,2,-0.91,0.78,9.86,16,0.127,8.01
1.7266,0.05760,0.03665,0.08029,0.00000,0.00000,0.00000,47,0,64,-6,48,0,76,26,ok,4,0,0.001,2,-0.91,0.78,9.86,16,0.140,8.01
1.7470,0.05760,0.03665,0.08029,0.00000,0.00000,0.00000,49,2,61,-7,48,0,78,20,ok,4,0,0.001,2,-0.91,0.78,9.86,16,0.152,8.01
1.7517,0.05760,0.03665,0.08029,0.00000,0.00000,0.00000,50,1,59,-8,49,0,79,17,ok,4,0,0.001,2,-0.91,0.78,9.86,16,0.165,8.01
1.7641,0.05760,0.03665,0.08029,0.00000,0.00000,0.00000,50,1,57,-9,50,0,81,13,ok,4,0,0.001,2,-0.91,0.78,9.86,16,0.177,8.01
1.7869,0.05760,0.03665,0.08029,0.00000,0.00000,0.00000,50,3,54,-10,52,0,81,13,ok,4,0,0.001,2,-0.91,0.78,9.86,16,0.190,8.01
1.7902,-0.10996,-0.03491,0.14312,0.00000,0.00000,0.00000,51,5,51,-10,53,0,81,10,ok,2,0,0.001,2,-0.93,-0.52,10.93,17,0.000,8.01
1.8026,-0.10996,-0.03491,0.14312,0.00000,0.00000,0.00000,52,4,49,-9,54,0,81,7,ok,2,0,0.001,2,-0.93,-0.52,10.93,17,0.013,8.01
1.8229,-0.10996,-0.03491,0.14312,0.00000,0.00000,0.00000,53,5,46,-9,55,0,80,4,ok,2,0,0.001,2,-0.93,-0.52,10.93,17,0.025,8.01
1.8276,-0.10996,-0.03491,0.14312,0.00000,0.00000,0.00000,53,5,43,-9,56,0,80,2,ok,2,0,0.001,2,-0.93,-0.52,10.93,17,0.038,8.01
1.8404,-0.10996,-0.03491,0.14312,0.00000,0.00000,0.00000,55,6,41,-9,57,1,79,-1,ok,2,0,0.001,2,-0.93,-0.52,10.93,17,0.050,8.01
1.8629,-0.10996,-0.03491,0.14312,0.00000,0.00000,0.00000,56,6,39,-8,58,0,78,-3,ok,2,0,0.001,2,-0.93,-0.52,10.93,17,0.063,8.01
1.8659,-0.10996,-0.03491,0.14312,0.00000,0.00000,0.00000,57,7,36,-7,58,1,77,-5,ok,2,0,0.001,2,-0.93,-0.52,10.93,17,0.076,8.01
1.8786,-0.10996,-0.03491,0.14312,0.00000,0.00000,0.00000,57,8,33,-6,59,1,75,-7,ok,2,0,0.001,2,-0.93,-0.52,10.93,17,0.089,8.01
1.8988,-0.10996,-0.03491,0.14312,0.00000,0.00000,0.00000,58,8,29,-5,60,1,72,-7,ok,2,0,0.001,2,-0.93,-0.52,10.93,17,0.101,8.01
1.9036,-0.10996,-0.03491,0.14312,0.00000,0.00000,0.00000,59,8,27,-3,61,1,71,-9,ok,2,0,0.001,2,-0.93,-0.52,10.93,17,0.114,8.01
1.9160,-0.10996,-0.03491,0.14312,0.00000,0.00000,0.00000,60,10,22,-1,62,0,69,-11,ok,2,0,0.001,2,-0.93,-0.52,10.93,17,0.126,8.01
1.9389,-0.10996,-0.03491,0.14312,0.00000,0.00000,0.00000,60,10,21,0,64,-2,67,-12,ok,2,0,0.001,2,-0.93,-0.52,10.93,17,0.139,8.01
1.9419,-0.10996,-0.03491,0.14312,0.00000,0.00000,0.00000,62,11,19,1,64,-1,64,-13,ok,2,0,0.001,2,-0.93,-0.52,10.93,17,0.152,8.01
1.9546,-0.10996,-0.03491,0.14312,0.00000,0.00000,0.00000,62,12,17,3,65,0,63,-14,ok,2,0,0.001,2,-0.93,-0.52,10.93,17,0.165,8.01
1.9789,-0.10996,-0.03491,0.14312,0.00000,0.00000,0.00000,62,12,15,7,66,-1,60,-14,ok,2,0,0.001,2,-0.93,-0.52,10.93,17,0.177,8.01
1.9822,-0.05236,-0.01920,0.15359,0.00000,0.00000,0.00000,62,14,13,10,66,0,58,-15,ok,2,0,0.001,2,-0.45,-0.10,9.72,18,0.000,8.01
1.9945,-0.05236,-0.01920,0.15359,0.00000,0.00000,0.00000,63,14,11,12,67,0,55,-13,ok,2,0,0.001,2,-0.45,-0.10,9.72,18,0.013,8.01
2.0148,-0.05236,-0.01920,0.15359,0.00000,0.00000,0.00000,63,15,13,13,67,0,53,-13,ok,2,0,0.001,2,-0.45,-0.10,9.72,18,0.025,8.01
2.0195,-0.05236,-0.01920,0.15359,0.00000,0.00000,0.00000,64,16,13,12,68,1,50,-12,ok,2,0,0.001,2,-0.45,-0.10,9.72,18,0.038,8.01
2.0321,-0.05236,-0.01920,0.15359,0.00000,0.00000,0.00000,65,17,14,11,69,1,47,-12,ok,2,0,0.001,2,-0.45,-0.10,9.72,18,0.050,8.01
2.0589,-0.05236,-0.01920,0.15359,0.00000,0.00000,0.00000,65,18,15,11,69,2,45,-11,ok,2,0,0.001,2,-0.45,-0.10,9.72,18,0.063,8.01
2.0621,-0.05236,-0.01920,0.15359,0.00000,0.00000,0.00000,65,18,16,10,69,2,41,-10,ok,2,0,0.001,2,-0.45,-0.10,9.72,18,0.080,8.01
2.0745,-0.05236,-0.01920,0.15359,0.00000,0.00000,0.00000,66,18,17,9,70,3,39,-9,ok,2,0,0.001,2,-0.45,-0.10,9.72,18,0.093,8.01
2.0948,-0.05236,-0.01920,0.15359,0.00000,0.00000,0.00000,66,20,18,8,70,4,35,-7,ok,2,0,0.001,2,-0.45,-0.10,9.72,18,0.105,8.01
2.0996,-0.05236,-0.01920,0.15359,0.00000,0.00000,0.00000,67,21,20,7,71,5,34,-6,ok,2,0,0.001,2,-0.45,-0.10,9.72,18,0.118,8.01
2.1123,-0.05236,-0.01920,0.15359,0.00000,0.00000,0.00000,67,22,21,7,71,6,32,-4,ok,2,0,0.001,2,-0.45,-0.10,9.72,18,0.130,8.01
2.1349,-0.05236,-0.01920,0.15359,0.00000,0.00000,0.00000,66,23,22,6,71,7,30,-1,ok,2,0,0.001,2,-0.45,-0.10,9.72,18,0.143,8.01
2.1380,-0.05236,-0.01920,0.15359,0.00000,0.00000,0.00000,66,24,24,6,71,8,28,1,ok,2,0,0.001,2,-0.45,-0.10,9.72,18,0.156,8.01
2.1506,-0.05236,-0.01920,0.15359,0.00000,0.00000,0.00000,66,25,25,5,72,9,27,5,ok,2,0,0.001,2,-0.45,-0.10,9.72,18,0.169,8.01
2.1709,-0.05236,-0.01920,0.15359,0.00000,0.00000,0.00000,65,28,26,5,72,10,27,7,ok,2,0,0.001,2,-0.45,-0.10,9.72,18,0.181,8.01
2.1756,-0.05236,-0.01920,0.15359,0.00000,0.00000,0.00000,64,29,27,4,71,11,29,6,ok,2,0,0.001,2,-0.45,-0.10,9.72,18,0.194,8.01
2.1884,-0.06109,0.06458,0.23213,0.00000,0.00000,0.00000,65,28,29,3,71,13,29,5,ok,2,0,0.001,2,-0.18,-0.94,9.09,19,0.000,8.01
2.2108,-0.06109,0.06458,0.23213,0.00000,0.00000,0.00000,68,25,30,3,72,14,30,3,ok,2,0,0.001,2,-0.18,-0.94,9.09,19,0.013,8.01
2.2140,-0.06109,0.06458,0.23213,0.00000,0.00000,0.00000,70,21,31,2,71,16,31,3,ok,2,0,0.001,2,-0.18,-0.94,9.09,19,0.026,8.01
2.2267,-0.06109,0.06458,0.23213,0.00000,0.00000,0.00000,71,17,33,2,71,18,33,3,ok,2,0,0.001,2,-0.18,-0.94,9.09,19,0.038,8.01
2.2468,-0.06109,0.06458,0.23213,0.00000,0.00000,0.00000,71,15,34,2,72,18,34,2,ok,2,0,0.001,2,-0.18,-0.94,9.09,19,0.051,8.01
2.2516,-0.06109,0.06458,0.23213,0.00000,0.00000,0.00000,71,14,35,1,71,21,36,1,ok,2,0,0.001,2,-0.18,-0.94,9.09,19,0.063,8.01
2.2643,-0.06109,0.06458,0.23213,0.00000,0.00000,0.00000,71,11,36,1,71,22,38,1,ok,2,0,0.001,2,-0.18,-0.94,9.09,19,0.076,8.01
2.2869,-0.06109,0.06458,0.23213,0.00000,0.00000,0.00000,70,8,38,2,71,24,38,2,ok,2,0,0.001,2,-0.18,-0.94,9.09,19,0.088,8.01
2.2899,-0.06109,0.06458,0.23213,0.00000,0.00000,0.00000,69,5,39,2,72,25,40,1,ok,2,0,0.001,2,-0.18,-0.94,9.09,19,0.102,8.01
2.3027,-0.06109,0.06458,0.23213,0.00000,0.00000,0.00000,68,1,41,1,71,27,41,1,ok,2,0,0.001,2,-0.18,-0.94,9.09,19,0.114,8.01
2.3228,-0.06109,0.06458,0.23213,0.00000,0.00000,0.00000,67,-1,42,1,71,29,42,1,ok,2,0,0.001,2,-0.18,-0.94,9.09,19,0.127,8.01
2.3277,-0.06109,0.06458,0.23213,0.00000,0.00000,0.00000,66,-3,44,1,71,29,43,1,ok,2,0,0.001,2,-0.18,-0.94,9.09,19,0.139,8.01
2.3401,-0.06109,0.06458,0.23213,0.00000,0.00000,0.00000,64,-4,44,1,73,29,44,1,ok,2,0,0.001,2,-0.18,-0.94,9.09,19,0.152,8.01
2.3629,-0.06109,0.06458,0.23213,0.00000,0.00000,0.00000,63,-6,45,2,74,26,46,0,ok,2,0,0.001,2,-0.18,-0.94,9.09,19,0.164,8.01
2.3660,-0.06109,0.06458,0.23213,0.00000,0.00000,0.00000,62,-8,47,2,76,22,47,0,ok,2,0,0.001,2,-0.18,-0.94,9.09,19,0.178,8.01
2.3787,-0.06109,0.06458,0.23213,0.00000,0.00000,0.00000,60,-9,48,3,77,17,48,0,ok,2,0,0.001,2,-0.18,-0.94,9.09,19,0.190,8.01
2.3988,0.08727,0.03142,0.21118,0.00000,0.00000,0.00000,57,-10,49,3,79,14,49,0,ok,2,0,0.001,2,0.29,1.02,10.08,20,0.000,8.01
2.4036,0.08727,0.03142,0.21118,0.00000,0.00000,0.00000,55,-11,50,3,79,14,50,0,ok,2,0,0.001,2,0.29,1.02,10.08,20,0.012,8.01
2.4161,0.08727,0.03142,0.21118,0.00000,0.00000,0.00000,52,-12,50,5,79,12,51,0,ok,2,0,0.001,2,0.29,1.02,10.08,20,0.025,8.01
2.4389,0.08727,0.03142,0.21118,0.00000,0.00000,0.00000,50,-12,52,5,79,8,52,0,ok,2,0,0.001,2,0.29,1.02,10.08,20,0.038,8.01
2.4420,0.08727,0.03142,0.21118,0.00000,0.00000,0.00000,47,-11,53,5,78,5,53,0,ok,2,0,0.001,2,0.29,1.02,10.08,20,0.051,8.01
2.4548,0.08727,0.03142,0.21118,0.00000,0.00000,0.00000,45,-11,54,6,78,3,54,0,ok,2,0,0.001,2,0.29,1.02,10.08,20,0.063,8.01
2.4748,0.08727,0.03142,0.21118,0.00000,0.00000,0.00000,42,-11,54,6,77,-1,54,0,ok,2,0,0.001,2,0.29,1.02,10.08,20,0.076,8.01
2.4795,0.08727,0.03142,0.21118,0.00000,0.00000,0.00000,40,-11,56,7,76,-3,55,-1,ok,2,0,0.001,2,0.29,1.02,10.08,20,0.088,8.01
2.4921,0.08727,0.03142,0.21118,0.00000,0.00000,0.00000,38,-10,56,7,75,-4,56,0,ok,2,0,0.001,2,0.29,1.02,10.08,20,0.101,8.01
2.5149,0.08727,0.03142,0.21118,0.00000,0.00000,0.00000,35,-9,57,7,74,-8,57,-1,ok,2,0,0.001,2,0.29,1.02,10.08,20,0.114,8.01
2.5181,0.08727,0.03142,0.21118,0.00000,0.00000,0.00000,33,-8,57,8,71,-7,57,0,ok,2,0,0.001,2,0.29,1.02,10.08,20,0.127,8.01
2.5305,0.08727,0.03142,0.21118,0.00000,0.00000,0.00000,29,-6,58,8,70,-9,58,0,ok,2,0,0.001,2,0.29,1.02,10.08,20,0.140,8.01
2.5508,0.08727,0.03142,0.21118,0.00000,0.00000,0.00000,26,-4,59,9,68,-11,59,0,ok,2,0,0.001,2,0.29,1.02,10.08,20,0.152,8.01
2.5556,0.08727,0.03142,0.21118,0.00000,0.00000,0.00000,22,-2,60,10,66,-12,60,0,ok,2,0,0.001,3,0.29,1.02,10.08,20,0.165,8.01
2.5681,0.08727,0.03142,0.21118,0.00000,0.00000,0.00000,20,-1,61,11,64,-13,61,0,ok,2,0,0.001,3,0.29,1.02,10.08,20,0.177,8.01
2.5909,0.08727,0.03142,0.21118,0.00000,0.00000,0.00000,19,0,62,11,62,-13,63,-3,ok,2,0,0.001,3,0.29,1.02,10.08,20,0.190,8.01
2.5942,0.09774,-0.01222,0.20769,0.00000,0.00000,0.00000,17,3,62,12,59,-14,63,-2,ok,2,0,0.001,3,0.03,0.44,9.35,21,0.000,8.01
2.6065,0.09774,-0.01222,0.20769,0.00000,0.00000,0.00000,14,7,63,13,58,-14,64,-2,ok,2,0,0.001,3,0.03,0.44,9.35,21,0.013,8.01
2.6268,0.09774,-0.01222,0.20769,0.00000,0.00000,0.00000,13,10,63,14,55,-14,65,-1,ok,2,0,0.001,3,0.03,0.44,9.35,21,0.025,8.01
2.6316,0.09774,-0.01222,0.20769,0.00000,0.00000,0.00000,11,12,64,15,52,-13,66,-2,ok,2,0,0.001,3,0.03,0.44,9.35,21,0.038,8.01
2.6441,0.09774,-0.01222,0.20769,0.00000,0.00000,0.00000,12,13,64,16,50,-13,67,-1,ok,2,0,0.001,3,0.03,0.44,9.35,21,0.050,8.01
2.6669,0.09774,-0.01222,0.20769,0.00000,0.00000,0.00000,12,13,64,17,46,-12,67,-1,ok,2,0,0.001,3,0.03,0.44,9.35,21,0.063,8.01
2.6700,0.09774,-0.01222,0.20769,0.00000,0.00000,0.00000,14,12,65,17,44,-11,68,0,ok,2,0,0.001,3,0.03,0.44,9.35,21,0.076,8.01
2.6828,0.09774,-0.01222,0.20769,0.00000,0.00000,0.00000,15,12,65,18,41,-10,69,0,ok,2,0,0.001,3,0.03,0.44,9.35,21,0.089,8.01
2.7028,0.09774,-0.01222,0.20769,0.00000,0.00000,0.00000,16,11,65,18,38,-10,69,1,ok,2,0,0.001,3,0.03,0.44,9.35,21,0.101,8.01
2.7076,0.09774,-0.01222,0.20769,0.00000,0.00000,0.00000,18,10,66,19,35,-8,70,2,ok,2,0,0.001,3,0.03,0.44,9.35,21,0.114,8.01
2.7201,0.09774,-0.01222,0.20769,0.00000,0.00000,0.00000,18,10,66,20,33,-6,71,3,ok,2,0,0.001,3,0.03,0.44,9.35,21,0.126,8.01
2.7429,0.09774,-0.01222,0.20769,0.00000,0.00000,0.00000,21,9,66,21,31,-5,71,4,ok,2,0,0.001,3,0.03,0.44,9.35,21,0.139,8.01
2.7461,0.09774,-0.01222,0.20769,0.00000,0.00000,0.00000,22,8,66,22,29,-2,72,4,ok,2,0,0.001,3,0.03,0.44,9.35,21,0.152,8.01
2.7586,0.09774,-0.01222,0.20769,0.00000,0.00000,0.00000,23,7,66,23,28,0,72,6,ok,2,0,0.001,3,0.03,0.44,9.35,21,0.165,8.01
2.7788,0.09774,-0.01222,0.20769,0.00000,0.00000,0.00000,24,6,66,24,27,4,72,7,ok,2,0,0.001,3,0.03,0.44,9.35,21,0.177,8.01
2.7836,0.09774,-0.01222,0.20769,0.00000,0.00000,0.00000,26,6,65,25,26,6,72,8,ok,2,0,0.001,3,0.03,0.44,9.35,21,0.190,8.01
2.7964,0.08901,-0.01396,0.21991,0.00000,0.00000,0.00000,27,5,64,28,28,6,73,9,ok,2,0,0.001,3,1.05,1.33,11.54,22,0.000,8.01
2.8189,0.08901,-0.01396,0.21991,0.00000,0.00000,0.00000,28,5,64,29,28,5,73,11,ok,2,0,0.001,3,1.05,1.33,11.54,22,0.013,8.01
2.8220,0.08901,-0.01396,0.21991,0.00000,0.00000,0.00000,29,4,65,27,30,3,73,12,ok,2,0,0.001,3,1.05,1.33,11.54,22,0.026,8.01
2.8348,0.08901,-0.01396,0.21991,0.00000,0.00000,0.00000,30,3,68,24,30,2,73,14,ok,2,0,0.001,3,1.05,1.33,11.54,22,0.039,8.01
2.8548,0.08901,-0.01396,0.21991,0.00000,0.00000,0.00000,32,3,70,21,32,2,73,15,ok,2,0,0.001,3,1.05,1.33,11.54,22,0.051,8.01
2.8596,0.08901,-0.01396,0.21991,0.00000,0.00000,0.00000,33,2,71,17,33,2,73,17,ok,2,0,0.001,3,1.05,1.33,11.54,22,0.064,8.01
2.8721,0.08901,-0.01396,0.21991,0.00000,0.00000,0.00000,34,2,71,15,34,1,73,19,ok,2,0,0.001,3,1.05,1.33,11.54,22,0.076,8.01
2.8949,0.08901,-0.01396,0.21991,0.00000,0.00000,0.00000,36,1,71,14,37,1,73,20,ok,2,0,0.001,3,1.05,1.33,11.54,22,0.089,8.01
2.8979,0.08901,-0.01396,0.21991,0.00000,0.00000,0.00000,37,1,71,11,37,1,72,22,ok,2,0,0.001,3,1.05,1.33,11.54,22,0.102,8.01
2.9107,0.08901,-0.01396,0.21991,0.00000,0.00000,0.00000,39,1,71,8,39,2,72,23,ok,2,0,0.001,3,1.05,1.33,11.54,22,0.114,8.01
2.9308,0.08901,-0.01396,0.21991,0.00000,0.00000,0.00000,40,1,70,5,40,1,73,24,ok,2,0,0.001,3,1.05,1.33,11.54,22,0.127,8.01
2.9355,0.08901,-0.01396,0.21991,0.00000,0.00000,0.00000,42,0,70,3,41,2,73,26,ok,0,0,0.001,3,1.05,1.33,11.54,22,0.139,8.01
2.9481,0.08901,-0.01396,0.21991,0.00000,0.00000,0.00000,43,0,69,1,42,1,72,27,ok,0,0,0.001,3,1.05,1.33,11.54,22,0.152,8.01
2.9708,0.08901,-0.01396,0.21991,0.00000,0.00000,0.00000,45,0,68,-1,43,1,72,28,ok,0,0,0.001,3,1.05,1.33,11.54,22,0.164,8.01
2.9739,0.08901,-0.01396,0.21991,0.00000,0.00000,0.00000,45,0,65,-2,45,0,73,29,ok,2,0,0.001,3,1.05,1.33,11.54,22,0.178,8.01
2.9868,0.08901,-0.01396,0.21991,0.00000,0.00000,0.00000,46,1,64,-4,46,0,74,28,ok,2,0,0.001,3,1.05,1.33,11.54,22,0.190,8.01
3.0068,-0.09948,0.00873,0.27227,0.00000,0.00000,0.00000,48,1,64,-6,47,0,76,26,ok,2,0,0.001,3,0.61,-0.99,10.98,23,0.000,8.01
3.0115,-0.09948,0.00873,0.27227,0.00000,0.00000,0.00000,49,2,61,-7,48,0,78,21,ok,2,0,0.001,3,0.61,-0.99,10.98,23,0.012,8.01
3.0241,-0.09948,0.00873,0.27227,0.00000,0.00000,0.00000,50,1,59,-8,49,-1,79,17,ok,2,0,0.001,3,0.61,-0.99,10.98,23,0.025,8.01
3.0469,-0.09948,0.00873,0.27227,0.00000,0.00000,0.00000,51,1,56,-8,50,0,81,14,ok,2,0,0.001,3,0.61,-0.99,10.98,23,0.037,8.01
3.0499,-0.09948,0.00873,0.27227,0.00000,0.00000,0.00000,51,3,54,-9,51,0,81,14,ok,2,0,0.001,3,0.61,-0.99,10.98,23,0.051,8.01
3.0625,-0.09948,0.00873,0.27227,0.00000,0.00000,0.00000,52,4,51,-9,53,0,81,11,ok,2,0,0.001,3,0.61,-0.99,10.98,23,0.064,8.01
3.0828,-0.09948,0.00873,0.27227,0.00000,0.00000,0.00000,53,4,49,-9,54,0,81,7,ok,2,0,0.001,3,0.61,-0.99,10.98,23,0.076,8.01
3.0875,-0.09948,0.00873,0.27227,0.00000,0.00000,0.00000,53,5,46,-9,55,1,80,4,ok,2,0,0.001,3,0.61,-0.99,10.98,23,0.088,8.01
3.1001,-0.09948,0.00873,0.27227,0.00000,0.00000,0.00000,53,6,43,-9,56,1,80,2,ok,2,0,0.001,3,0.61,-0.99,10.98,23,0.101,8.01
3.1229,-0.09948,0.00873,0.27227,0.00000,0.00000,0.00000,55,6,41,-9,57,1,78,-2,ok,2,0,0.001,3,0.61,-0.99,10.98,23,0.114,8.01
3.1260,-0.09948,0.00873,0.27227,0.00000,0.00000,0.00000,55,6,39,-8,58,1,78,-3,ok,2,0,0.001,3,0.61,-0.99,10.98,23,0.127,8.01
3.1385,-0.09948,0.00873,0.27227,0.00000,0.00000,0.00000,57,7,36,-7,58,1,76,-5,ok,2,0,0.001,3,0.61,-0.99,10.98,23,0.140,8.01
3.1588,-0.09948,0.00873,0.27227,0.00000,0.00000,0.00000,57,8,33,-6,59,1,74,-7,ok,2,0,0.001,3,0.61,-0.99,10.98,23,0.152,8.01
3.1636,-0.09948,0.00873,0.27227,0.00000,0.00000,0.00000,58,8,29,-5,60,1,72,-7,ok,2,0,0.001,3,0.61,-0.99,10.98,23,0.165,8.01
3.1761,-0.09948,0.00873,0.27227,0.00000,0.00000,0.00000,59,9,26,-3,61,1,70,-9,ok,2,0,0.001,3,0.61,-0.99,10.98,23,0.177,8.01
3.1989,-0.08378,-0.01920,0.33510,0.00000,0.00000,0.00000,61,10,22,-1,62,0,69,-11,ok,2,0,0.001,3,0.46,-1.31,10.28,24,0.000,8.01
3.2021,-0.08378,-0.01920,0.33510,0.00000,0.00000,0.00000,61,10,20,0,64,-2,67,-12,ok,2,0,0.001,3,0.46,-1.31,10.28,24,0.013,8.01
3.2145,-0.08378,-0.01920,0.33510,0.00000,0.00000,0.00000,62,11,18,1,64,-1,65,-13,ok,2,0,0.001,3,0.46,-1.31,10.28,24,0.026,8.01
3.2348,-0.08378,-0.01920,0.33510,0.00000,0.00000,0.00000,62,11,16,3,65,0,63,-14,ok,2,0,0.001,3,0.46,-1.31,10.28,24,0.038,8.01
3.2395,-0.08378,-0.01920,0.33510,0.00000,0.00000,0.00000,63,12,15,7,66,0,60,-14,ok,2,0,0.001,3,0.46,-1.31,10.28,24,0.051,8.01
3.2522,-0.08378,-0.01920,0.33510,0.00000,0.00000,0.00000,63,13,13,10,66,0,58,-15,ok,2,0,0.001,3,0.46,-1.31,10.28,24,0.064,8.01
3.2788,-0.08378,-0.01920,0.33510,0.00000,0.00000,0.00000,64,14,11,12,67,0,55,-13,ok,2,0,0.001,3,0.46,-1.31,10.28,24,0.076,8.01
3.2821,-0.08378,-0.01920,0.33510,0.00000,0.00000,0.00000,64,15,13,13,67,0,53,-13,ok,2,0,0.001,3,0.46,-1.31,10.28,24,0.093,8.01
3.2944,-0.08378,-0.01920,0.33510,0.00000,0.00000,0.00000,64,16,13,12,68,1,50,-12,ok,2,0,0.001,3,0.46,-1.31,10.28,24,0.106,8.01
3.3148,-0.08378,-0.01920,0.33510,0.00000,0.00000,0.00000,65,17,14,11,69,1,47,-11,ok,2,0,0.001,3,0.46,-1.31,10.28,24,0.118,8.01
3.3195,-0.08378,-0.01920,0.33510,0.00000,0.00000,0.00000,65,18,15,11,69,2,45,-11,ok,2,0,0.001,3,0.46,-1.31,10.28,24,0.131,8.01
3.3321,-0.08378,-0.01920,0.33510,0.00000,0.00000,0.00000,66,18,16,10,69,2,41,-9,ok,2,0,0.001,3,0.46,-1.31,10.28,24,0.143,8.01
3.3549,-0.08378,-0.01920,0.33510,0.00000,0.00000,0.00000,66,18,17,9,70,3,39,-9,ok,2,0,0.001,3,0.46,-1.31,10.28,24,0.156,8.01
3.3579,-0.08378,-0.01920,0.33510,0.00000,0.00000,0.00000,66,20,18,9,70,4,35,-7,ok,2,0,0.001,3,0.46,-1.31,10.28,24,0.169,8.01
3.3705,-0.08378,-0.01920,0.33510,0.00000,0.00000,0.00000,67,21,20,8,71,5,34,-6,ok,2,0,0.001,3,0.46,-1.31,10.28,24,0.182,8.01
3.3909,-0.08378,-0.01920,0.33510,0.00000,0.00000,0.00000,67,22,21,7,71,6,32,-4,ok,2,0,0.001,3,0.46,-1.31,10.28,24,0.195,8.01
3.3958,-0.02269,0.08552,0.39270,0.00000,0.00000,0.00000,66,23,22,6,71,7,30,-1,ok,2,0,0.001,3,1.36,-0.64,10.89,25,0.000,8.01
3.4081,-0.02269,0.08552,0.39270,0.00000,0.00000,0.00000,66,24,23,6,71,8,28,1,ok,2,0,0.001,3,1.36,-0.64,10.89,25,0.013,8.01
3.4309,-0.02269,0.08552,0.39270,0.00000,0.00000,0.00000,66,25,25,5,71,9,27,5,ok,2,0,0.001,3,1.36,-0.64,10.89,25,0.025,8.01
3.4340,-0.02269,0.08552,0.39270,0.00000,0.00000,0.00000,65,28,26,5,71,10,27,7,ok,2,0,0.001,3,1.36,-0.64,10.89,25,0.038,8.01
3.4467,-0.02269,0.08552,0.39270,0.00000,0.00000,0.00000,64,29,27,3,71,12,29,6,ok,2,0,0.001,3,1.36,-0.64,10.89,25,0.051,8.01
3.4668,-0.02269,0.08552,0.39270,0.00000,0.00000,0.00000,66,28,28,3,72,13,29,6,ok,2,0,0.001,3,1.36,-0.64,10.89,25,0.064,8.01
3.4715,-0.02269,0.08552,0.39270,0.00000,0.00000,0.00000,68,25,30,3,72,15,30,3,ok,2,0,0.001,3,1.36,-0.64,10.89,25,0.076,8.01
3.4842,-0.02269,0.08552,0.39270,0.00000,0.00000,0.00000,70,21,31,2,71,16,31,3,ok,2,0,0.001,3,1.36,-0.64,10.89,25,0.089,8.01
3.5069,-0.02269,0.08552,0.39270,0.00000,0.00000,0.00000,71,17,32,2,71,18,33,3,ok,2,0,0.001,3,1.36,-0.64,10.89,25,0.101,8.01
3.5100,-0.02269,0.08552,0.39270,0.00000,0.00000,0.00000,72,15,33,2,72,19,34,2,ok,2,0,0.001,3,1.36,-0.64,10.89,25,0.114,8.01
3.5225,-0.02269,0.08552,0.39270,0.00000,0.00000,0.00000,71,14,35,1,71,21,36,1,ok,2,0,0.001,3,1.36,-0.64,10.89,25,0.127,8.01
3.5428,-0.02269,0.08552,0.39270,0.00000,0.00000,0.00000,71,11,36,1,71,22,38,1,ok,2,0,0.001,3,1.36,-0.64,10.89,25,0.140,8.01
3.5475,-0.02269,0.08552,0.39270,0.00000,0.00000,0.00000,70,7,38,2,71,24,39,2,ok,2,0,0.001,3,1.36,-0.64,10.89,25,0.152,8.01
3.5601,-0.02269,0.08552,0.39270,0.00000,0.00000,0.00000,70,5,39,2,72,26,40,1,ok,2,0,0.001,3,1.36,-0.64,10.89,25,0.165,8.01
3.5829,-0.02269,0.08552,0.39270,0.00000,0.00000,0.00000,69,1,40,1,71,28,42,2,ok,2,0,0.001,4,1.36,-0.64,10.89,25,0.177,8.01
3.5860,-0.02269,0.08552,0.39270,0.00000,0.00000,0.00000,68,-1,42,1,71,29,43,2,ok,2,0,0.001,4,1.36,-0.64,10.89,25,0.190,8.01
3.5988,-0.02269,0.08552,0.39270,0.00000,0.00000,0.00000,66,-3,43,1,71,29,44,1,ok,2,0,0.001,4,1.36,-0.64,10.89,25,0.203,8.01
3.6190,0.06109,0.01920,0.43982,0.00000,0.00000,0.00000,64,-4,44,1,73,29,45,1,ok,2,0,0.001,4,0.53,1.10,9.94,26,0.000,8.01
3.6238,0.06109,0.01920,0.43982,0.00000,0.00000,0.00000,63,-6,45,2,74,26,46,0,ok,2,0,0.001,4,0.53,1.10,9.94,26,0.013,8.01
3.6363,0.06109,0.01920,0.43982,0.00000,0.00000,0.00000,62,-8,47,2,76,22,47,0,ok,2,0,0.001,4,0.53,1.10,9.94,26,0.025,8.01
3.6589,0.06109,0.01920,0.43982,0.00000,0.00000,0.00000,60,-9,48,3,77,17,49,0,ok,2,0,0.001,4,0.53,1.10,9.94,26,0.037,8.01
3.6621,0.06109,0.01920,0.43982,0.00000,0.00000,0.00000,58,-10,49,3,79,14,49,0,ok,2,0,0.001,4,0.53,1.10,9.94,26,0.051,8.01
3.6746,0.06109,0.01920,0.43982,0.00000,0.00000,0.00000,55,-11,50,3,79,14,50,0,ok,2,0,0.001,4,0.53,1.10,9.94,26,0.064,8.01
3.6948,0.06109,0.01920,0.43982,0.00000,0.00000,0.00000,53,-12,50,5,79,11,51,0,ok,2,0,0.001,4,0.53,1.10,9.94,26,0.076,8.01
3.6996,0.06109,0.01920,0.43982,0.00000,0.00000,0.00000,51,-11,52,5,79,8,52,0,ok,2,0,0.001,4,0.53,1.10,9.94,26,0.089,8.01
3.7123,0.06109,0.01920,0.43982,0.00000,0.00000,0.00000,48,-11,52,5,78,5,53,0,ok,2,0,0.001,4,0.53,1.10,9.94,26,0.101,8.01
3.7349,0.06109,0.01920,0.43982,0.00000,0.00000,0.00000,46,-11,53,6,77,2,54,0,ok,2,0,0.001,4,0.53,1.10,9.94,26,0.114,8.01
3.7379,0.06109,0.01920,0.43982,0.00000,0.00000,0.00000,43,-11,54,7,77,-1,54,1,ok,2,0,0.001,4,0.53,1.10,9.94,26,0.127,8.01
3.7505,0.06109,0.01920,0.43982,0.00000,0.00000,0.00000,41,-11,56,7,76,-3,55,0,ok,2,0,0.001,4,0.53,1.10,9.94,26,0.139,8.01
3.7708,0.06109,0.01920,0.43982,0.00000,0.00000,0.00000,39,-10,56,7,75,-4,56,0,ok,2,0,0.001,4,0.53,1.10,9.94,26,0.152,8.01
3.7757,0.06109,0.01920,0.43982,0.00000,0.00000,0.00000,36,-9,57,7,73,-8,57,-1,ok,2,0,0.001,4,0.53,1.10,9.94,26,0.164,8.01
3.7882,0.06109,0.01920,0.43982,0.00000,0.00000,0.00000,33,-8,57,8,71,-7,57,0,ok,2,0,0.001,4,0.53,1.10,9.94,26,0.177,8.01
3.8109,0.06109,0.01920,0.43982,0.00000,0.00000,0.00000,29,-6,58,8,69,-9,58,0,ok,2,0,0.001,4,0.53,1.10,9.94,26,0.189,8.01
3.8142,0.06283,-0.09076,0.44157,0.00000,0.00000,0.00000,27,-4,59,9,68,-11,59,0,ok,2,0,0.001,4,-1.06,1.04,8.89,27,0.000,8.01
3.8265,0.06283,-0.09076,0.44157,0.00000,0.00000,0.00000,23,-2,60,11,66,-12,60,0,ok,2,0,0.001,4,-1.06,1.04,8.89,27,0.013,8.01
3.8468,0.06283,-0.09076,0.44157,0.00000,0.00000,0.00000,21,-1,61,11,64,-13,61,0,ok,2,0,0.001,4,-1.06,1.04,8.89,27,0.025,8.01
3.8515,0.06283,-0.09076,0.44157,0.00000,0.00000,0.00000,19,1,62,11,62,-13,63,-3,ok,2,0,0.001,4,-1.06,1.04,8.89,27,0.038,8.01
3.8643,0.06283,-0.09076,0.44157,0.00000,0.00000,0.00000,17,3,63,12,59,-14,64,-2,ok,2,0,0.001,4,-1.06,1.04,8.89,27,0.050,8.01
3.8908,0.06283,-0.09076,0.44157,0.00000,0.00000,0.00000,15,7,63,13,57,-15,64,-2,ok,2,0,0.001,4,-1.06,1.04,8.89,27,0.063,8.01
3.8940,0.06283,-0.09076,0.44157,0.00000,0.00000,0.00000,13,10,63,14,54,-14,65,-1,ok,2,0,0.001,4,-1.06,1.04,8.89,27,0.080,8.01
3.9065,0.06283,-0.09076,0.44157,0.00000,0.00000,0.00000,11,13,64,15,52,-13,66,-1,ok,2,0,0.001,4,-1.06,1.04,8.89,27,0.093,8.01
3.9268,0.06283,-0.09076,0.44157,0.00000,0.00000,0.00000,13,13,64,16,49,-13,67,0,ok,2,0,0.001,4,-1.06,1.04,8.89,27,0.105,8.01
3.9315,0.06283,-0.09076,0.44157,0.00000,0.00000,0.00000,13,13,64,17,46,-12,67,-1,ok,2,0,0.001,4,-1.06,1.04,8.89,27,0.118,8.01
3.9444,0.06283,-0.09076,0.44157,0.00000,0.00000,0.00000,14,12,65,17,44,-12,68,0,ok,2,0,0.001,4,-1.06,1.04,8.89,27,0.130,8.01
3.9668,0.06283,-0.09076,0.44157,0.00000,0.00000,0.00000,16,12,65,18,41,-11,69,0,ok,2,0,0.001,4,-1.06,1.04,8.89,27,0.143,8.01
3.9699,0.06283,-0.09076,0.44157,0.00000,0.00000,0.00000,16,11,66,19,38,-10,69,1,ok,2,0,0.001,4,-1.06,1.04,8.89,27,0.156,8.01
3.9825,0.06283,-0.09076,0.44157,0.00000,0.00000,0.00000,18,10,66,20,35,-8,69,2,ok,2,0,0.001,4,-1.06,1.04,8.89,27,0.169,8.01
4.0029,0.06283,-0.09076,0.44157,0.00000,0.00000,0.00000,19,10,66,21,33,-7,70,3,ok,2,0,0.001,4,-1.06,1.04,8.89,27,0.181,8.01
4.0078,-0.06109,-0.01222,0.45553,0.00000,0.00000,0.00000,21,9,66,21,31,-6,71,4,ok,2,0,0.001,4,0.71,-0.97,10.19,28,0.000,8.01
4.0203,-0.06109,-0.01222,0.45553,0.00000,0.00000,0.00000,22,8,66,23,29,-3,71,5,ok,2,0,0.001,4,0.71,-0.97,10.19,28,0.013,8.01
4.0429,-0.06109,-0.01222,0.45553,0.00000,0.00000,0.00000,24,7,65,23,28,-1,71,6,ok,2,0,0.001,4,0.71,-0.97,10.19,28,0.025,8.01
4.0460,-0.06109,-0.01222,0.45553,0.00000,0.00000,0.00000,25,6,65,24,26,3,71,8,ok,2,0,0.001,4,0.71,-0.97,10.19,28,0.038,8.01
4.0585,-0.06109,-0.01222,0.45553,0.00000,0.00000,0.00000,26,6,65,25,26,6,72,9,ok,2,0,0.001,4,0.71,-0.97,10.19,28,0.051,8.01
4.0788,-0.06109,-0.01222,0.45553,0.00000,0.00000,0.00000,27,5,64,28,28,5,72,9,ok,2,0,0.001,4,0.71,-0.97,10.19,28,0.064,8.01
4.0835,-0.06109,-0.01222,0.45553,0.00000,0.00000,0.00000,28,4,64,29,28,5,72,11,ok,2,0,0.001,4,0.71,-0.97,10.19,28,0.076,8.01
4.0963,-0.06109,-0.01222,0.45553,0.00000,0.00000,0.00000,30,4,65,28,29,3,72,12,ok,0,0,0.001,4,0.71,-0.97,10.19,28,0.089,8.01
4.1189,-0.06109,-0.01222,0.45553,0.00000,0.00000,0.00000,31,3,68,25,30,2,73,14,ok,2,0,0.001,4,0.71,-0.97,10.19,28,0.101,8.01
4.1220,-0.06109,-0.01222,0.45553,0.00000,0.00000,0.00000,32,3,70,21,32,2,73,15,ok,2,0,0.001,4,0.71,-0.97,10.19,28,0.114,8.01
4.1345,-0.06109,-0.01222,0.45553,0.00000,0.00000,0.00000,33,2,71,17,33,2,72,17,ok,2,0,0.001,4,0.71,-0.97,10.19,28,0.127,8.01
4.1548,-0.06109,-0.01222,0.45553,0.00000,0.00000,0.00000,34,2,71,15,34,1,72,19,ok,2,0,0.001,4,0.71,-0.97,10.19,28,0.140,8.01
4.1596,-0.06109,-0.01222,0.45553,0.00000,0.00000,0.00000,36,1,71,14,37,1,73,20,ok,2,0,0.001,4,0.71,-0.97,10.19,28,0.152,8.01
4.1724,-0.06109,-0.01222,0.45553,0.00000,0.00000,0.00000,38,1,71,11,37,1,72,22,ok,2,0,0.001,4,0.71,-0.97,10.19,28,0.165,8.01
4.1948,-0.06109,-0.01222,0.45553,0.00000,0.00000,0.00000,39,1,71,8,39,1,72,23,ok,2,0,0.001,4,0.71,-0.97,10.19,28,0.177,8.01
4.1981,-0.06109,-0.01222,0.45553,0.00000,0.00000,0.00000,40,1,70,5,40,1,72,24,ok,2,0,0.001,4,0.71,-0.97,10.19,28,0.190,8.01
4.2108,-0.06807,-0.02094,0.47473,0.00000,0.00000,0.00000,42,0,70,3,41,1,72,26,ok,0,0,0.001,4,-0.79,-0.69,8.01,29,0.000,8.01
4.2308,-0.06807,-0.02094,0.47473,0.00000,0.00000,0.00000,43,0,69,1,42,0,72,28,ok,0,0,0.001,4,-0.79,-0.69,8.01,29,0.013,8.01
4.2356,-0.06807,-0.02094,0.47473,0.00000,0.00000,0.00000,45,0,68,-1,44,0,71,29,ok,0,0,0.001,4,-0.79,-0.69,8.01,29,0.025,8.01
4.2481,-0.06807,-0.02094,0.47473,0.00000,0.00000,0.00000,45,0,65,-2,45,-1,72,29,ok,2,0,0.001,4,-0.79,-0.69,8.01,29,0.038,8.01
4.2709,-0.06807,-0.02094,0.47473,0.00000,0.00000,0.00000,47,1,64,-4,46,0,74,28,ok,2,0,0.001,4,-0.79,-0.69,8.01,29,0.050,8.01
4.2740,-0.06807,-0.02094,0.47473,0.00000,0.00000,0.00000,48,1,64,-6,48,0,75,26,ok,2,0,0.001,4,-0.79,-0.69,8.01,29,0.063,8.01
4.2866,-0.06807,-0.02094,0.47473,0.00000,0.00000,0.00000,49,2,61,-7,48,0,77,20,ok,2,0,0.001,4,-0.79,-0.69,8.01,29,0.076,8.01
4.3068,-0.06807,-0.02094,0.47473,0.00000,0.00000,0.00000,50,1,59,-8,49,0,78,17,ok,2,0,0.001,4,-0.79,-0.69,8.01,29,0.089,8.01
4.3117,-0.06807,-0.02094,0.47473,0.00000,0.00000,0.00000,51,1,57,-9,50,0,80,14,ok,2,0,0.001,4,-0.79,-0.69,8.01,29,0.101,8.01
4.3241,-0.06807,-0.02094,0.47473,0.00000,0.00000,0.00000,51,4,54,-10,52,0,80,13,ok,2,0,0.001,4,-0.79,-0.69,8.01,29,0.114,8.01
4.3469,-0.06807,-0.02094,0.47473,0.00000,0.00000,0.00000,52,5,51,-9,53,0,80,10,ok,2,0,0.001,4,-0.79,-0.69,8.01,29,0.126,8.01
4.3501,-0.06807,-0.02094,0.47473,0.00000,0.00000,0.00000,53,4,49,-9,54,0,80,7,ok,2,0,0.001,4,-0.79,-0.69,8.01,29,0.139,8.01
4.3625,-0.06807,-0.02094,0.47473,0.00000,0.00000,0.00000,53,5,46,-9,55,1,80,4,ok,2,0,0.001,4,-0.79,-0.69,8.01,29,0.152,8.01
4.3828,-0.06807,-0.02094,0.47473,0.00000,0.00000,0.00000,54,6,43,-9,56,0,79,2,ok,2,0,0.001,4,-0.79,-0.69,8.01,29,0.165,8.01
4.3876,-0.06807,-0.02094,0.47473,0.00000,0.00000,0.00000,56,6,41,-9,57,1,78,-2,ok,2,0,0.001,4,-0.79,-0.69,8.01,29,0.177,8.01
4.4002,-0.06807,-0.02094,0.47473,0.00000,0.00000,0.00000,56,6,39,-8,58,0,78,-3,ok,2,0,0.001,4,-0.79,-0.69,8.01,29,0.190,8.01
4.4229,-0.06109,0.02269,0.50091,0.00000,0.00000,0.00000,57,7,36,-7,58,1,76,-5,ok,2,0,0.001,4,0.29,-0.67,9.69,30,0.000,8.01
4.4262,-0.06109,0.02269,0.50091,0.00000,0.00000,0.00000,58,8,33,-6,59,1,74,-7,ok,2,0,0.001,4,0.29,-0.67,9.69,30,0.013,8.01
4.4385,-0.06109,0.02269,0.50091,0.00000,0.00000,0.00000,59,8,29,-5,60,1,72,-7,ok,2,0,0.001,4,0.29,-0.67,9.69,30,0.026,8.01
4.4589,-0.06109,0.02269,0.50091,0.00000,0.00000,0.00000,59,9,26,-3,61,1,71,-9,ok,2,0,0.001,4,0.29,-0.67,9.69,30,0.039,8.01
4.4636,-0.06109,0.02269,0.50091,0.00000,0.00000,0.00000,61,10,22,-1,62,1,69,-11,ok,2,0,0.001,4,0.29,-0.67,9.69,30,0.051,8.01
4.4761,-0.06109,0.02269,0.50091,0.00000,0.00000,0.00000,61,10,20,0,64,-1,67,-12,ok,2,0,0.001,4,0.29,-0.67,9.69,30,0.064,8.01
4.4989,-0.06109,0.02269,0.50091,0.00000,0.00000,0.00000,62,11,18,1,64,-1,65,-13,ok,2,0,0.001,4,0.29,-0.67,9.69,30,0.076,8.01
4.5022,-0.06109,0.02269,0.50091,0.00000,0.00000,0.00000,63,12,16,3,65,0,63,-13,ok,2,0,0.001,4,0.29,-0.67,9.69,30,0.089,8.01
4.5145,-0.06109,0.02269,0.50091,0.00000,0.00000,0.00000,63,12,14,7,66,0,60,-14,ok,2,0,0.001,4,0.29,-0.67,9.69,30,0.102,8.01
4.5348,-0.06109,0.02269,0.50091,0.00000,0.00000,0.00000,63,13,13,10,66,0,59,-15,ok,2,0,0.001,4,0.29,-0.67,9.69,30,0.115,8.01
4.5396,-0.06109,0.02269,0.50091,0.00000,0.00000,0.00000,64,14,11,12,67,0,55,-13,ok,2,0,0.001,4,0.29,-0.67,9.69,30,0.127,8.01
4.5524,-0.06109,0.02269,0.50091,0.00000,0.00000,0.00000,64,15,12,13,67,1,53,-12,ok,2,0,0.001,4,0.29,-0.67,9.69,30,0.140,8.01
4.5749,-0.06109,0.02269,0.50091,0.00000,0.00000,0.00000,65,16,12,12,68,1,50,-12,ok,2,0,0.001,4,0.29,-0.67,9.69,30,0.152,8.01
4.5780,-0.06109,0.02269,0.50091,0.00000,0.00000,0.00000,65,17,14,11,69,1,47,-11,ok,2,0,0.001,4,0.29,-0.67,9.69,30,0.165,8.01
4.5905,-0.06109,0.02269,0.50091,0.00000,0.00000,0.00000,65,18,15,11,69,2,45,-10,ok,2,0,0.001,5,0.29,-0.67,9.69,30,0.178,8.01
4.6109,-0.06109,0.02269,0.50091,0.00000,0.00000,0.00000,66,18,15,10,69,3,41,-9,ok,2,0,0.001,5,0.29,-0.67,9.69,30,0.191,8.01
4.6157,-0.06109,0.02269,0.50091,0.00000,0.00000,0.00000,66,18,17,9,70,3,39,-9,ok,2,0,0.001,5,0.29,-0.67,9.69,30,0.203,8.01
4.6285,0.06632,0.01396,0.53233,0.00000,0.00000,0.00000,66,20,18,9,70,5,35,-7,ok,2,0,0.001,5,-0.70,0.91,8.74,31,0.000,8.01
4.6509,0.06632,0.01396,0.53233,0.00000,0.00000,0.00000,67,21,20,8,71,5,34,-6,ok,2,0,0.001,5,-0.70,0.91,8.74,31,0.013,8.01
4.6541,0.06632,0.01396,0.53233,0.00000,0.00000,0.00000,67,22,21,7,71,6,32,-4,ok,2,0,0.001,5,-0.70,0.91,8.74,31,0.026,8.01
4.6666,0.06632,0.01396,0.53233,0.00000,0.00000,0.00000,67,23,22,6,71,8,30,-1,ok,2,0,0.001,5,-0.70,0.91,8.74,31,0.039,8.01
4.6868,0.06632,0.01396,0.53233,0.00000,0.00000,0.00000,67,24,23,6,71,8,29,1,ok,2,0,0.001,5,-0.70,0.91,8.74,31,0.051,8.01
4.6916,0.06632,0.01396,0.53233,0.00000,0.00000,0.00000,66,25,25,5,71,9,27,5,ok,2,0,0.001,5,-0.70,0.91,8.74,31,0.064,8.01
4.7042,0.06632,0.01396,0.53233,0.00000,0.00000,0.00000,65,28,26,5,71,10,27,7,ok,2,0,0.001,5,-0.70,0.91,8.74,31,0.076,8.01
4.7269,0.06632,0.01396,0.53233,0.00000,0.00000,0.00000,65,29,27,3,71,12,29,6,ok,2,0,0.001,5,-0.70,0.91,8.74,31,0.089,8.01
4.7300,0.06632,0.01396,0.53233,0.00000,0.00000,0.00000,66,28,28,3,71,13,29,6,ok,2,0,0.001,5,-0.70,0.91,8.74,31,0.102,8.01
4.7426,0.06632,0.01396,0.53233,0.00000,0.00000,0.00000,69,25,30,3,72,15,31,4,ok,2,0,0.001,5,-0.70,0.91,8.74,31,0.114,8.01
4.7628,0.06632,0.01396,0.53233,0.00000,0.00000,0.00000,71,21,31,2,71,16,32,3,ok,2,0,0.001,5,-0.70,0.91,8.74,31,0.127,8.01
4.7676,0.06632,0.01396,0.53233,0.00000,0.00000,0.00000,72,17,32,2,71,18,33,3,ok,2,0,0.001,5,-0.70,0.91,8.74,31,0.139,8.01
4.7801,0.06632,0.01396,0.53233,0.00000,0.00000,0.00000,72,15,34,2,72,19,35,2,ok,2,0,0.001,5,-0.70,0.91,8.74,31,0.152,8.01
4.8029,0.06632,0.01396,0.53233,0.00000,0.00000,0.00000,72,14,35,2,71,21,36,1,ok,2,0,0.001,5,-0.70,0.91,8.74,31,0.164,8.01
4.8061,0.06632,0.01396,0.53233,0.00000,0.00000,0.00000,72,11,36,2,71,22,38,1,ok,2,0,0.001,5,-0.70,0.91,8.74,31,0.178,8.01
4.8188,0.02793,-0.00175,0.62483,0.00000,0.00000,0.00000,71,7,38,2,71,24,39,2,ok,2,0,0.001,5,0.05,0.03,9.90,32,0.000,8.01
4.8388,0.02793,-0.00175,0.62483,0.00000,0.00000,0.00000,70,5,39,2,71,25,41,1,ok,2,0,0.001,5,0.05,0.03,9.90,32,0.013,8.01
4.8436,0.02793,-0.00175,0.62483,0.00000,0.00000,0.00000,70,1,40,2,70,27,42,2,ok,2,0,0.001,5,0.05,0.03,9.90,32,0.025,8.01
4.8564,0.02793,-0.00175,0.62483,0.00000,0.00000,0.00000,68,-1,42,1,70,28,43,2,ok,2,0,0.001,5,0.05,0.03,9.90,32,0.038,8.01
4.8789,0.02793,-0.00175,0.62483,0.00000,0.00000,0.00000,67,-3,43,2,71,29,44,1,ok,2,0,0.001,5,0.05,0.03,9.90,32,0.050,8.01
4.8820,0.02793,-0.00175,0.62483,0.00000,0.00000,0.00000,65,-4,44,2,72,29,45,1,ok,2,0,0.001,5,0.05,0.03,9.90,32,0.063,8.01
4.8946,0.02793,-0.00175,0.62483,0.00000,0.00000,0.00000,64,-6,45,2,73,26,46,0,ok,2,0,0.001,5,0.05,0.03,9.90,32,0.076,8.01
4.9148,0.02793,-0.00175,0.62483,0.00000,0.00000,0.00000,63,-8,46,2,75,21,48,0,ok,2,0,0.001,5,0.05,0.03,9.90,32,0.089,8.01
4.9196,0.02793,-0.00175,0.62483,0.00000,0.00000,0.00000,61,-9,48,3,77,17,49,0,ok,2,0,0.001,5,0.05,0.03,9.90,32,0.101,8.01
4.9321,0.02793,-0.00175,0.62483,0.00000,0.00000,0.00000,58,-10,49,3,78,14,49,0,ok,2,0,0.001,5,0.05,0.03,9.90,32,0.114,8.01
4.9549,0.02793,-0.00175,0.62483,0.00000,0.00000,0.00000,56,-11,50,3,78,13,50,0,ok,2,0,0.001,5,0.05,0.03,9.90,32,0.126,8.01
4.9580,0.02793,-0.00175,0.62483,0.00000,0.00000,0.00000,54,-12,50,5,78,11,51,0,ok,2,0,0.001,5,0.05,0.03,9.90,32,0.139,8.01
4.9706,0.02793,-0.00175,0.62483,0.00000,0.00000,0.00000,51,-11,52,6,78,8,52,0,ok,2,0,0.001,5,0.05,0.03,9.90,32,0.152,8.01
4.9908,0.02793,-0.00175,0.62483,0.00000,0.00000,0.00000,48,-11,52,5,78,5,53,0,ok,2,0,0.001,5,0.05,0.03,9.90,32,0.165,8.01
4.9956,0.02793,-0.00175,0.62483,0.00000,0.00000,0.00000,46,-11,53,6,77,2,54,0,ok,2,0,0.001,5,0.05,0.03,9.90,32,0.177,8.01
5.0081,0.02793,-0.00175,0.62483,0.00000,0.00000,0.00000,43,-11,54,7,77,-1,54,1,ok,2,0,0.001,5,0.05,0.03,9.90,32,0.190,8.01
5.0348,0.04014,-0.02443,0.60563,0.00000,0.00000,0.00000,41,-11,56,7,76,-3,55,0,ok,2,0,0.001,5,-0.75,0.50,10.36,33,0.000,8.01
5.0380,0.04014,-0.02443,0.60563,0.00000,0.00000,0.00000,39,-10,56,7,75,-5,56,0,ok,2,0,0.001,5,-0.75,0.50,10.36,33,0.017,8.01
5.0505,0.04014,-0.02443,0.60563,0.00000,0.00000,0.00000,36,-9,57,8,73,-8,57,-1,ok,2,0,0.001,5,-0.75,0.50,10.36,33,0.030,8.01
5.0708,0.04014,-0.02443,0.60563,0.00000,0.00000,0.00000,33,-8,57,8,70,-7,57,0,ok,2,0,0.001,5,-0.75,0.50,10.36,33,0.042,8.01
5.0756,0.04014,-0.02443,0.60563,0.00000,0.00000,0.00000,30,-6,58,9,69,-10,58,0,ok,2,0,0.001,5,-0.75,0.50,10.36,33,0.055,8.01
5.0882,0.04014,-0.02443,0.60563,0.00000,0.00000,0.00000,27,-4,59,9,68,-11,59,0,ok,2,0,0.001,5,-0.75,0.50,10.36,33,0.067,8.01
5.1109,0.04014,-0.02443,0.60563,0.00000,0.00000,0.00000,23,-2,60,11,66,-12,60,0,ok,2,0,0.001,5,-0.75,0.50,10.36,33,0.080,8.01
5.1140,0.04014,-0.02443,0.60563,0.00000,0.00000,0.00000,21,-1,61,11,64,-13,61,0,ok,2,0,0.001,5,-0.75,0.50,10.36,33,0.093,8.01
5.1265,0.04014,-0.02443,0.60563,0.00000,0.00000,0.00000,19,1,62,11,62,-13,63,-3,ok,2,0,0.002,5,-0.75,0.50,10.36,33,0.106,8.01
5.1468,0.04014,-0.02443,0.60563,0.00000,0.00000,0.00000,17,3,62,12,59,-14,64,-1,ok,2,0,0.001,5,-0.75,0.50,10.36,33,0.118,8.01
5.1516,0.04014,-0.02443,0.60563,0.00000,0.00000,0.00000,15,7,63,13,57,-15,64,-1,ok,2,0,0.002,5,-0.75,0.50,10.36,33,0.131,8.01
5.1641,0.04014,-0.02443,0.60563,0.00000,0.00000,0.00000,13,10,63,14,54,-14,65,-1,ok,2,0,0.002,5,-0.75,0.50,10.36,33,0.144,8.01
5.1869,0.04014,-0.02443,0.60563,0.00000,0.00000,0.00000,11,12,64,15,52,-13,66,-1,ok,2,0,0.002,5,-0.75,0.50,10.36,33,0.156,8.01
5.1902,0.04014,-0.02443,0.60563,0.00000,0.00000,0.00000,13,13,64,16,49,-13,67,0,ok,2,0,0.002,5,-0.75,0.50,10.36,33,0.169,8.01
5.2026,0.04014,-0.02443,0.60563,0.00000,0.00000,0.00000,13,13,64,17,46,-12,67,0,ok,2,0,0.002,5,-0.75,0.50,10.36,33,0.182,8.01
5.2228,0.04014,-0.02443,0.60563,0.00000,0.00000,0.00000,15,12,65,17,44,-12,68,0,ok,2,0,0.002,5,-0.75,0.50,10.36,33,0.194,8.01
5.2278,0.00524,-0.01396,0.62308,0.00000,0.00000,0.00000,16,11,65,18,41,-10,69,0,ok,2,0,0.002,5,0.28,-0.29,11.44,34,0.000,8.01
5.2401,0.00524,-0.01396,0.62308,0.00000,0.00000,0.00000,17,11,65,19,38,-10,69,2,ok,2,0,0.002,5,0.28,-0.29,11.44,34,0.013,8.01
5.2629,0.00524,-0.01396,0.62308,0.00000,0.00000,0.00000,19,10,65,20,35,-8,70,2,ok,2,0,0.002,5,0.28,-0.29,11.44,34,0.025,8.01
5.2660,0.00524,-0.01396,0.62308,0.00000,0.00000,0.00000,19,10,65,21,33,-7,71,3,ok,2,0,0.002,5,0.28,-0.29,11.44,34,0.038,8.01
5.2787,0.00524,-0.01396,0.62308,0.00000,0.00000,0.00000,21,8,66,21,31,-5,71,5,ok,2,0,0.002,5,0.28,-0.29,11.44,34,0.051,8.01
5.2988,0.00524,-0.01396,0.62308,0.00000,0.00000,0.00000,22,8,66,22,29,-2,72,5,ok,2,0,0.002,5,0.28,-0.29,11.44,34,0.064,8.01
5.3036,0.00524,-0.01396,0.62308,0.00000,0.00000,0.00000,24,7,65,23,28,0,72,6,ok,2,0,0.002,5,0.28,-0.29,11.44,34,0.076,8.01
5.3162,0.00524,-0.01396,0.62308,0.00000,0.00000,0.00000,25,6,65,24,26,4,72,8,ok,2,0,0.002,5,0.28,-0.29,11.44,34,0.088,8.01
5.3389,0.00524,-0.01396,0.62308,0.00000,0.00000,0.00000,26,6,65,25,26,6,72,8,ok,2,0,0.002,5,0.28,-0.29,11.44,34,0.101,8.01
5.3422,0.00524,-0.01396,0.62308,0.00000,0.00000,0.00000,27,5,64,28,28,6,72,9,ok,2,0,0.002,5,0.28,-0.29,11.44,34,0.114,8.01
5.3545,0.00524,-0.01396,0.62308,0.00000,0.00000,0.00000,29,4,64,29,28,5,73,11,ok,0,0,0.002,5,0.28,-0.29,11.44,34,0.127,8.01
5.3748,0.00524,-0.01396,0.62308,0.00000,0.00000,0.00000,30,4,65,28,29,3,72,12,ok,2,0,0.002,5,0.28,-0.29,11.44,34,0.140,8.01
5.3796,0.00524,-0.01396,0.62308,0.00000,0.00000,0.00000,31,3,68,25,30,2,73,14,ok,2,0,0.002,5,0.28,-0.29,11.44,34,0.152,8.01
5.3921,0.00524,-0.01396,0.62308,0.00000,0.00000,0.00000,32,3,70,21,32,2,73,15,ok,2,0,0.002,5,0.28,-0.29,11.44,34,0.165,8.01
5.4149,0.00524,-0.01396,0.62308,0.00000,0.00000,0.00000,34,2,71,17,33,2,73,17,ok,2,0,0.002,5,0.28,-0.29,11.44,34,0.177,8.01
5.4183,-0.01920,0.00698,0.60039,0.00000,0.00000,0.00000,35,2,71,15,34,1,73,19,ok,2,0,0.002,5,0.93,1.18,11.03,35,0.000,8.01
5.4307,-0.01920,0.00698,0.60039,0.00000,0.00000,0.00000,37,1,71,14,37,1,73,20,ok,2,0,0.002,5,0.93,1.18,11.03,35,0.013,8.01
5.4509,-0.01920,0.00698,0.60039,0.00000,0.00000,0.00000,38,1,71,11,37,1,72,22,ok,2,0,0.002,5,0.93,1.18,11.03,35,0.025,8.01
5.4560,-0.01920,0.00698,0.60039,0.00000,0.00000,0.00000,40,1,71,8,39,2,72,24,ok,2,0,0.002,5,0.93,1.18,11.03,35,0.038,8.01
5.4683,-0.01920,0.00698,0.60039,0.00000,0.00000,0.00000,41,1,70,5,40,1,73,25,ok,2,0,0.002,5,0.93,1.18,11.03,35,0.050,8.01
5.4909,-0.01920,0.00698,0.60039,0.00000,0.00000,0.00000,42,0,70,3,41,1,72,26,ok,0,0,0.002,5,0.93,1.18,11.03,35,0.063,8.01
5.4942,-0.01920,0.00698,0.60039,0.00000,0.00000,0.00000,44,0,68,1,42,1,72,28,ok,0,0,0.002,5,0.93,1.18,11.03,35,0.076,8.01
5.5069,-0.01920,0.00698,0.60039,0.00000,0.00000,0.00000,45,0,67,-1,44,1,72,29,ok,2,0,0.002,5,0.93,1.18,11.03,35,0.089,8.01
5.5269,-0.01920,0.00698,0.60039,0.00000,0.00000,0.00000,45,0,65,-2,45,0,73,29,ok,2,0,0.002,5,0.93,1.18,11.03,35,0.101,8.01
5.5316,-0.01920,0.00698,0.60039,0.00000,0.00000,0.00000,47,0,64,-4,46,0,74,28,ok,2,0,0.002,5,0.93,1.18,11.03,35,0.114,8.01
5.5442,-0.01920,0.00698,0.60039,0.00000,0.00000,0.00000,48,0,63,-6,47,0,76,26,ok,2,0,0.002,5,0.93,1.18,11.03,35,0.126,8.01
5.5669,-0.01920,0.00698,0.60039,0.00000,0.00000,0.00000,50,2,61,-7,48,0,78,21,ok,2,0,0.002,5,0.93,1.18,11.03,35,0.139,8.01
5.5700,-0.01920,0.00698,0.60039,0.00000,0.00000,0.00000,51,1,59,-8,49,0,79,17,ok,2,0,0.002,5,0.93,1.18,11.03,35,0.152,8.01
5.5826,-0.01920,0.00698,0.60039,0.00000,0.00000,0.00000,51,1,56,-8,50,0,80,14,ok,2,0,0.002,5,0.93,1.18,11.03,35,0.165,8.01
5.6028,-0.01920,0.00698,0.60039,0.00000,0.00000,0.00000,51,4,54,-9,52,0,81,13,ok,2,0,0.002,5,0.93,1.18,11.03,35,0.177,8.01
5.6076,-0.01920,0.00698,0.60039,0.00000,0.00000,0.00000,52,5,51,-9,53,0,81,10,ok,2,0,0.002,6,0.93,1.18,11.03,35,0.190,8.01
5.6204,-0.08901,-0.01047,0.68417,0.00000,0.00000,0.00000,53,4,48,-9,54,0,81,7,ok,2,0,0.002,6,-1.02,-0.99,9.26,36,0.000,8.01
5.6429,-0.08901,-0.01047,0.68417,0.00000,0.00000,0.00000,54,5,46,-9,55,1,80,4,ok,2,0,0.002,6,-1.02,-0.99,9.26,36,0.013,8.01
5.6461,-0.08901,-0.01047,0.68417,0.00000,0.00000,0.00000,54,6,43,-9,55,1,79,2,ok,2,0,0.002,6,-1.02,-0.99,9.26,36,0.026,8.01
5.6586,-0.08901,-0.01047,0.68417,0.00000,0.00000,0.00000,56,6,41,-9,57,1,78,-1,ok,2,0,0.002,6,-1.02,-0.99,9.26,36,0.038,8.01
5.6789,-0.08901,-0.01047,0.68417,0.00000,0.00000,0.00000,56,6,39,-8,58,0,78,-3,ok,2,0,0.002,6,-1.02,-0.99,9.26,36,0.051,8.01
5.6836,-0.08901,-0.01047,0.68417,0.00000,0.00000,0.00000,58,7,35,-7,58,1,77,-5,ok,2,0,0.002,6,-1.02,-0.99,9.26,36,0.063,8.01
5.6961,-0.08901,-0.01047,0.68417,0.00000,0.00000,0.00000,58,8,33,-6,59,1,75,-7,ok,2,0,0.002,6,-1.02,-0.99,9.26,36,0.076,8.01
5.7189,-0.08901,-0.01047,0.68417,0.00000,0.00000,0.00000,59,8,29,-5,60,1,72,-7,ok,2,0,0.002,6,-1.02,-0.99,9.26,36,0.088,8.01
5.7220,-0.08901,-0.01047,0.68417,0.00000,0.00000,0.00000,60,9,26,-3,61,1,71,-9,ok,2,0,0.002,6,-1.02,-0.99,9.26,36,0.102,8.01
5.7346,-0.08901,-0.01047,0.68417,0.00000,0.00000,0.00000,61,10,22,-1,62,1,69,-11,ok,2,0,0.002,6,-1.02,-0.99,9.26,36,0.115,8.01
5.7548,-0.08901,-0.01047,0.68417,0.00000,0.00000,0.00000,62,10,20,0,64,-1,67,-12,ok,2,0,0.002,6,-1.02,-0.99,9.26,36,0.127,8.01
5.7596,-0.08901,-0.01047,0.68417,0.00000,0.00000,0.00000,63,11,18,1,64,-1,65,-13,ok,2,0,0.002,6,-1.02,-0.99,9.26,36,0.139,8.01
5.7721,-0.08901,-0.01047,0.68417,0.00000,0.00000,0.00000,63,12,16,3,65,0,63,-13,ok,2,0,0.002,6,-1.02,-0.99,9.26,36,0.152,8.01
5.7949,-0.08901,-0.01047,0.68417,0.00000,0.00000,0.00000,64,12,14,7,66,0,60,-14,ok,2,0,0.002,6,-1.02,-0.99,9.26,36,0.164,8.01
5.7980,-0.08901,-0.01047,0.68417,0.00000,0.00000,0.00000,64,13,13,10,66,0,59,-14,ok,2,0,0.002,6,-1.02,-0.99,9.26,36,0.178,8.01
5.8105,-0.08901,-0.01047,0.68417,0.00000,0.00000,0.00000,64,14,11,12,67,0,55,-13,ok,2,0,0.002,6,-1.02,-0.99,9.26,36,0.190,8.01
5.8309,-0.08901,-0.01047,0.68417,0.00000,0.00000,0.00000,65,15,12,13,67,1,53,-12,ok,2,0,0.002,6,-1.02,-0.99,9.26,36,0.203,8.01
5.8359,-0.05585,-0.03491,0.69464,0.00000,0.00000,0.00000,65,16,12,13,68,1,50,-12,ok,2,0,0.002,6,-0.23,-0.78,9.94,37,0.000,8.01
5.8481,-0.05585,-0.03491,0.69464,0.00000,0.00000,0.00000,66,17,14,11,68,1,47,-11,ok,2,0,0.002,6,-0.23,-0.78,9.94,37,0.013,8.01
5.8709,-0.05585,-0.03491,0.69464,0.00000,0.00000,0.00000,66,17,15,11,69,2,45,-10,ok,2,0,0.002,6,-0.23,-0.78,9.94,37,0.025,8.01
5.8740,-0.05585,-0.03491,0.69464,0.00000,0.00000,0.00000,66,18,16,10,69,3,42,-9,ok,2,0,0.002,6,-0.23,-0.78,9.94,37,0.038,8.01
5.8866,-0.05585,-0.03491,0.69464,0.00000,0.00000,0.00000,67,18,17,9,70,3,39,-9,ok,2,0,0.002,6,-0.23,-0.78,9.94,37,0.051,8.01
5.9068,-0.05585,-0.03491,0.69464,0.00000,0.00000,0.00000,67,20,18,9,70,4,35,-7,ok,2,0,0.002,6,-0.23,-0.78,9.94,37,0.064,8.01
5.9115,-0.05585,-0.03491,0.69464,0.00000,0.00000,0.00000,68,21,20,8,71,5,34,-5,ok,2,0,0.002,6,-0.23,-0.78,9.94,37,0.076,8.01
5.9241,-0.05585,-0.03491,0.69464,0.00000,0.00000,0.00000,68,22,21,7,71,6,32,-4,ok,2,0,0.002,6,-0.23,-0.78,9.94,37,0.089,8.01
5.9469,-0.05585,-0.03491,0.69464,0.00000,0.00000,0.00000,67,23,22,7,71,7,30,-1,ok,2,0,0.002,6,-0.23,-0.78,9.94,37,0.101,8.01
5.9502,-0.05585,-0.03491,0.69464,0.00000,0.00000,0.00000,67,24,23,6,71,8,29,2,ok,2,0,0.002,6,-0.23,-0.78,9.94,37,0.114,8.01
5.9626,-0.05585,-0.03491,0.69464,0.00000,0.00000,0.00000,67,25,25,5,71,9,27,5,ok,2,0,0.002,6,-0.23,-0.78,9.94,37,0.127,8.01
5.9828,-0.05585,-0.03491,0.69464,0.00000,0.00000,0.00000,66,28,26,5,71,10,27,7,ok,2,0,0.002,6,-0.23,-0.78,9.94,37,0.140,8.01
5.9876,-0.05585,-0.03491,0.69464,0.00000,0.00000,0.00000,65,29,27,4,71,11,29,6,ok,2,0,0.002,6,-0.23,-0.78,9.94,37,0.152,8.01
6.0004,-0.05585,-0.03491,0.69464,0.00000,0.00000,0.00000,66,28,28,4,71,13,29,6,ok,2,0,0.002,6,-0.23,-0.78,9.94,37,0.165,8.01
6.0229,-0.05585,-0.03491,0.69464,0.00000,0.00000,0.00000,69,25,30,3,72,14,30,3,ok,2,0,0.002,6,-0.23,-0.78,9.94,37,0.177,8.01
6.0261,-0.05585,-0.03491,0.69464,0.00000,0.00000,0.00000,71,21,31,2,71,15,32,3,ok,2,0,0.002,6,-0.23,-0.78,9.94,37,0.190,8.01
6.0388,-0.02443,0.05411,0.81856,0.00000,0.00000,0.00000,72,17,33,2,71,17,33,3,ok,2,0,0.002,6,0.59,-0.50,8.86,38,0.000,8.01
6.0588,-0.02443,0.05411,0.81856,0.00000,0.00000,0.00000,72,15,34,2,72,18,34,2,ok,2,0,0.002,6,0.59,-0.50,8.86,38,0.013,8.01
6.0636,-0.02443,0.05411,0.81856,0.00000,0.00000,0.00000,72,14,35,1,71,21,36,1,ok,2,0,0.002,6,0.59,-0.50,8.86,38,0.025,8.01
6.0761,-0.02443,0.05411,0.81856,0.00000,0.00000,0.00000,72,11,36,1,71,22,38,1,ok,2,0,0.002,6,0.59,-0.50,8.86,38,0.038,8.01
6.0989,-0.02443,0.05411,0.81856,0.00000,0.00000,0.00000,71,8,37,2,71,24,38,2,ok,2,0,0.002,6,0.59,-0.50,8.86,38,0.050,8.01
6.1020,-0.02443,0.05411,0.81856,0.00000,0.00000,0.00000,71,5,39,2,71,25,40,1,ok,2,0,0.002,6,0.59,-0.50,8.86,38,0.063,8.01
6.1145,-0.02443,0.05411,0.81856,0.00000,0.00000,0.00000,70,2,40,2,71,27,42,2,ok,2,0,0.002,6,0.59,-0.50,8.86,38,0.076,8.01
6.1348,-0.02443,0.05411,0.81856,0.00000,0.00000,0.00000,69,0,41,1,71,29,42,2,ok,2,0,0.002,6,0.59,-0.50,8.86,38,0.089,8.01
6.1396,-0.02443,0.05411,0.81856,0.00000,0.00000,0.00000,67,-3,43,2,71,29,44,1,ok,2,0,0.002,6,0.59,-0.50,8.86,38,0.101,8.01
6.1523,-0.02443,0.05411,0.81856,0.00000,0.00000,0.00000,65,-4,43,2,72,29,45,1,ok,2,0,0.002,6,0.59,-0.50,8.86,38,0.113,8.01
6.1749,-0.02443,0.05411,0.81856,0.00000,0.00000,0.00000,64,-6,45,2,74,26,46,0,ok,2,0,0.002,6,0.59,-0.50,8.86,38,0.126,8.01
6.1780,-0.02443,0.05411,0.81856,0.00000,0.00000,0.00000,63,-8,46,2,76,22,47,0,ok,2,0,0.002,6,0.59,-0.50,8.86,38,0.139,8.01
6.1905,-0.02443,0.05411,0.81856,0.00000,0.00000,0.00000,61,-9,48,3,77,17,49,1,ok,2,0,0.002,6,0.59,-0.50,8.86,38,0.152,8.01
6.2108,-0.02443,0.05411,0.81856,0.00000,0.00000,0.00000,59,-10,49,3,79,14,49,1,ok,2,0,0.002,6,0.59,-0.50,8.86,38,0.165,8.01
6.2156,-0.02443,0.05411,0.81856,0.00000,0.00000,0.00000,56,-11,50,3,79,14,50,1,ok,2,0,0.002,6,0.59,-0.50,8.86,38,0.177,8.01
6.2282,-0.02443,0.05411,0.81856,0.00000,0.00000,0.00000,54,-12,50,5,79,11,51,1,ok,2,0,0.002,6,0.59,-0.50,8.86,38,0.190,8.01
6.2509,0.05411,0.03316,0.78889,0.00000,0.00000,0.00000,51,-11,51,6,79,8,52,1,ok,2,0,0.002,6,-0.99,0.26,10.83,39,0.000,8.01
6.2540,0.05411,0.03316,0.78889,0.00000,0.00000,0.00000,48,-12,52,5,78,5,53,0,ok,2,0,0.002,6,-0.99,0.26,10.83,39,0.013,8.01
6.2667,0.05411,0.03316,0.78889,0.00000,0.00000,0.00000,46,-11,53,6,77,3,54,0,ok,2,0,0.002,6,-0.99,0.26,10.83,39,0.026,8.01
6.2868,0.05411,0.03316,0.78889,0.00000,0.00000,0.00000,44,-11,54,7,77,0,55,1,ok,2,0,0.002,6,-0.99,0.26,10.83,39,0.039,8.01
6.2916,0.05411,0.03316,0.78889,0.00000,0.00000,0.00000,41,-11,56,7,76,-3,55,0,ok,2,0,0.002,6,-0.99,0.26,10.83,39,0.051,8.01
6.3041,0.05411,0.03316,0.78889,0.00000,0.00000,0.00000,39,-10,56,7,75,-4,56,1,ok,2,0,0.002,6,-0.99,0.26,10.83,39,0.064,8.01
6.3268,0.05411,0.03316,0.78889,0.00000,0.00000,0.00000,36,-9,57,7,73,-7,57,-1,ok,2,0,0.002,6,-0.99,0.26,10.83,39,0.076,8.01
6.3300,0.05411,0.03316,0.78889,0.00000,0.00000,0.00000,33,-8,57,8,71,-7,57,0,ok,2,0,0.002,6,-0.99,0.26,10.83,39,0.089,8.01
6.3426,0.05411,0.03316,0.78889,0.00000,0.00000,0.00000,30,-6,58,8,69,-9,58,0,ok,2,0,0.002,6,-0.99,0.26,10.83,39,0.102,8.01
6.3628,0.05411,0.03316,0.78889,0.00000,0.00000,0.00000,27,-4,58,9,68,-11,59,1,ok,2,0,0.002,6,-0.99,0.26,10.83,39,0.114,8.01
6.3675,0.05411,0.03316,0.78889,0.00000,0.00000,0.00000,23,-2,60,11,66,-12,60,0,ok,2,0,0.002,6,-0.99,0.26,10.83,39,0.127,8.01
6.3801,0.05411,0.03316,0.78889,0.00000,0.00000,0.00000,21,-1,61,11,64,-13,61,0,ok,2,0,0.002,6,-0.99,0.26,10.83,39,0.139,8.01
6.4029,0.05411,0.03316,0.78889,0.00000,0.00000,0.00000,20,1,62,11,62,-13,63,-2,ok,2,0,0.002,6,-0.99,0.26,10.83,39,0.152,8.01
6.4060,0.05411,0.03316,0.78889,0.00000,0.00000,0.00000,18,3,62,12,59,-14,64,-1,ok,2,0,0.002,6,-0.99,0.26,10.83,39,0.165,8.01
6.4185,0.05411,0.03316,0.78889,0.00000,0.00000,0.00000,15,6,62,13,57,-14,65,-1,ok,2,0,0.002,6,-0.99,0.26,10.83,39,0.178,8.01
6.4389,0.05411,0.03316,0.78889,0.00000,0.00000,0.00000,14,10,62,14,54,-13,65,-1,ok,2,0,0.002,6,-0.99,0.26,10.83,39,0.190,8.01
6.4438,0.04363,-0.03840,0.82205,0.00000,0.00000,0.00000,12,12,63,15,52,-12,66,-1,ok,2,0,0.002,6,-0.43,0.70,9.89,40,0.000,8.01
6.4562,0.04363,-0.03840,0.82205,0.00000,0.00000,0.00000,14,13,63,16,49,-13,67,0,ok,2,0,0.002,6,-0.43,0.70,9.89,40,0.013,8.01
6.4789,0.04363,-0.03840,0.82205,0.00000,0.00000,0.00000,14,13,63,17,46,-11,67,0,ok,2,0,0.002,6,-0.43,0.70,9.89,40,0.025,8.01
6.4821,0.04363,-0.03840,0.82205,0.00000,0.00000,0.00000,15,12,64,17,44,-11,68,1,ok,2,0,0.002,6,-0.43,0.70,9.89,40,0.038,8.01
6.4946,0.04363,-0.03840,0.82205,0.00000,0.00000,0.00000,16,11,65,18,41,-10,69,1,ok,2,0,0.002,6,-0.43,0.70,9.89,40,0.051,8.01
6.5148,0.04363,-0.03840,0.82205,0.00000,0.00000,0.00000,17,11,65,19,38,-9,70,2,ok,2,0,0.002,6,-0.43,0.70,9.89,40,0.064,8.01
6.5196,0.04363,-0.03840,0.82205,0.00000,0.00000,0.00000,19,10,65,20,35,-8,70,2,ok,2,0,0.002,6,-0.43,0.70,9.89,40,0.076,8.01
6.5321,0.04363,-0.03840,0.82205,0.00000,0.00000,0.00000,19,10,65,21,33,-7,71,3,ok,2,0,0.002,6,-0.43,0.70,9.89,40,0.089,8.01
6.5549,0.04363,-0.03840,0.82205,0.00000,0.00000,0.00000,22,8,66,21,31,-5,71,5,ok,2,0,0.002,6,-0.43,0.70,9.89,40,0.101,8.01
6.5581,0.04363,-0.03840,0.82205,0.00000,0.00000,0.00000,23,8,66,23,29,-2,72,5,ok,2,0,0.002,6,-0.43,0.70,9.89,40,0.114,8.01
6.5706,0.04363,-0.03840,0.82205,0.00000,0.00000,0.00000,24,7,65,23,28,0,72,6,ok,2,0,0.002,6,-0.43,0.70,9.89,40,0.127,8.01
6.5908,0.04363,-0.03840,0.82205,0.00000,0.00000,0.00000,25,6,65,24,26,4,72,8,ok,2,0,0.002,6,-0.43,0.70,9.89,40,0.140,8.01
6.5956,0.04363,-0.03840,0.82205,0.00000,0.00000,0.00000,27,6,65,25,26,6,72,8,ok,0,0,0.002,6,-0.43,0.70,9.89,40,0.152,8.01
6.6082,0.04363,-0.03840,0.82205,0.00000,0.00000,0.00000,28,5,64,28,28,6,73,9,ok,0,0,0.002,6,-0.43,0.70,9.89,40,0.165,8.01
6.6309,0.04363,-0.03840,0.82205,0.00000,0.00000,0.00000,29,4,64,29,28,5,73,11,ok,0,0,0.002,7,-0.43,0.70,9.89,40,0.177,8.01
6.6341,0.04363,-0.03840,0.82205,0.00000,0.00000,0.00000,30,4,65,28,29,3,73,12,ok,0,0,0.002,7,-0.43,0.70,9.89,40,0.190,8.01
6.6468,0.01745,0.00873,0.80983,0.00000,0.00000,0.00000,31,3,67,25,30,2,73,14,ok,0,0,0.002,7,0.92,0.48,10.02,41,0.000,8.01
6.6669,0.01745,0.00873,0.80983,0.00000,0.00000,0.00000,33,3,70,21,31,2,73,16,ok,2,0,0.002,7,0.92,0.48,10.02,41,0.013,8.01
6.6716,0.01745,0.00873,0.80983,0.00000,0.00000,0.00000,34,2,71,17,33,2,73,18,ok,2,0,0.002,7,0.92,0.48,10.02,41,0.025,8.01
6.6841,0.01745,0.00873,0.80983,0.00000,0.00000,0.00000,35,2,71,15,34,1,73,20,ok,2,0,0.002,7,0.92,0.48,10.02,41,0.038,8.01
6.7069,0.01745,0.00873,0.80983,0.00000,0.00000,0.00000,37,1,71,14,36,1,73,20,ok,2,0,0.002,7,0.92,0.48,10.02,41,0.050,8.01
6.7100,0.01745,0.00873,0.80983,0.00000,0.00000,0.00000,38,1,71,11,37,1,72,22,ok,2,0,0.002,7,0.92,0.48,10.02,41,0.063,8.01
6.7225,0.01745,0.00873,0.80983,0.00000,0.00000,0.00000,40,1,71,8,38,2,72,24,ok,0,0,0.002,7,0.92,0.48,10.02,41,0.076,8.01
6.7428,0.01745,0.00873,0.80983,0.00000,0.00000,0.00000,41,1,70,5,40,1,73,25,ok,0,0,0.002,7,0.92,0.48,10.02,41,0.088,8.01
6.7476,0.01745,0.00873,0.80983,0.00000,0.00000,0.00000,43,0,69,3,41,2,73,26,ok,0,0,0.002,7,0.92,0.48,10.02,41,0.101,8.01
6.7602,0.01745,0.00873,0.80983,0.00000,0.00000,0.00000,44,0,68,1,42,1,72,28,ok,0,0,0.002,7,0.92,0.48,10.02,41,0.114,8.01
6.7829,0.01745,0.00873,0.80983,0.00000,0.00000,0.00000,46,0,67,-1,43,1,72,29,ok,0,0,0.002,7,0.92,0.48,10.02,41,0.126,8.01
6.7861,0.01745,0.00873,0.80983,0.00000,0.00000,0.00000,46,0,65,-2,44,0,73,29,ok,0,0,0.002,7,0.92,0.48,10.02,41,0.139,8.01
6.7986,0.01745,0.00873,0.80983,0.00000,0.00000,0.00000,47,1,64,-4,46,0,74,29,ok,0,0,0.002,7,0.92,0.48,10.02,41,0.152,8.01
6.8188,0.01745,0.00873,0.80983,0.00000,0.00000,0.00000,49,1,63,-6,47,0,76,26,ok,0,0,0.002,7,0.92,0.48,10.02,41,0.164,8.01
6.8236,0.01745,0.00873,0.80983,0.00000,0.00000,0.00000,50,2,61,-7,48,0,78,21,ok,0,0,0.002,7,0.92,0.48,10.02,41,0.177,8.01
6.8363,0.01745,0.00873,0.80983,0.00000,0.00000,0.00000,51,1,59,-8,49,0,79,17,ok,0,0,0.002,7,0.92,0.48,10.02,41,0.189,8.01
6.8589,-0.06458,-0.00000,0.86917,0.00000,0.00000,0.00000,51,1,56,-8,50,0,81,14,ok,2,0,0.002,7,0.10,-1.03,10.18,42,0.000,8.01
6.8622,-0.06458,-0.00000,0.86917,0.00000,0.00000,0.00000,52,3,54,-9,51,0,81,14,ok,2,0,0.002,7,0.10,-1.03,10.18,42,0.013,8.01
6.8745,-0.06458,-0.00000,0.86917,0.00000,0.00000,0.00000,53,4,51,-9,52,0,81,11,ok,2,0,0.002,7,0.10,-1.03,10.18,42,0.026,8.01
6.8948,-0.06458,-0.00000,0.86917,0.00000,0.00000,0.00000,54,4,48,-9,54,0,81,7,ok,2,0,0.002,7,0.10,-1.03,10.18,42,0.039,8.01
6.8996,-0.06458,-0.00000,0.86917,0.00000,0.00000,0.00000,54,5,46,-8,55,1,80,4,ok,2,0,0.002,7,0.10,-1.03,10.18,42,0.051,8.01
6.9122,-0.06458,-0.00000,0.86917,0.00000,0.00000,0.00000,54,6,43,-9,55,1,80,2,ok,2,0,0.002,7,0.10,-1.03,10.18,42,0.064,8.01
6.9349,-0.06458,-0.00000,0.86917,0.00000,0.00000,0.00000,56,6,41,-9,56,1,79,-1,ok,2,0,0.002,7,0.10,-1.03,10.18,42,0.076,8.01
6.9380,-0.06458,-0.00000,0.86917,0.00000,0.00000,0.00000,57,6,39,-8,57,0,78,-3,ok,2,0,0.002,7,0.10,-1.03,10.18,42,0.089,8.01
6.9505,-0.06458,-0.00000,0.86917,0.00000,0.00000,0.00000,58,7,35,-7,58,1,77,-5,ok,2,0,0.002,7,0.10,-1.03,10.18,42,0.102,8.01
6.9708,-0.06458,-0.00000,0.86917,0.00000,0.00000,0.00000,58,8,33,-6,59,2,75,-7,ok,2,0,0.002,7,0.10,-1.03,10.18,42,0.115,8.01
6.9755,-0.06458,-0.00000,0.86917,0.00000,0.00000,0.00000,59,8,29,-5,60,2,72,-7,ok,2,0,0.002,7,0.10,-1.03,10.18,42,0.127,8.01
6.9882,-0.06458,-0.00000,0.86917,0.00000,0.00000,0.00000,60,9,26,-3,61,2,71,-9,ok,2,0,0.002,7,0.10,-1.03,10.18,42,0.140,8.01
7.0109,-0.06458,-0.00000,0.86917,0.00000,0.00000,0.00000,62,10,21,-1,62,1,70,-11,ok,2,0,0.002,7,0.10,-1.03,10.18,42,0.152,8.01
7.0140,-0.06458,-0.00000,0.86917,0.00000,0.00000,0.00000,62,10,20,0,64,-1,67,-12,ok,2,0,0.002,7,0.10,-1.03,10.18,42,0.165,8.01
7.0268,-0.06458,-0.00000,0.86917,0.00000,0.00000,0.00000,63,11,18,1,64,-1,65,-13,ok,2,0,0.002,7,0.10,-1.03,10.18,42,0.178,8.01
7.0468,-0.04887,-0.02793,0.85870,0.00000,0.00000,0.00000,63,12,16,4,65,0,63,-13,ok,2,0,0.002,7,0.37,-0.58,10.58,43,0.000,8.01
7.0516,-0.04887,-0.02793,0.85870,0.00000,0.00000,0.00000,64,12,14,7,65,0,61,-14,ok,2,0,0.002,7,0.37,-0.58,10.58,43,0.013,8.01
7.0642,-0.04887,-0.02793,0.85870,0.00000,0.00000,0.00000,64,14,12,10,66,0,59,-14,ok,2,0,0.002,7,0.37,-0.58,10.58,43,0.025,8.01
7.0869,-0.04887,-0.02793,0.85870,0.00000,0.00000,0.00000,65,14,11,12,67,0,56,-13,ok,2,0,0.002,7,0.37,-0.58,10.58,43,0.038,8.01
7.0900,-0.04887,-0.02793,0.85870,0.00000,0.00000,0.00000,65,15,12,13,67,1,53,-12,ok,2,0,0.002,7,0.37,-0.58,10.58,43,0.051,8.01
7.1025,-0.04887,-0.02793,0.85870,0.00000,0.00000,0.00000,65,16,12,13,68,1,51,-12,ok,2,0,0.002,7,0.37,-0.58,10.58,43,0.064,8.01
7.1228,-0.04887,-0.02793,0.85870,0.00000,0.00000,0.00000,66,17,14,12,68,1,47,-11,ok,2,0,0.002,7,0.37,-0.58,10.58,43,0.076,8.01
7.1276,-0.04887,-0.02793,0.85870,0.00000,0.00000,0.00000,66,18,15,11,69,2,45,-10,ok,2,0,0.002,7,0.37,-0.58,10.58,43,0.088,8.01
7.1401,-0.04887,-0.02793,0.85870,0.00000,0.00000,0.00000,67,18,15,10,69,3,42,-9,ok,2,0,0.002,7,0.37,-0.58,10.58,43,0.101,8.01
7.1629,-0.04887,-0.02793,0.85870,0.00000,0.00000,0.00000,67,19,17,9,69,3,39,-8,ok,2,0,0.002,7,0.37,-0.58,10.58,43,0.113,8.01
7.1660,-0.04887,-0.02793,0.85870,0.00000,0.00000,0.00000,67,20,18,9,70,4,36,-7,ok,2,0,0.002,7,0.37,-0.58,10.58,43,0.127,8.01
7.1786,-0.04887,-0.02793,0.85870,0.00000,0.00000,0.00000,68,21,20,8,71,5,34,-5,ok,2,0,0.002,7,0.37,-0.58,10.58,43,0.140,8.01
7.1989,-0.04887,-0.02793,0.85870,0.00000,0.00000,0.00000,68,22,21,7,71,6,32,-4,ok,2,0,0.002,7,0.37,-0.58,10.58,43,0.152,8.01
7.2036,-0.04887,-0.02793,0.85870,0.00000,0.00000,0.00000,68,23,22,7,70,7,30,-1,ok,2,0,0.002,7,0.37,-0.58,10.58,43,0.165,8.01
7.2161,-0.04887,-0.02793,0.85870,0.00000,0.00000,0.00000,68,24,23,6,71,8,29,2,ok,2,0,0.002,7,0.37,-0.58,10.58,43,0.177,8.01
7.2389,-0.04887,-0.02793,0.85870,0.00000,0.00000,0.00000,67,25,25,5,71,9,27,5,ok,2,0,0.002,7,0.37,-0.58,10.58,43,0.190,8.01
7.2423,-0.01745,0.03142,0.92153,0.00000,0.00000,0.00000,66,28,26,5,71,10,27,7,ok,2,0,0.002,7,0.91,-0.73,9.65,44,0.000,8.01
7.2546,-0.01745,0.03142,0.92153,0.00000,0.00000,0.00000,65,29,27,4,71,12,29,6,ok,2,0,0.002,7,0.91,-0.73,9.65,44,0.013,8.01
7.2748,-0.01745,0.03142,0.92153,0.00000,0.00000,0.00000,67,28,28,4,71,13,29,6,ok,2,0,0.002,7,0.91,-0.73,9.65,44,0.025,8.01
7.2796,-0.01745,0.03142,0.92153,0.00000,0.00000,0.00000,69,25,30,3,71,15,31,4,ok,2,0,0.002,7,0.91,-0.73,9.65,44,0.038,8.01
7.2921,-0.01745,0.03142,0.92153,0.00000,0.00000,0.00000,71,21,31,2,71,16,32,3,ok,2,0,0.002,7,0.91,-0.73,9.65,44,0.050,8.01
7.3149,-0.01745,0.03142,0.92153,0.00000,0.00000,0.00000,72,17,32,2,71,18,33,3,ok,2,0,0.002,7,0.91,-0.73,9.65,44,0.063,8.01
7.3181,-0.01745,0.03142,0.92153,0.00000,0.00000,0.00000,73,15,33,2,72,19,34,2,ok,2,0,0.002,7,0.91,-0.73,9.65,44,0.076,8.01
7.3305,-0.01745,0.03142,0.92153,0.00000,0.00000,0.00000,72,14,35,2,71,21,36,1,ok,2,0,0.002,7,0.91,-0.73,9.65,44,0.089,8.01
7.3509,-0.01745,0.03142,0.92153,0.00000,0.00000,0.00000,72,11,36,2,71,22,38,1,ok,2,0,0.002,7,0.91,-0.73,9.65,44,0.101,8.01
7.3557,-0.01745,0.03142,0.92153,0.00000,0.00000,0.00000,71,7,37,2,71,24,39,2,ok,2,0,0.002,7,0.91,-0.73,9.65,44,0.114,8.01
7.3682,-0.01745,0.03142,0.92153,0.00000,0.00000,0.00000,71,5,39,2,71,26,41,2,ok,2,0,0.002,7,0.91,-0.73,9.65,44,0.126,8.01
7.3909,-0.01745,0.03142,0.92153,0.00000,0.00000,0.00000,70,1,40,2,70,28,42,2,ok,2,0,0.002,7,0.91,-0.73,9.65,44,0.139,8.01
7.3940,-0.01745,0.03142,0.92153,0.00000,0.00000,0.00000,69,-1,41,1,70,29,43,2,ok,2,0,0.002,7,0.91,-0.73,9.65,44,0.152,8.01
7.4067,-0.01745,0.03142,0.92153,0.00000,0.00000,0.00000,67,-3,43,2,71,29,44,1,ok,2,0,0.002,7,0.91,-0.73,9.65,44,0.165,8.01
7.4268,-0.01745,0.03142,0.92153,0.00000,0.00000,0.00000,65,-4,43,2,72,29,45,1,ok,2,0,0.002,7,0.91,-0.73,9.65,44,0.177,8.01
7.4316,-0.01745,0.03142,0.92153,0.00000,0.00000,0.00000,64,-6,45,2,74,26,46,0,ok,2,0,0.002,7,0.91,-0.73,9.65,44,0.190,8.01
7.4443,-0.01745,0.03142,0.92153,0.00000,0.00000,0.00000,63,-8,46,2,76,22,47,0,ok,2,0,0.002,7,0.91,-0.73,9.65,44,0.202,8.01
7.4669,0.09250,0.04363,0.96168,0.00000,0.00000,0.00000,61,-9,48,3,77,17,49,1,ok,2,0,0.002,7,1.03,1.17,10.06,45,0.000,8.01
7.4700,0.09250,0.04363,0.96168,0.00000,0.00000,0.00000,59,-10,49,3,78,15,49,0,ok,2,0,0.002,7,1.03,1.17,10.06,45,0.013,8.01
7.4827,0.09250,0.04363,0.96168,0.00000,0.00000,0.00000,56,-11,50,3,78,14,50,0,ok,2,0,0.002,7,1.03,1.17,10.06,45,0.026,8.01
7.5028,0.09250,0.04363,0.96168,0.00000,0.00000,0.00000,54,-12,50,5,78,12,51,0,ok,2,0,0.002,7,1.03,1.17,10.06,45,0.038,8.01
7.5076,0.09250,0.04363,0.96168,0.00000,0.00000,0.00000,51,-11,51,6,78,8,52,0,ok,2,0,0.002,7,1.03,1.17,10.06,45,0.051,8.01
7.5202,0.09250,0.04363,0.96168,0.00000,0.00000,0.00000,49,-11,52,5,78,5,53,0,ok,2,0,0.002,7,1.03,1.17,10.06,45,0.064,8.01
7.5429,0.09250,0.04363,0.96168,0.00000,0.00000,0.00000,47,-11,53,6,77,3,54,0,ok,2,0,0.002,7,1.03,1.17,10.06,45,0.076,8.01
7.5460,0.09250,0.04363,0.96168,0.00000,0.00000,0.00000,44,-11,53,7,76,0,55,1,ok,2,0,0.002,7,1.03,1.17,10.06,45,0.089,8.01
7.5587,0.09250,0.04363,0.96168,0.00000,0.00000,0.00000,42,-11,55,7,76,-3,55,0,ok,2,0,0.002,7,1.03,1.17,10.06,45,0.102,8.01
7.5788,0.09250,0.04363,0.96168,0.00000,0.00000,0.00000,40,-10,55,7,75,-4,57,1,ok,2,0,0.002,7,1.03,1.17,10.06,45,0.115,8.01
7.5835,0.09250,0.04363,0.96168,0.00000,0.00000,0.00000,37,-9,57,7,73,-7,57,-1,ok,2,0,0.002,7,1.03,1.17,10.06,45,0.127,8.01
7.5961,0.09250,0.04363,0.96168,0.00000,0.00000,0.00000,34,-8,57,8,70,-7,58,0,ok,2,0,0.002,7,1.03,1.17,10.06,45,0.140,8.01
7.6189,0.09250,0.04363,0.96168,0.00000,0.00000,0.00000,31,-6,58,8,69,-9,58,0,ok,2,0,0.002,7,1.03,1.17,10.06,45,0.152,8.01
7.6221,0.09250,0.04363,0.96168,0.00000,0.00000,0.00000,28,-4,58,9,68,-10,60,1,ok,2,0,0.002,7,1.03,1.17,10.06,45,0.165,8.01
7.6345,0.09250,0.04363,0.96168,0.00000,0.00000,0.00000,24,-2,60,11,66,-12,60,0,ok,2,0,0.002,8,1.03,1.17,10.06,45,0.178,8.01
7.6549,0.10297,-0.02618,0.99833,0.00000,0.00000,0.00000,22,-1,61,11,64,-12,61,0,ok,2,0,0.002,8,-0.59,0.67,9.90,46,0.000,8.01
7.6596,0.10297,-0.02618,0.99833,0.00000,0.00000,0.00000,20,1,61,11,62,-13,64,-2,ok,2,0,0.002,8,-0.59,0.67,9.90,46,0.013,8.01
7.6721,0.10297,-0.02618,0.99833,0.00000,0.00000,0.00000,18,3,62,12,59,-14,64,-1,ok,2,0,0.002,8,-0.59,0.67,9.90,46,0.025,8.01
7.6949,0.10297,-0.02618,0.99833,0.00000,0.00000,0.00000,16,6,62,13,57,-14,65,-1,ok,2,0,0.002,8,-0.59,0.67,9.90,46,0.038,8.01
7.6980,0.10297,-0.02618,0.99833,0.00000,0.00000,0.00000,14,10,62,14,54,-13,66,-1,ok,2,0,0.002,8,-0.59,0.67,9.90,46,0.051,8.01
7.7106,0.10297,-0.02618,0.99833,0.00000,0.00000,0.00000,12,12,63,15,51,-12,66,-1,ok,2,0,0.002,8,-0.59,0.67,9.90,46,0.064,8.01
7.7308,0.10297,-0.02618,0.99833,0.00000,0.00000,0.00000,14,13,63,16,49,-12,67,0,ok,2,0,0.002,8,-0.59,0.67,9.90,46,0.076,8.01
7.7356,0.10297,-0.02618,0.99833,0.00000,0.00000,0.00000,14,13,63,17,46,-11,68,0,ok,2,0,0.002,8,-0.59,0.67,9.90,46,0.089,8.01
7.7482,0.10297,-0.02618,0.99833,0.00000,0.00000,0.00000,15,12,64,17,44,-11,68,1,ok,2,0,0.002,8,-0.59,0.67,9.90,46,0.101,8.01
7.7709,0.10297,-0.02618,0.99833,0.00000,0.00000,0.00000,17,12,64,18,41,-10,69,1,ok,2,0,0.002,8,-0.59,0.67,9.90,46,0.114,8.01
7.7740,0.10297,-0.02618,0.99833,0.00000,0.00000,0.00000,17,11,65,19,38,-9,70,2,ok,2,0,0.002,8,-0.59,0.67,9.90,46,0.127,8.01
7.7865,0.10297,-0.02618,0.99833,0.00000,0.00000,0.00000,19,10,65,20,35,-8,70,2,ok,2,0,0.002,8,-0.59,0.67,9.90,46,0.140,8.01
7.8068,0.10297,-0.02618,0.99833,0.00000,0.00000,0.00000,20,10,65,21,33,-6,71,3,ok,2,0,0.002,8,-0.59,0.67,9.90,46,0.152,8.01
7.8117,0.10297,-0.02618,0.99833,0.00000,0.00000,0.00000,22,8,66,21,31,-5,71,5,ok,2,0,0.002,8,-0.59,0.67,9.90,46,0.165,8.01
7.8241,0.10297,-0.02618,0.99833,0.00000,0.00000,0.00000,23,8,66,23,28,-2,72,5,ok,2,0,0.002,8,-0.59,0.67,9.90,46,0.177,8.01
7.8470,0.10297,-0.02618,0.99833,0.00000,0.00000,0.00000,25,7,65,23,27,1,72,6,ok,2,0,0.002,8,-0.59,0.67,9.90,46,0.190,8.01
7.8504,0.10297,-0.02618,0.99833,0.00000,0.00000,0.00000,26,6,65,24,26,4,72,8,ok,2,0,0.002,8,-0.59,0.67,9.90,46,0.203,8.01
7.8630,0.06807,0.07505,1.01055,0.00000,0.00000,0.00000,27,6,65,25,26,6,73,8,ok,2,0,0.002,8,1.39,1.07,9.64,47,0.000,8.01
7.8828,0.06807,0.07505,1.01055,0.00000,0.00000,0.00000,28,6,64,28,27,6,73,10,ok,2,0,0.002,8,1.39,1.07,9.64,47,0.013,8.01
7.8877,0.06807,0.07505,1.01055,0.00000,0.00000,0.00000,29,5,63,29,28,6,73,11,ok,2,0,0.002,8,1.39,1.07,9.64,47,0.025,8.01
7.9004,0.06807,0.07505,1.01055,0.00000,0.00000,0.00000,31,4,64,28,29,4,73,13,ok,2,0,0.002,8,1.39,1.07,9.64,47,0.038,8.01
7.9229,0.06807,0.07505,1.01055,0.00000,0.00000,0.00000,32,3,67,25,30,3,73,15,ok,2,0,0.002,8,1.39,1.07,9.64,47,0.050,8.01
7.9260,0.06807,0.07505,1.01055,0.00000,0.00000,0.00000,33,3,69,21,31,3,74,16,ok,2,0,0.002,8,1.39,1.07,9.64,47,0.063,8.01
7.9385,0.06807,0.07505,1.01055,0.00000,0.00000,0.00000,35,2,70,17,33,3,73,18,ok,2,0,0.002,8,1.39,1.07,9.64,47,0.076,8.01
7.9588,0.06807,0.07505,1.01055,0.00000,0.00000,0.00000,36,2,71,15,34,2,73,20,ok,2,0,0.002,8,1.39,1.07,9.64,47,0.088,8.01
7.9636,0.06807,0.07505,1.01055,0.00000,0.00000,0.00000,38,1,71,14,36,2,74,20,ok,2,0,0.002,8,1.39,1.07,9.64,47,0.101,8.01
7.9761,0.06807,0.07505,1.01055,0.00000,0.00000,0.00000,39,1,71,11,37,2,73,23,ok,2,0,0.002,8,1.39,1.07,9.64,47,0.113,8.01
7.9989,0.06807,0.07505,1.01055,0.00000,0.00000,0.00000,40,1,70,8,38,3,73,24,ok,2,0,0.002,8,1.39,1.07,9.64,47,0.126,8.01
8.0021,0.06807,0.07505,1.01055,0.00000,0.00000,0.00000,42,1,70,5,40,2,73,25,ok,2,0,0.002,8,1.39,1.07,9.64,47,0.139,8.01
8.0145,0.06807,0.07505,1.01055,0.00000,0.00000,0.00000,43,0,69,3,41,2,73,27,ok,2,0,0.002,8,1.39,1.07,9.64,47,0.152,8.01
8.0348,0.06807,0.07505,1.01055,0.00000,0.00000,0.00000,44,0,68,1,42,2,73,28,ok,2,0,0.002,8,1.39,1.07,9.64,47,0.164,8.01
8.0396,0.06807,0.07505,1.01055,0.00000,0.00000,0.00000,46,0,67,-1,43,2,72,29,ok,2,0,0.002,8,1.39,1.07,9.64,47,0.177,8.01
8.0524,0.06807,0.07505,1.01055,0.00000,0.00000,0.00000,46,0,65,-2,44,1,74,29,ok,2,0,0.002,8,1.39,1.07,9.64,47,0.189,8.01
8.0749,-0.04538,-0.02967,1.04545,0.00000,0.00000,0.00000,48,1,64,-4,46,1,75,29,ok,2,0,0.002,8,-0.73,-1.57,9.31,48,0.000,8.01
8.0780,-0.04538,-0.02967,1.04545,0.00000,0.00000,0.00000,49,0,63,-6,47,0,77,27,ok,2,0,0.002,8,-0.73,-1.57,9.31,48,0.013,8.01
8.0906,-0.04538,-0.02967,1.04545,0.00000,0.00000,0.00000,51,1,61,-7,48,0,79,21,ok,2,0,0.002,8,-0.73,-1.57,9.31,48,0.026,8.01
8.1108,-0.04538,-0.02967,1.04545,0.00000,0.00000,0.00000,52,1,58,-8,48,0,80,18,ok,2,0,0.002,8,-0.73,-1.57,9.31,48,0.039,8.01
8.1156,-0.04538,-0.02967,1.04545,0.00000,0.00000,0.00000,52,1,56,-8,50,0,81,14,ok,2,0,0.002,8,-0.73,-1.57,9.31,48,0.051,8.01
8.1282,-0.04538,-0.02967,1.04545,0.00000,0.00000,0.00000,52,3,54,-9,51,0,81,14,ok,2,0,0.002,8,-0.73,-1.57,9.31,48,0.064,8.01
8.1509,-0.04538,-0.02967,1.04545,0.00000,0.00000,0.00000,53,4,51,-9,52,0,81,11,ok,2,0,0.002,8,-0.73,-1.57,9.31,48,0.076,8.01
8.1540,-0.04538,-0.02967,1.04545,0.00000,0.00000,0.00000,54,4,49,-9,53,0,81,7,ok,2,0,0.002,8,-0.73,-1.57,9.31,48,0.089,8.01
8.1668,-0.04538,-0.02967,1.04545,0.00000,0.00000,0.00000,54,5,46,-8,54,1,81,4,ok,2,0,0.002,8,-0.73,-1.57,9.31,48,0.102,8.01
8.1868,-0.04538,-0.02967,1.04545,0.00000,0.00000,0.00000,55,6,43,-9,55,1,80,2,ok,2,0,0.002,8,-0.73,-1.57,9.31,48,0.114,8.01
8.1915,-0.04538,-0.02967,1.04545,0.00000,0.00000,0.00000,57,6,41,-9,56,1,79,-2,ok,2,0,0.002,8,-0.73,-1.57,9.31,48,0.127,8.01
8.2044,-0.04538,-0.02967,1.04545,0.00000,0.00000,0.00000,57,6,39,-8,57,0,78,-3,ok,2,0,0.002,8,-0.73,-1.57,9.31,48,0.139,8.01
8.2269,-0.04538,-0.02967,1.04545,0.00000,0.00000,0.00000,58,7,35,-7,58,1,77,-5,ok,2,0,0.002,8,-0.73,-1.57,9.31,48,0.152,8.01
8.2300,-0.04538,-0.02967,1.04545,0.00000,0.00000,0.00000,59,8,33,-6,58,1,75,-7,ok,2,0,0.002,8,-0.73,-1.57,9.31,48,0.165,8.01
8.2425,-0.04538,-0.02967,1.04545,0.00000,0.00000,0.00000,60,8,29,-5,60,2,72,-7,ok,2,0,0.002,8,-0.73,-1.57,9.31,48,0.178,8.01
8.2629,-0.04538,-0.02967,1.04545,0.00000,0.00000,0.00000,60,9,26,-3,60,2,71,-9,ok,2,0,0.002,8,-0.73,-1.57,9.31,48,0.191,8.01
8.2679,-0.08552,-0.01745,1.10130,0.00000,0.00000,0.00000,62,10,21,-1,61,1,70,-11,ok,2,0,0.002,8,0.64,-1.12,9.87,49,0.000,8.01
8.2801,-0.08552,-0.01745,1.10130,0.00000,0.00000,0.00000,62,10,20,0,64,-1,68,-12,ok,2,0,0.002,8,0.64,-1.12,9.87,49,0.013,8.01
8.3029,-0.08552,-0.01745,1.10130,0.00000,0.00000,0.00000,63,11,18,1,64,-1,65,-13,ok,2,0,0.002,8,0.64,-1.12,9.87,49,0.025,8.01
8.3060,-0.08552,-0.01745,1.10130,0.00000,0.00000,0.00000,64,12,16,4,65,0,63,-13,ok,2,0,0.002,8,0.64,-1.12,9.87,49,0.038,8.01
8.3185,-0.08552,-0.01745,1.10130,0.00000,0.00000,0.00000,64,12,14,7,65,0,61,-14,ok,2,0,0.002,8,0.64,-1.12,9.87,49,0.051,8.01
8.3388,-0.08552,-0.01745,1.10130,0.00000,0.00000,0.00000,64,14,12,10,66,1,59,-14,ok,2,0,0.002,8,0.64,-1.12,9.87,49,0.064,8.01
8.3436,-0.08552,-0.01745,1.10130,0.00000,0.00000,0.00000,65,14,11,13,67,1,56,-12,ok,2,0,0.002,8,0.64,-1.12,9.87,49,0.076,8.01
8.3562,-0.08552,-0.01745,1.10130,0.00000,0.00000,0.00000,65,15,12,13,67,1,53,-12,ok,2,0,0.002,8,0.64,-1.12,9.87,49,0.089,8.01
8.3789,-0.08552,-0.01745,1.10130,0.00000,0.00000,0.00000,65,16,12,13,68,1,51,-12,ok,2,0,0.002,8,0.64,-1.12,9.87,49,0.101,8.01
8.3822,-0.08552,-0.01745,1.10130,0.00000,0.00000,0.00000,66,17,14,12,68,1,48,-11,ok,2,0,0.002,8,0.64,-1.12,9.87,49,0.114,8.01
8.3946,-0.08552,-0.01745,1.10130,0.00000,0.00000,0.00000,66,18,15,11,69,2,45,-10,ok,2,0,0.002,8,0.64,-1.12,9.87,49,0.127,8.01
8.4148,-0.08552,-0.01745,1.10130,0.00000,0.00000,0.00000,67,18,15,10,69,3,42,-9,ok,2,0,0.002,8,0.64,-1.12,9.87,49,0.140,8.01
8.4196,-0.08552,-0.01745,1.10130,0.00000,0.00000,0.00000,67,19,17,9,69,4,40,-8,ok,2,0,0.002,8,0.64,-1.12,9.87,49,0.152,8.01
8.4321,-0.08552,-0.01745,1.10130,0.00000,0.00000,0.00000,67,20,17,9,70,5,36,-7,ok,2,0,0.002,8,0.64,-1.12,9.87,49,0.165,8.01
8.4549,-0.08552,-0.01745,1.10130,0.00000,0.00000,0.00000,68,21,20,8,71,5,34,-5,ok,2,0,0.002,8,0.64,-1.12,9.87,49,0.177,8.01
8.4582,-0.08552,-0.01745,1.10130,0.00000,0.00000,0.00000,68,22,21,7,71,6,32,-3,ok,2,0,0.002,8,0.64,-1.12,9.87,49,0.190,8.01
8.4708,0.04538,0.04189,1.11527,0.00000,0.00000,0.00000,68,23,22,7,70,8,30,0,ok,2,0,0.002,8,1.05,0.69,10.86,50,0.000,8.01
8.4908,0.04538,0.04189,1.11527,0.00000,0.00000,0.00000,68,24,23,6,71,9,29,2,ok,2,0,0.002,8,1.05,0.69,10.86,50,0.013,8.01
8.4958,0.04538,0.04189,1.11527,0.00000,0.00000,0.00000,67,25,25,5,71,10,28,5,ok,2,0,0.002,8,1.05,0.69,10.86,50,0.025,8.01
8.5081,0.04538,0.04189,1.11527,0.00000,0.00000,0.00000,66,28,26,5,71,11,27,7,ok,2,0,0.002,8,1.05,0.69,10.86,50,0.038,8.01
8.5309,0.04538,0.04189,1.11527,0.00000,0.00000,0.00000,65,29,27,4,71,12,29,6,ok,2,0,0.002,8,1.05,0.69,10.86,50,0.050,8.01
8.5341,0.04538,0.04189,1.11527,0.00000,0.00000,0.00000,67,28,28,4,71,14,29,6,ok,2,0,0.002,8,1.05,0.69,10.86,50,0.063,8.01
8.5465,0.04538,0.04189,1.11527,0.00000,0.00000,0.00000,69,25,29,3,71,15,31,4,ok,2,0,0.002,8,1.05,0.69,10.86,50,0.076,8.01
8.5668,0.04538,0.04189,1.11527,0.00000,0.00000,0.00000,72,21,30,2,71,16,32,3,ok,2,0,0.002,8,1.05,0.69,10.86,50,0.088,8.01
8.5715,0.04538,0.04189,1.11527,0.00000,0.00000,0.00000,73,17,32,2,71,18,33,3,ok,2,0,0.002,8,1.05,0.69,10.86,50,0.101,8.01
8.5843,0.04538,0.04189,1.11527,0.00000,0.00000,0.00000,73,15,33,2,72,19,35,2,ok,2,0,0.002,8,1.05,0.69,10.86,50,0.113,8.01
8.6069,0.04538,0.04189,1.11527,0.00000,0.00000,0.00000,73,14,35,2,71,21,36,1,ok,2,0,0.003,8,1.05,0.69,10.86,50,0.126,8.01
8.6100,0.04538,0.04189,1.11527,0.00000,0.00000,0.00000,72,11,36,2,71,23,39,1,ok,2,0,0.003,8,1.05,0.69,10.86,50,0.139,8.01
8.6225,0.04538,0.04189,1.11527,0.00000,0.00000,0.00000,72,7,38,2,71,24,39,2,ok,2,0,0.003,8,1.05,0.69,10.86,50,0.152,8.01
8.6428,0.04538,0.04189,1.11527,0.00000,0.00000,0.00000,71,5,39,2,71,26,41,2,ok,2,0,0.003,8,1.05,0.69,10.86,50,0.164,8.01
8.6476,0.04538,0.04189,1.11527,0.00000,0.00000,0.00000,70,1,40,2,70,28,42,2,ok,2,0,0.003,9,1.05,0.69,10.86,50,0.177,8.01
8.6604,0.04538,0.04189,1.11527,0.00000,0.00000,0.00000,69,-1,41,2,70,29,43,2,ok,2,0,0.003,9,1.05,0.69,10.86,50,0.189,8.01
8.6829,0.01571,0.05585,1.22522,0.00000,0.00000,0.00000,68,-3,43,2,70,29,44,1,ok,2,0,0.003,9,-1.60,0.72,11.29,51,0.000,8.01
8.6860,0.01571,0.05585,1.22522,0.00000,0.00000,0.00000,66,-4,43,2,72,29,45,1,ok,2,0,0.003,9,-1.60,0.72,11.29,51,0.013,8.01
8.6986,0.01571,0.05585,1.22522,0.00000,0.00000,0.00000,65,-6,45,3,73,27,47,0,ok,2,0,0.003,9,-1.60,0.72,11.29,51,0.026,8.01
8.7189,0.01571,0.05585,1.22522,0.00000,0.00000,0.00000,64,-8,46,3,75,22,48,0,ok,2,0,0.003,9,-1.60,0.72,11.29,51,0.038,8.01
8.7236,0.01571,0.05585,1.22522,0.00000,0.00000,0.00000,62,-9,48,4,77,17,49,1,ok,2,0,0.003,9,-1.60,0.72,11.29,51,0.051,8.01
8.7362,0.01571,0.05585,1.22522,0.00000,0.00000,0.00000,59,-10,49,3,78,15,50,1,ok,2,0,0.003,9,-1.60,0.72,11.29,51,0.063,8.01
8.7589,0.01571,0.05585,1.22522,0.00000,0.00000,0.00000,57,-11,50,3,78,14,50,1,ok,2,0,0.003,9,-1.60,0.72,11.29,51,0.076,8.01
8.7620,0.01571,0.05585,1.22522,0.00000,0.00000,0.00000,55,-12,50,5,78,12,52,1,ok,2,0,0.003,9,-1.60,0.72,11.29,51,0.089,8.01
8.7745,0.01571,0.05585,1.22522,0.00000,0.00000,0.00000,52,-11,51,6,78,8,52,1,ok,2,0,0.003,9,-1.60,0.72,11.29,51,0.102,8.01
8.7948,0.01571,0.05585,1.22522,0.00000,0.00000,0.00000,49,-11,52,6,78,5,54,1,ok,2,0,0.003,9,-1.60,0.72,11.29,51,0.115,8.01
8.7996,0.01571,0.05585,1.22522,0.00000,0.00000,0.00000,47,-11,53,6,77,3,54,0,ok,2,0,0.003,9,-1.60,0.72,11.29,51,0.127,8.01
8.8121,0.01571,0.05585,1.22522,0.00000,0.00000,0.00000,44,-11,53,7,76,0,55,1,ok,2,0,0.003,9,-1.60,0.72,11.29,51,0.140,8.01
8.8349,0.01571,0.05585,1.22522,0.00000,0.00000,0.00000,42,-11,55,7,76,-3,55,0,ok,2,0,0.003,9,-1.60,0.72,11.29,51,0.152,8.01
8.8382,0.01571,0.05585,1.22522,0.00000,0.00000,0.00000,40,-10,55,7,75,-4,57,1,ok,2,0,0.003,9,-1.60,0.72,11.29,51,0.165,8.01
8.8506,0.01571,0.05585,1.22522,0.00000,0.00000,0.00000,37,-9,56,8,73,-7,57,0,ok,2,0,0.003,9,-1.60,0.72,11.29,51,0.178,8.01
8.8709,0.01571,0.05585,1.22522,0.00000,0.00000,0.00000,34,-8,57,8,70,-6,58,0,ok,2,0,0.003,9,-1.60,0.72,11.29,51,0.191,8.01
8.8759,0.05411,-0.05061,1.20253,0.00000,0.00000,0.00000,31,-6,58,9,69,-9,58,0,ok,2,0,0.003,9,-0.08,0.63,10.23,52,0.000,8.01
8.8881,0.05411,-0.05061,1.20253,0.00000,0.00000,0.00000,28,-4,58,9,68,-10,60,1,ok,2,0,0.003,9,-0.08,0.63,10.23,52,0.013,8.01
8.9109,0.05411,-0.05061,1.20253,0.00000,0.00000,0.00000,24,-2,60,11,66,-12,60,0,ok,2,0,0.003,9,-0.08,0.63,10.23,52,0.025,8.01
8.9142,0.05411,-0.05061,1.20253,0.00000,0.00000,0.00000,22,-1,61,11,64,-12,61,0,ok,2,0,0.003,9,-0.08,0.63,10.23,52,0.038,8.01
8.9266,0.05411,-0.05061,1.20253,0.00000,0.00000,0.00000,20,0,62,12,62,-13,64,-2,ok,2,0,0.003,9,-0.08,0.63,10.23,52,0.051,8.01
8.9468,0.05411,-0.05061,1.20253,0.00000,0.00000,0.00000,18,3,62,12,59,-14,64,-1,ok,2,0,0.003,9,-0.08,0.63,10.23,52,0.063,8.01
8.9516,0.05411,-0.05061,1.20253,0.00000,0.00000,0.00000,16,7,63,13,57,-14,65,-1,ok,2,0,0.003,9,-0.08,0.63,10.23,52,0.076,8.01
8.9641,0.05411,-0.05061,1.20253,0.00000,0.00000,0.00000,14,10,62,14,54,-13,65,-1,ok,2,0,0.003,9,-0.08,0.63,10.23,52,0.088,8.01
8.9869,0.05411,-0.05061,1.20253,0.00000,0.00000,0.00000,12,13,63,15,51,-13,66,-1,ok,2,0,0.003,9,-0.08,0.63,10.23,52,0.101,8.01
8.9900,0.05411,-0.05061,1.20253,0.00000,0.00000,0.00000,14,13,63,16,49,-13,67,0,ok,2,0,0.003,9,-0.08,0.63,10.23,52,0.114,8.01
9.0027,0.05411,-0.05061,1.20253,0.00000,0.00000,0.00000,14,13,63,17,46,-12,67,0,ok,2,0,0.003,9,-0.08,0.63,10.23,52,0.127,8.01
9.0228,0.05411,-0.05061,1.20253,0.00000,0.00000,0.00000,16,12,64,17,44,-11,68,1,ok,2,0,0.003,9,-0.08,0.63,10.23,52,0.139,8.01
9.0276,0.05411,-0.05061,1.20253,0.00000,0.00000,0.00000,17,12,64,19,40,-10,69,1,ok,2,0,0.003,9,-0.08,0.63,10.23,52,0.152,8.01
9.0402,0.05411,-0.05061,1.20253,0.00000,0.00000,0.00000,18,11,65,19,38,-9,70,2,ok,2,0,0.003,9,-0.08,0.63,10.23,52,0.164,8.01
9.0628,0.05411,-0.05061,1.20253,0.00000,0.00000,0.00000,20,10,65,20,34,-8,70,2,ok,2,0,0.003,9,-0.08,0.63,10.23,52,0.177,8.01
9.0661,0.05411,-0.05061,1.20253,0.00000,0.00000,0.00000,20,10,65,21,33,-6,71,3,ok,2,0,0.003,9,-0.08,0.63,10.23,52,0.190,8.01
9.0788,-0.00349,0.03142,1.21999,0.00000,0.00000,0.00000,22,9,66,22,31,-5,71,5,ok,2,0,0.003,9,0.50,-0.85,9.05,53,0.000,8.01
9.0988,-0.00349,0.03142,1.21999,0.00000,0.00000,0.00000,23,8,65,23,28,-2,72,5,ok,2,0,0.003,9,0.50,-0.85,9.05,53,0.013,8.01
9.1036,-0.00349,0.03142,1.21999,0.00000,0.00000,0.00000,25,7,65,23,27,1,72,7,ok,2,0,0.003,9,0.50,-0.85,9.05,53,0.025,8.01
9.1163,-0.00349,0.03142,1.21999,0.00000,0.00000,0.00000,26,6,65,24,26,4,72,8,ok,2,0,0.003,9,0.50,-0.85,9.05,53,0.038,8.01
9.1389,-0.00349,0.03142,1.21999,0.00000,0.00000,0.00000,27,6,64,25,26,7,72,9,ok,2,0,0.003,9,0.50,-0.85,9.05,53,0.050,8.01
9.1420,-0.00349,0.03142,1.21999,0.00000,0.00000,0.00000,29,6,63,28,27,6,73,10,ok,2,0,0.003,9,0.50,-0.85,9.05,53,0.063,8.01
9.1546,-0.00349,0.03142,1.21999,0.00000,0.00000,0.00000,30,5,63,29,28,6,73,12,ok,2,0,0.003,9,0.50,-0.85,9.05,53,0.076,8.01
9.1748,-0.00349,0.03142,1.21999,0.00000,0.00000,0.00000,31,4,64,28,29,4,73,13,ok,2,0,0.003,9,0.50,-0.85,9.05,53,0.089,8.01
9.1796,-0.00349,0.03142,1.21999,0.00000,0.00000,0.00000,32,3,67,25,30,3,73,15,ok,2,0,0.003,9,0.50,-0.85,9.05,53,0.101,8.01
9.1924,-0.00349,0.03142,1.21999,0.00000,0.00000,0.00000,33,3,69,21,31,3,73,16,ok,2,0,0.003,9,0.50,-0.85,9.05,53,0.114,8.01
9.2149,-0.00349,0.03142,1.21999,0.00000,0.00000,0.00000,35,2,71,17,33,3,73,18,ok,2,0,0.003,9,0.50,-0.85,9.05,53,0.126,8.01
9.2180,-0.00349,0.03142,1.21999,0.00000,0.00000,0.00000,36,2,71,15,34,2,73,20,ok,2,0,0.003,9,0.50,-0.85,9.05,53,0.139,8.01
9.2305,-0.00349,0.03142,1.21999,0.00000,0.00000,0.00000,38,1,71,14,36,2,74,20,ok,2,0,0.003,9,0.50,-0.85,9.05,53,0.152,8.01
9.2508,-0.00349,0.03142,1.21999,0.00000,0.00000,0.00000,39,1,71,11,37,2,73,23,ok,2,0,0.003,9,0.50,-0.85,9.05,53,0.165,8.01
9.2556,-0.00349,0.03142,1.21999,0.00000,0.00000,0.00000,41,1,70,8,38,2,72,24,ok,2,0,0.003,9,0.50,-0.85,9.05,53,0.177,8.01
9.2684,-0.00349,0.03142,1.21999,0.00000,0.00000,0.00000,42,1,70,6,40,2,73,25,ok,2,0,0.003,9,0.50,-0.85,9.05,53,0.190,8.01
9.2909,0.05236,0.02793,1.22697,0.00000,0.00000,0.00000,43,0,69,3,41,2,73,27,ok,2,0,0.003,9,-1.10,0.28,10.37,54,0.000,8.01
9.2940,0.05236,0.02793,1.22697,0.00000,0.00000,0.00000,45,0,68,1,42,1,72,28,ok,2,0,0.003,9,-1.10,0.28,10.37,54,0.013,8.01
9.3065,0.05236,0.02793,1.22697,0.00000,0.00000,0.00000,46,0,67,-1,43,1,72,29,ok,2,0,0.003,9,-1.10,0.28,10.37,54,0.026,8.01
9.3268,0.05236,0.02793,1.22697,0.00000,0.00000,0.00000,46,0,65,-2,44,0,73,29,ok,2,0,0.003,9,-1.10,0.28,10.37,54,0.039,8.01
9.3316,0.05236,0.02793,1.22697,0.00000,0.00000,0.00000,48,1,64,-4,46,1,74,28,ok,2,0,0.003,9,-1.10,0.28,10.37,54,0.051,8.01
9.3443,0.05236,0.02793,1.22697,0.00000,0.00000,0.00000,49,1,63,-6,47,1,76,26,ok,2,0,0.003,9,-1.10,0.28,10.37,54,0.064,8.01
9.3669,0.05236,0.02793,1.22697,0.00000,0.00000,0.00000,51,2,61,-7,48,1,78,21,ok,2,0,0.003,9,-1.10,0.28,10.37,54,0.076,8.01
9.3700,0.05236,0.02793,1.22697,0.00000,0.00000,0.00000,52,1,58,-8,48,1,79,17,ok,2,0,0.003,9,-1.10,0.28,10.37,54,0.089,8.01
9.3825,0.05236,0.02793,1.22697,0.00000,0.00000,0.00000,52,2,56,-8,50,1,81,14,ok,2,0,0.003,9,-1.10,0.28,10.37,54,0.102,8.01
9.4028,0.05236,0.02793,1.22697,0.00000,0.00000,0.00000,52,4,54,-9,51,1,81,14,ok,2,0,0.003,9,-1.10,0.28,10.37,54,0.115,8.01
9.4077,0.05236,0.02793,1.22697,0.00000,0.00000,0.00000,53,5,51,-9,52,1,81,11,ok,2,0,0.003,9,-1.10,0.28,10.37,54,0.127,8.01
9.4202,0.05236,0.02793,1.22697,0.00000,0.00000,0.00000,54,4,48,-9,53,1,81,7,ok,2,0,0.003,9,-1.10,0.28,10.37,54,0.140,8.01
9.4429,0.05236,0.02793,1.22697,0.00000,0.00000,0.00000,55,5,46,-8,54,2,81,4,ok,2,0,0.003,9,-1.10,0.28,10.37,54,0.152,8.01
9.4461,0.05236,0.02793,1.22697,0.00000,0.00000,0.00000,55,6,43,-9,55,1,80,2,ok,2,0,0.003,9,-1.10,0.28,10.37,54,0.165,8.01
9.4586,0.05236,0.02793,1.22697,0.00000,0.00000,0.00000,57,6,41,-9,56,2,79,-1,ok,2,0,0.003,9,-1.10,0.28,10.37,54,0.178,8.01
9.4789,0.05236,0.02793,1.22697,0.00000,0.00000,0.00000,57,6,38,-8,57,1,79,-3,ok,2,0,0.003,9,-1.10,0.28,10.37,54,0.191,8.01
9.4838,-0.07679,-0.03491,1.28805,0.00000,0.00000,0.00000,59,7,35,-7,58,2,77,-5,ok,2,0,0.003,9,-1.18,-0.55,9.05,55,0.000,8.01
9.4962,-0.07679,-0.03491,1.28805,0.00000,0.00000,0.00000,59,8,32,-6,58,2,76,-6,ok,2,0,0.003,9,-1.18,-0.55,9.05,55,0.013,8.01
9.5189,-0.07679,-0.03491,1.28805,0.00000,0.00000,0.00000,60,8,28,-5,59,2,73,-6,ok,2,0,0.003,9,-1.18,-0.55,9.05,55,0.025,8.01
9.5220,-0.07679,-0.03491,1.28805,0.00000,0.00000,0.00000,61,9,25,-3,60,2,72,-8,ok,2,0,0.003,9,-1.18,-0.55,9.05,55,0.038,8.01
9.5346,-0.07679,-0.03491,1.28805,0.00000,0.00000,0.00000,63,10,21,-1,61,1,70,-10,ok,2,0,0.003,9,-1.18,-0.55,9.05,55,0.051,8.01
9.5548,-0.07679,-0.03491,1.28805,0.00000,0.00000,0.00000,63,10,20,0,63,-1,68,-12,ok,2,0,0.003,9,-1.18,-0.55,9.05,55,0.064,8.01
9.5596,-0.07679,-0.03491,1.28805,0.00000,0.00000,0.00000,64,11,18,2,64,0,66,-13,ok,2,0,0.003,9,-1.18,-0.55,9.05,55,0.076,8.01
9.5721,-0.07679,-0.03491,1.28805,0.00000,0.00000,0.00000,64,12,16,4,65,0,64,-13,ok,2,0,0.003,9,-1.18,-0.55,9.05,55,0.089,8.01
9.5949,-0.07679,-0.03491,1.28805,0.00000,0.00000,0.00000,65,12,14,7,65,0,61,-13,ok,2,0,0.003,9,-1.18,-0.55,9.05,55,0.101,8.01
9.5982,-0.07679,-0.03491,1.28805,0.00000,0.00000,0.00000,64,13,12,11,66,1,59,-14,ok,2,0,0.003,9,-1.18,-0.55,9.05,55,0.114,8.01
9.6106,-0.07679,-0.03491,1.28805,0.00000,0.00000,0.00000,65,14,11,13,67,1,56,-12,ok,2,0,0.003,9,-1.18,-0.55,9.05,55,0.127,8.01
9.6308,-0.07679,-0.03491,1.28805,0.00000,0.00000,0.00000,65,15,12,13,67,1,53,-12,ok,2,0,0.003,9,-1.18,-0.55,9.05,55,0.140,8.01
9.6355,-0.07679,-0.03491,1.28805,0.00000,0.00000,0.00000,66,16,12,13,68,1,51,-12,ok,2,0,0.003,9,-1.18,-0.55,9.05,55,0.152,8.01
9.6482,-0.07679,-0.03491,1.28805,0.00000,0.00000,0.00000,66,17,14,12,68,1,48,-11,ok,2,0,0.003,9,-1.18,-0.55,9.05,55,0.165,8.01
9.6709,-0.07679,-0.03491,1.28805,0.00000,0.00000,0.00000,67,18,15,11,68,2,45,-10,ok,2,0,0.003,9,-1.18,-0.55,9.05,55,0.177,8.01
9.6741,-0.07679,-0.03491,1.28805,0.00000,0.00000,0.00000,67,18,15,11,68,3,42,-9,ok,2,0,0.003,10,-1.18,-0.55,9.05,55,0.190,8.01
9.6869,0.00873,0.11519,1.29852,0.00000,0.00000,0.00000,68,19,17,9,69,4,40,-8,ok,2,0,0.003,10,0.22,-0.02,9.14,56,0.000,8.01
9.7069,0.00873,0.11519,1.29852,0.00000,0.00000,0.00000,67,20,17,9,69,5,36,-7,ok,2,0,0.003,10,0.22,-0.02,9.14,56,0.013,8.01
9.7116,0.00873,0.11519,1.29852,0.00000,0.00000,0.00000,68,21,19,8,70,6,35,-5,ok,2,0,0.003,10,0.22,-0.02,9.14,56,0.025,8.01
9.7242,0.00873,0.11519,1.29852,0.00000,0.00000,0.00000,68,22,20,7,70,7,32,-4,ok,2,0,0.003,10,0.22,-0.02,9.14,56,0.038,8.01
9.7469,0.00873,0.11519,1.29852,0.00000,0.00000,0.00000,68,23,22,7,70,8,30,0,ok,2,0,0.003,10,0.22,-0.02,9.14,56,0.050,8.01
9.7500,0.00873,0.11519,1.29852,0.00000,0.00000,0.00000,68,24,23,6,71,9,29,2,ok,2,0,0.003,10,0.22,-0.02,9.14,56,0.063,8.01
9.7628,0.00873,0.11519,1.29852,0.00000,0.00000,0.00000,67,25,24,5,71,10,28,6,ok,2,0,0.003,10,0.22,-0.02,9.14,56,0.076,8.01
9.7828,0.00873,0.11519,1.29852,0.00000,0.00000,0.00000,67,28,25,5,71,11,27,8,ok,2,0,0.003,10,0.22,-0.02,9.14,56,0.089,8.01
9.7876,0.00873,0.11519,1.29852,0.00000,0.00000,0.00000,66,29,26,4,71,13,29,6,ok,2,0,0.003,10,0.22,-0.02,9.14,56,0.101,8.01
9.8002,0.00873,0.11519,1.29852,0.00000,0.00000,0.00000,67,28,27,4,71,14,30,6,ok,2,0,0.003,10,0.22,-0.02,9.14,56,0.114,8.01
9.8229,0.00873,0.11519,1.29852,0.00000,0.00000,0.00000,70,25,29,3,71,16,31,4,ok,2,0,0.003,10,0.22,-0.02,9.14,56,0.126,8.01
9.8260,0.00873,0.11519,1.29852,0.00000,0.00000,0.00000,72,21,30,3,71,17,32,4,ok,2,0,0.003,10,0.22,-0.02,9.14,56,0.139,8.01
9.8385,0.00873,0.11519,1.29852,0.00000,0.00000,0.00000,73,17,32,2,71,19,34,3,ok,2,0,0.003,10,0.22,-0.02,9.14,56,0.152,8.01
9.8588,0.00873,0.11519,1.29852,0.00000,0.00000,0.00000,73,15,33,2,72,20,35,3,ok,2,0,0.003,10,0.22,-0.02,9.14,56,0.164,8.01
9.8635,0.00873,0.11519,1.29852,0.00000,0.00000,0.00000,73,14,35,2,71,22,37,2,ok,2,0,0.003,10,0.22,-0.02,9.14,56,0.177,8.01
9.8764,0.00873,0.11519,1.29852,0.00000,0.00000,0.00000,73,11,36,2,71,23,39,2,ok,2,0,0.003,10,0.22,-0.02,9.14,56,0.189,8.01
9.8989,0.00175,0.01396,1.41372,0.00000,0.00000,0.00000,72,8,37,2,71,25,40,2,ok,2,0,0.003,10,-0.58,1.23,9.69,57,0.000,8.01
9.9020,0.00175,0.01396,1.41372,0.00000,0.00000,0.00000,72,5,38,2,71,26,41,2,ok,2,0,0.003,10,-0.58,1.23,9.69,57,0.013,8.01
9.9146,0.00175,0.01396,1.41372,0.00000,0.00000,0.00000,71,1,40,2,70,28,43,2,ok,2,0,0.003,10,-0.58,1.23,9.69,57,0.026,8.01
9.9348,0.00175,0.01396,1.41372,0.00000,0.00000,0.00000,70,-1,41,2,70,29,43,2,ok,2,0,0.003,10,-0.58,1.23,9.69,57,0.039,8.01
9.9397,0.00175,0.01396,1.41372,0.00000,0.00000,0.00000,68,-3,43,2,70,30,45,1,ok,2,0,0.003,10,-0.58,1.23,9.69,57,0.051,8.01
9.9522,0.00175,0.01396,1.41372,0.00000,0.00000,0.00000,66,-4,43,2,72,29,46,1,ok,2,0,0.003,10,-0.58,1.23,9.69,57,0.064,8.01
9.9749,0.00175,0.01396,1.41372,0.00000,0.00000,0.00000,65,-6,45,3,73,27,47,1,ok,2,0,0.003,10,-0.58,1.23,9.69,57,0.076,8.01
9.9780,0.00175,0.01396,1.41372,0.00000,0.00000,0.00000,64,-8,46,3,75,22,48,1,ok,2,0,0.003,10,-0.58,1.23,9.69,57,0.089,8.01
9.9906,0.00175,0.01396,1.41372,0.00000,0.00000,0.00000,62,-9,48,4,77,17,49,1,ok,2,0,0.003,10,-0.58,1.23,9.69,57,0.102,8.01
10.0108,0.00175,0.01396,1.41372,0.00000,0.00000,0.00000,60,-10,49,3,78,15,50,1,ok,2,0,0.003,10,-0.58,1.23,9.69,57,0.115,8.01
10.0156,0.00175,0.01396,1.41372,0.00000,0.00000,0.00000,57,-10,50,3,78,14,50,1,ok,2,0,0.003,10,-0.58,1.23,9.69,57,0.127,8.01
10.0346,0.00175,0.01396,1.41372,0.00000,0.00000,0.00000,55,-11,50,5,78,12,51,1,ok,2,0,0.003,10,-0.58,1.23,9.69,57,0.140,8.01
10.0509,0.00175,0.01396,1.41372,0.00000,0.00000,0.00000,52,-11,51,6,78,8,52,1,ok,2,0,0.003,10,-0.58,1.23,9.69,57,0.152,8.01
10.0540,0.00175,0.01396,1.41372,0.00000,0.00000,0.00000,50,-11,52,6,78,5,53,1,ok,2,0,0.003,10,-0.58,1.23,9.69,57,0.165,8.01
10.0667,0.00175,0.01396,1.41372,0.00000,0.00000,0.00000,47,-11,53,6,77,3,54,0,ok,2,0,0.003,10,-0.58,1.23,9.69,57,0.178,8.01
10.0868,0.05585,-0.05061,1.41372,0.00000,0.00000,0.00000,45,-11,53,7,76,0,55,1,ok,2,0,0.003,10,-1.53,0.25,10.50,58,0.000,8.01
10.0917,0.05585,-0.05061,1.41372,0.00000,0.00000,0.00000,43,-11,55,7,76,-3,56,0,ok,2,0,0.003,10,-1.53,0.25,10.50,58,0.013,8.01
10.1041,0.05585,-0.05061,1.41372,0.00000,0.00000,0.00000,40,-10,56,8,74,-4,57,1,ok,2,0,0.003,10,-1.53,0.25,10.50,58,0.025,8.01
10.1269,0.05585,-0.05061,1.41372,0.00000,0.00000,0.00000,37,-9,57,8,73,-7,57,-1,ok,2,0,0.003,10,-1.53,0.25,10.50,58,0.038,8.01
10.1300,0.05585,-0.05061,1.41372,0.00000,0.00000,0.00000,34,-8,57,9,70,-7,58,0,ok,2,0,0.003,10,-1.53,0.25,10.50,58,0.051,8.01
10.1425,0.05585,-0.05061,1.41372,0.00000,0.00000,0.00000,31,-6,58,9,69,-9,58,0,ok,2,0,0.003,10,-1.53,0.25,10.50,58,0.064,8.01
10.1628,0.05585,-0.05061,1.41372,0.00000,0.00000,0.00000,28,-4,58,10,68,-10,60,1,ok,2,0,0.003,10,-1.53,0.25,10.50,58,0.076,8.01
10.1676,0.05585,-0.05061,1.41372,0.00000,0.00000,0.00000,24,-2,60,11,65,-12,60,0,ok,2,0,0.003,10,-1.53,0.25,10.50,58,0.089,8.01
10.1802,0.05585,-0.05061,1.41372,0.00000,0.00000,0.00000,22,-1,61,11,63,-13,61,0,ok,2,0,0.003,10,-1.53,0.25,10.50,58,0.101,8.01
10.2029,0.05585,-0.05061,1.41372,0.00000,0.00000,0.00000,20,1,61,12,62,-13,64,-2,ok,2,0,0.003,10,-1.53,0.25,10.50,58,0.114,8.01
10.2060,0.05585,-0.05061,1.41372,0.00000,0.00000,0.00000,19,3,62,13,59,-14,64,-1,ok,2,0,0.003,10,-1.53,0.25,10.50,58,0.127,8.01
10.2185,0.05585,-0.05061,1.41372,0.00000,0.00000,0.00000,16,7,62,13,57,-14,65,-1,ok,2,0,0.003,10,-1.53,0.25,10.50,58,0.140,8.01
10.2388,0.05585,-0.05061,1.41372,0.00000,0.00000,0.00000,15,10,62,15,54,-13,65,0,ok,2,0,0.003,10,-1.53,0.25,10.50,58,0.152,8.01
10.2437,0.05585,-0.05061,1.41372,0.00000,0.00000,0.00000,13,13,63,15,51,-13,66,-1,ok,2,0,0.003,10,-1.53,0.25,10.50,58,0.165,8.01
10.2561,0.05585,-0.05061,1.41372,0.00000,0.00000,0.00000,15,13,63,16,49,-13,67,0,ok,2,0,0.003,10,-1.53,0.25,10.50,58,0.177,8.01
10.2789,0.05585,-0.05061,1.41372,0.00000,0.00000,0.00000,14,13,63,17,46,-11,68,0,ok,2,0,0.003,10,-1.53,0.25,10.50,58,0.190,8.01
10.2823,-0.02967,-0.01571,1.45735,0.00000,0.00000,0.00000,16,12,64,18,43,-11,68,1,ok,2,0,0.003,10,0.58,-0.66,10.54,59,0.000,8.01
10.2945,-0.02967,-0.01571,1.45735,0.00000,0.00000,0.00000,17,12,64,19,40,-10,69,1,ok,2,0,0.003,10,0.58,-0.66,10.54,59,0.013,8.01
10.3148,-0.02967,-0.01571,1.45735,0.00000,0.00000,0.00000,18,11,65,19,38,-9,70,2,ok,2,0,0.003,10,0.58,-0.66,10.54,59,0.025,8.01
10.3196,-0.02967,-0.01571,1.45735,0.00000,0.00000,0.00000,20,10,65,20,35,-8,70,3,ok,2,0,0.003,10,0.58,-0.66,10.54,59,0.038,8.01
10.3323,-0.02967,-0.01571,1.45735,0.00000,0.00000,0.00000,20,10,65,21,33,-6,71,4,ok,2,0,0.003,10,0.58,-0.66,10.54,59,0.050,8.01
10.3549,-0.02967,-0.01571,1.45735,0.00000,0.00000,0.00000,23,8,65,22,31,-5,71,5,ok,2,0,0.003,10,0.58,-0.66,10.54,59,0.063,8.01
10.3581,-0.02967,-0.01571,1.45735,0.00000,0.00000,0.00000,24,7,65,23,28,-2,72,5,ok,2,0,0.003,10,0.58,-0.66,10.54,59,0.076,8.01
10.3705,-0.02967,-0.01571,1.45735,0.00000,0.00000,0.00000,25,7,65,24,27,1,72,7,ok,2,0,0.003,10,0.58,-0.66,10.54,59,0.089,8.01
10.3908,-0.02967,-0.01571,1.45735,0.00000,0.00000,0.00000,26,6,65,25,26,4,72,8,ok,2,0,0.003,10,0.58,-0.66,10.54,59,0.101,8.01
10.3957,-0.02967,-0.01571,1.45735,0.00000,0.00000,0.00000,27,6,65,25,26,7,73,9,ok,2,0,0.003,10,0.58,-0.66,10.54,59,0.114,8.01
10.4082,-0.02967,-0.01571,1.45735,0.00000,0.00000,0.00000,28,5,64,28,27,6,73,10,ok,2,0,0.003,10,0.58,-0.66,10.54,59,0.126,8.01
10.4309,-0.02967,-0.01571,1.45735,0.00000,0.00000,0.00000,30,4,63,30,28,6,73,12,ok,2,0,0.003,10,0.58,-0.66,10.54,59,0.139,8.01
10.4340,-0.02967,-0.01571,1.45735,0.00000,0.00000,0.00000,31,4,65,28,29,4,73,13,ok,2,0,0.003,10,0.58,-0.66,10.54,59,0.152,8.01
10.4466,-0.02967,-0.01571,1.45735,0.00000,0.00000,0.00000,32,3,67,25,30,3,73,15,ok,2,0,0.003,10,0.58,-0.66,10.54,59,0.165,8.01
10.4668,-0.02967,-0.01571,1.45735,0.00000,0.00000,0.00000,33,3,70,21,31,3,73,16,ok,2,0,0.003,10,0.58,-0.66,10.54,59,0.177,8.01
10.4716,-0.02967,-0.01571,1.45735,0.00000,0.00000,0.00000,35,2,71,18,33,2,73,18,ok,2,0,0.003,10,0.58,-0.66,10.54,59,0.190,8.01
10.4844,-0.04887,-0.02269,1.46084,0.00000,0.00000,0.00000,36,2,71,16,34,1,73,20,ok,2,0,0.003,10,-0.25,-0.85,10.95,60,0.000,8.01
10.5069,-0.04887,-0.02269,1.46084,0.00000,0.00000,0.00000,38,1,71,15,36,1,74,21,ok,2,0,0.003,10,-0.25,-0.85,10.95,60,0.013,8.01
10.5104,-0.04887,-0.02269,1.46084,0.00000,0.00000,0.00000,39,1,71,12,36,1,73,23,ok,2,0,0.003,10,-0.25,-0.85,10.95,60,0.026,8.01
10.5226,-0.04887,-0.02269,1.46084,0.00000,0.00000,0.00000,41,1,71,9,38,2,72,24,ok,2,0,0.003,10,-0.25,-0.85,10.95,60,0.039,8.01
10.5428,-0.04887,-0.02269,1.46084,0.00000,0.00000,0.00000,42,1,70,6,39,1,73,25,ok,2,0,0.003,10,-0.25,-0.85,10.95,60,0.051,8.01
10.5476,-0.04887,-0.02269,1.46084,0.00000,0.00000,0.00000,44,0,69,3,40,2,73,27,ok,2,0,0.003,10,-0.25,-0.85,10.95,60,0.064,8.01
10.5602,-0.04887,-0.02269,1.46084,0.00000,0.00000,0.00000,45,0,68,1,42,1,72,28,ok,2,0,0.003,10,-0.25,-0.85,10.95,60,0.076,8.01
10.5829,-0.04887,-0.02269,1.46084,0.00000,0.00000,0.00000,46,0,67,0,43,1,72,29,ok,2,0,0.003,10,-0.25,-0.85,10.95,60,0.089,8.01
10.5862,-0.04887,-0.02269,1.46084,0.00000,0.00000,0.00000,46,0,65,-1,44,0,73,29,ok,2,0,0.003,10,-0.25,-0.85,10.95,60,0.102,8.01
10.5985,-0.04887,-0.02269,1.46084,0.00000,0.00000,0.00000,48,1,64,-3,46,0,74,29,ok,2,0,0.003,10,-0.25,-0.85,10.95,60,0.114,8.01
10.6188,-0.04887,-0.02269,1.46084,0.00000,0.00000,0.00000,49,1,63,-6,47,0,76,26,ok,2,0,0.003,10,-0.25,-0.85,10.95,60,0.127,8.01
10.6236,-0.04887,-0.02269,1.46084,0.00000,0.00000,0.00000,51,2,61,-6,48,0,78,21,ok,2,0,0.003,10,-0.25,-0.85,10.95,60,0.139,8.01
10.6362,-0.04887,-0.02269,1.46084,0.00000,0.00000,0.00000,52,1,58,-8,48,0,79,17,ok,2,0,0.003,10,-0.25,-0.85,10.95,60,0.152,8.01
10.6589,-0.04887,-0.02269,1.46084,0.00000,0.00000,0.00000,52,1,56,-8,50,0,81,14,ok,2,0,0.003,10,-0.25,-0.85,10.95,60,0.164,8.01
10.6620,-0.04887,-0.02269,1.46084,0.00000,0.00000,0.00000,52,4,54,-9,51,0,81,14,ok,2,0,0.003,10,-0.25,-0.85,10.95,60,0.178,8.01
10.6747,-0.04887,-0.02269,1.46084,0.00000,0.00000,0.00000,53,5,51,-9,52,0,81,11,ok,2,0,0.003,10,-0.25,-0.85,10.95,60,0.190,8.01
10.6989,-0.06458,0.01222,1.49575,0.00000,0.00000,0.00000,54,4,48,-9,53,0,81,7,ok,2,0,0.003,11,-1.78,-0.81,9.60,61,0.000,8.01
10.7020,-0.06458,0.01222,1.49575,0.00000,0.00000,0.00000,55,5,46,-8,54,1,80,4,ok,2,0,0.003,11,-1.78,-0.81,9.60,61,0.015,8.01
10.7149,-0.06458,0.01222,1.49575,0.00000,0.00000,0.00000,55,6,43,-9,55,1,80,3,ok,2,0,0.003,11,-1.78,-0.81,9.60,61,0.027,8.01
10.7349,-0.06458,0.01222,1.49575,0.00000,0.00000,0.00000,57,6,41,-9,56,1,79,-1,ok,2,0,0.003,11,-1.78,-0.81,9.60,61,0.040,8.01
10.7396,-0.06458,0.01222,1.49575,0.00000,0.00000,0.00000,57,6,38,-8,57,1,78,-3,ok,2,0,0.003,11,-1.78,-0.81,9.60,61,0.052,8.01
10.7521,-0.06458,0.01222,1.49575,0.00000,0.00000,0.00000,59,7,35,-7,58,1,77,-4,ok,2,0,0.003,11,-1.78,-0.81,9.60,61,0.065,8.01
10.7748,-0.06458,0.01222,1.49575,0.00000,0.00000,0.00000,59,8,32,-6,58,2,75,-6,ok,2,0,0.003,11,-1.78,-0.81,9.60,61,0.077,8.01
10.7780,-0.06458,0.01222,1.49575,0.00000,0.00000,0.00000,60,8,28,-5,59,2,72,-7,ok,2,0,0.003,11,-1.78,-0.81,9.60,61,0.091,8.01
10.7906,-0.06458,0.01222,1.49575,0.00000,0.00000,0.00000,61,9,26,-3,60,2,71,-8,ok,2,0,0.003,11,-1.78,-0.81,9.60,61,0.103,8.01
10.8109,-0.06458,0.01222,1.49575,0.00000,0.00000,0.00000,62,10,21,-1,61,1,70,-10,ok,2,0,0.003,11,-1.78,-0.81,9.60,61,0.116,8.01
10.8156,-0.06458,0.01222,1.49575,0.00000,0.00000,0.00000,63,10,19,0,64,-1,68,-11,ok,2,0,0.003,11,-1.78,-0.81,9.60,61,0.128,8.01
10.8284,-0.06458,0.01222,1.49575,0.00000,0.00000,0.00000,64,11,18,2,64,0,65,-13,ok,2,0,0.003,11,-1.78,-0.81,9.60,61,0.141,8.01
10.8508,-0.06458,0.01222,1.49575,0.00000,0.00000,0.00000,64,12,16,4,65,1,64,-13,ok,2,0,0.003,11,-1.78,-0.81,9.60,61,0.153,8.01
10.8539,-0.06458,0.01222,1.49575,0.00000,0.00000,0.00000,65,12,14,7,65,1,61,-13,ok,2,0,0.003,11,-1.78,-0.81,9.60,61,0.167,8.01
10.8666,-0.06458,0.01222,1.49575,0.00000,0.00000,0.00000,65,14,12,10,66,1,59,-14,ok,2,0,0.003,11,-1.78,-0.81,9.60,61,0.179,8.01
10.8868,-0.06458,0.01222,1.49575,0.00000,0.00000,0.00000,65,14,10,13,67,1,56,-12,ok,2,0,0.003,11,-1.78,-0.81,9.60,61,0.192,8.01
10.8919,-0.02793,-0.03665,1.50447,0.00000,0.00000,0.00000,66,15,12,13,67,1,53,-12,ok,2,0,0.003,11,0.50,-0.97,11.12,62,0.000,8.01
10.9041,-0.02793,-0.03665,1.50447,0.00000,0.00000,0.00000,66,16,12,13,68,1,51,-12,ok,2,0,0.003,11,0.50,-0.97,11.12,62,0.013,8.01
10.9268,-0.02793,-0.03665,1.50447,0.00000,0.00000,0.00000,67,17,13,12,68,2,48,-11,ok,2,0,0.003,11,0.50,-0.97,11.12,62,0.025,8.01
10.9299,-0.02793,-0.03665,1.50447,0.00000,0.00000,0.00000,67,18,15,11,68,3,46,-10,ok,2,0,0.003,11,0.50,-0.97,11.12,62,0.038,8.01
10.9427,-0.02793,-0.03665,1.50447,0.00000,0.00000,0.00000,67,18,15,11,68,3,42,-9,ok,2,0,0.003,11,0.50,-0.97,11.12,62,0.051,8.01
10.9628,-0.02793,-0.03665,1.50447,0.00000,0.00000,0.00000,68,19,17,9,69,4,40,-8,ok,2,0,0.003,11,0.50,-0.97,11.12,62,0.064,8.01
10.9676,-0.02793,-0.03665,1.50447,0.00000,0.00000,0.00000,68,20,17,9,69,5,36,-6,ok,2,0,0.003,11,0.50,-0.97,11.12,62,0.076,8.01
10.9801,-0.02793,-0.03665,1.50447,0.00000,0.00000,0.00000,69,21,19,8,70,5,35,-5,ok,2,0,0.003,11,0.50,-0.97,11.12,62,0.089,8.01
11.0029,-0.02793,-0.03665,1.50447,0.00000,0.00000,0.00000,69,22,21,7,70,6,32,-3,ok,2,0,0.003,11,0.50,-0.97,11.12,62,0.101,8.01
11.0061,-0.02793,-0.03665,1.50447,0.00000,0.00000,0.00000,68,23,22,7,70,8,30,0,ok,2,0,0.003,11,0.50,-0.97,11.12,62,0.114,8.01
11.0186,-0.02793,-0.03665,1.50447,0.00000,0.00000,0.00000,68,24,23,6,71,8,29,2,ok,2,0,0.003,11,0.50,-0.97,11.12,62,0.127,8.01
11.0388,-0.02793,-0.03665,1.50447,0.00000,0.00000,0.00000,68,25,24,6,71,9,28,6,ok,2,0,0.003,11,0.50,-0.97,11.12,62,0.140,8.01
11.0437,-0.02793,-0.03665,1.50447,0.00000,0.00000,0.00000,67,28,26,5,71,10,27,8,ok,2,0,0.003,11,0.50,-0.97,11.12,62,0.152,8.01
11.0562,-0.02793,-0.03665,1.50447,0.00000,0.00000,0.00000,66,29,27,4,70,12,29,6,ok,2,0,0.003,11,0.50,-0.97,11.12,62,0.165,8.01
11.0788,-0.02793,-0.03665,1.50447,0.00000,0.00000,0.00000,68,28,28,4,71,13,30,6,ok,2,0,0.003,11,0.50,-0.97,11.12,62,0.177,8.01
11.0820,-0.02793,-0.03665,1.50447,0.00000,0.00000,0.00000,70,25,29,3,71,15,31,4,ok,2,0,0.003,11,0.50,-0.97,11.12,62,0.190,8.01
11.0949,0.02443,0.02618,1.61443,0.00000,0.00000,0.00000,72,21,31,3,71,16,32,3,ok,2,0,0.003,11,1.17,-0.73,8.44,63,0.000,8.01
11.1148,0.02443,0.02618,1.61443,0.00000,0.00000,0.00000,73,17,32,2,70,18,34,3,ok,2,0,0.003,11,1.17,-0.73,8.44,63,0.013,8.01
11.1196,0.02443,0.02618,1.61443,0.00000,0.00000,0.00000,73,15,33,2,71,19,35,2,ok,2,0,0.003,11,1.17,-0.73,8.44,63,0.025,8.01
11.1321,0.02443,0.02618,1.61443,0.00000,0.00000,0.00000,73,14,35,2,70,21,36,1,ok,2,0,0.003,11,1.17,-0.73,8.44,63,0.038,8.01
11.1549,0.02443,0.02618,1.61443,0.00000,0.00000,0.00000,73,11,36,2,70,23,38,1,ok,2,0,0.003,11,1.17,-0.73,8.44,63,0.050,8.01
11.1579,0.02443,0.02618,1.61443,0.00000,0.00000,0.00000,72,8,37,2,71,24,39,2,ok,2,0,0.003,11,1.17,-0.73,8.44,63,0.063,8.01
11.1708,0.02443,0.02618,1.61443,0.00000,0.00000,0.00000,72,5,38,2,71,26,41,2,ok,2,0,0.003,11,1.17,-0.73,8.44,63,0.076,8.01
11.1908,0.02443,0.02618,1.61443,0.00000,0.00000,0.00000,71,2,40,2,70,28,42,2,ok,2,0,0.003,11,1.17,-0.73,8.44,63,0.089,8.01
11.1956,0.02443,0.02618,1.61443,0.00000,0.00000,0.00000,70,0,41,2,70,29,43,2,ok,2,0,0.003,11,1.17,-0.73,8.44,63,0.101,8.01
11.2081,0.02443,0.02618,1.61443,0.00000,0.00000,0.00000,68,-3,43,2,70,29,44,1,ok,2,0,0.003,11,1.17,-0.73,8.44,63,0.114,8.01
11.2309,0.02443,0.02618,1.61443,0.00000,0.00000,0.00000,66,-4,43,2,72,29,45,1,ok,2,0,0.003,11,1.17,-0.73,8.44,63,0.126,8.01
11.2339,0.02443,0.02618,1.61443,0.00000,0.00000,0.00000,65,-6,45,3,73,27,47,1,ok,2,0,0.003,11,1.17,-0.73,8.44,63,0.139,8.01
11.2467,0.02443,0.02618,1.61443,0.00000,0.00000,0.00000,64,-8,46,3,75,22,48,1,ok,2,0,0.003,11,1.17,-0.73,8.44,63,0.152,8.01
11.2668,0.02443,0.02618,1.61443,0.00000,0.00000,0.00000,62,-9,47,4,76,17,49,1,ok,2,0,0.003,11,1.17,-0.73,8.44,63,0.165,8.01
11.2716,0.02443,0.02618,1.61443,0.00000,0.00000,0.00000,60,-10,49,3,78,15,50,1,ok,2,0,0.003,11,1.17,-0.73,8.44,63,0.177,8.01
11.2843,0.02443,0.02618,1.61443,0.00000,0.00000,0.00000,58,-10,49,3,78,14,50,1,ok,2,0,0.003,11,1.17,-0.73,8.44,63,0.190,8.01
11.3069,0.08378,0.03491,1.62490,0.00000,0.00000,0.00000,55,-11,49,5,78,12,52,1,ok,2,0,0.003,11,0.98,1.21,9.78,64,0.000,8.01
11.3100,0.08378,0.03491,1.62490,0.00000,0.00000,0.00000,53,-11,51,6,78,9,53,1,ok,2,0,0.003,11,0.98,1.21,9.78,64,0.013,8.01
11.3227,0.08378,0.03491,1.62490,0.00000,0.00000,0.00000,50,-11,52,6,78,6,54,1,ok,2,0,0.003,11,0.98,1.21,9.78,64,0.026,8.01
11.3429,0.08378,0.03491,1.62490,0.00000,0.00000,0.00000,48,-10,53,6,77,3,55,0,ok,2,0,0.003,11,0.98,1.21,9.78,64,0.039,8.01
11.3478,0.08378,0.03491,1.62490,0.00000,0.00000,0.00000,45,-11,53,7,76,0,55,1,ok,2,0,0.003,11,0.98,1.21,9.78,64,0.051,8.01
11.3601,0.08378,0.03491,1.62490,0.00000,0.00000,0.00000,43,-11,55,7,76,-2,56,0,ok,2,0,0.003,11,0.98,1.21,9.78,64,0.064,8.01
11.3829,0.08378,0.03491,1.62490,0.00000,0.00000,0.00000,40,-10,55,7,75,-4,57,1,ok,2,0,0.003,11,0.98,1.21,9.78,64,0.076,8.01
11.3861,0.08378,0.03491,1.62490,0.00000,0.00000,0.00000,37,-9,56,8,73,-7,57,0,ok,2,0,0.003,11,0.98,1.21,9.78,64,0.089,8.01
11.3986,0.08378,0.03491,1.62490,0.00000,0.00000,0.00000,35,-7,57,9,70,-6,58,0,ok,2,0,0.003,11,0.98,1.21,9.78,64,0.102,8.01
11.4188,0.08378,0.03491,1.62490,0.00000,0.00000,0.00000,31,-6,57,9,69,-8,59,1,ok,2,0,0.003,11,0.98,1.21,9.78,64,0.114,8.01
11.4236,0.08378,0.03491,1.62490,0.00000,0.00000,0.00000,29,-4,58,9,68,-10,60,1,ok,2,0,0.003,11,0.98,1.21,9.78,64,0.127,8.01
11.4361,0.08378,0.03491,1.62490,0.00000,0.00000,0.00000,24,-1,59,11,65,-11,61,1,ok,2,0,0.003,11,0.98,1.21,9.78,64,0.139,8.01
11.4589,0.08378,0.03491,1.62490,0.00000,0.00000,0.00000,23,-1,60,11,63,-12,62,0,ok,2,0,0.003,11,0.98,1.21,9.78,64,0.152,8.01
11.4620,0.08378,0.03491,1.62490,0.00000,0.00000,0.00000,21,1,61,12,62,-12,64,-2,ok,2,0,0.003,11,0.98,1.21,9.78,64,0.165,8.01
11.4747,0.08378,0.03491,1.62490,0.00000,0.00000,0.00000,19,3,61,12,59,-13,64,-1,ok,2,0,0.003,11,0.98,1.21,9.78,64,0.178,8.01
11.4948,0.08378,0.03491,1.62490,0.00000,0.00000,0.00000,17,7,62,13,57,-13,65,-1,ok,2,0,0.003,11,0.98,1.21,9.78,64,0.191,8.01
11.4999,0.07679,-0.01920,1.63014,0.00000,0.00000,0.00000,15,10,62,14,54,-13,66,0,ok,2,0,0.003,11,-0.23,0.23,10.58,65,0.000,8.01
11.5121,0.07679,-0.01920,1.63014,0.00000,0.00000,0.00000,13,13,63,15,51,-12,66,-1,ok,2,0,0.003,11,-0.23,0.23,10.58,65,0.013,8.01
11.5349,0.07679,-0.01920,1.63014,0.00000,0.00000,0.00000,15,13,63,16,49,-12,67,0,ok,2,0,0.003,11,-0.23,0.23,10.58,65,0.025,8.01
11.5381,0.07679,-0.01920,1.63014,0.00000,0.00000,0.00000,15,13,63,17,46,-11,68,0,ok,2,0,0.003,11,-0.23,0.23,10.58,65,0.038,8.01
11.5507,0.07679,-0.01920,1.63014,0.00000,0.00000,0.00000,16,12,64,17,44,-11,69,1,ok,2,0,0.003,11,-0.23,0.23,10.58,65,0.051,8.01
11.5708,0.07679,-0.01920,1.63014,0.00000,0.00000,0.00000,18,12,64,18,41,-9,70,1,ok,2,0,0.003,11,-0.23,0.23,10.58,65,0.063,8.01
11.5756,0.07679,-0.01920,1.63014,0.00000,0.00000,0.00000,18,11,65,19,38,-9,70,2,ok,2,0,0.003,11,-0.23,0.23,10.58,65,0.076,8.01
11.5881,0.07679,-0.01920,1.63014,0.00000,0.00000,0.00000,20,10,65,20,34,-7,70,3,ok,2,0,0.003,11,-0.23,0.23,10.58,65,0.088,8.01
11.6109,0.07679,-0.01920,1.63014,0.00000,0.00000,0.00000,21,10,65,21,33,-6,71,4,ok,2,0,0.003,11,-0.23,0.23,10.58,65,0.101,8.01
11.6139,0.07679,-0.01920,1.63014,0.00000,0.00000,0.00000,23,9,65,22,31,-4,72,5,ok,2,0,0.003,11,-0.23,0.23,10.58,65,0.114,8.01
11.6266,0.07679,-0.01920,1.63014,0.00000,0.00000,0.00000,24,8,65,23,28,-1,72,5,ok,2,0,0.003,11,-0.23,0.23,10.58,65,0.127,8.01
11.6469,0.07679,-0.01920,1.63014,0.00000,0.00000,0.00000,25,7,65,23,27,1,72,7,ok,2,0,0.003,11,-0.23,0.23,10.58,65,0.139,8.01
11.6517,0.07679,-0.01920,1.63014,0.00000,0.00000,0.00000,27,6,65,25,26,4,72,8,ok,2,0,0.003,11,-0.23,0.23,10.58,65,0.152,8.01
11.6641,0.07679,-0.01920,1.63014,0.00000,0.00000,0.00000,28,6,64,25,25,7,73,9,ok,2,0,0.003,11,-0.23,0.23,10.58,65,0.164,8.01
11.6869,0.07679,-0.01920,1.63014,0.00000,0.00000,0.00000,29,5,64,28,27,6,73,10,ok,2,0,0.003,11,-0.23,0.23,10.58,65,0.177,8.01
11.6902,-0.06283,0.02618,1.66853,0.00000,0.00000,0.00000,30,5,63,29,28,6,73,12,ok,2,0,0.003,11,-0.21,-0.51,11.89,66,0.000,8.01
11.7027,-0.06283,0.02618,1.66853,0.00000,0.00000,0.00000,31,4,64,28,29,4,73,13,ok,2,0,0.003,12,-0.21,-0.51,11.89,66,0.013,8.01
11.7229,-0.06283,0.02618,1.66853,0.00000,0.00000,0.00000,33,3,67,25,30,3,74,15,ok,2,0,0.003,12,-0.21,-0.51,11.89,66,0.025,8.01
11.7278,-0.06283,0.02618,1.66853,0.00000,0.00000,0.00000,34,3,69,22,31,3,74,17,ok,2,0,0.003,12,-0.21,-0.51,11.89,66,0.038,8.01
11.7402,-0.06283,0.02618,1.66853,0.00000,0.00000,0.00000,36,2,70,18,32,2,73,18,ok,2,0,0.003,12,-0.21,-0.51,11.89,66,0.050,8.01
11.7629,-0.06283,0.02618,1.66853,0.00000,0.00000,0.00000,37,2,71,16,33,1,73,20,ok,2,0,0.003,12,-0.21,-0.51,11.89,66,0.063,8.01
11.7661,-0.06283,0.02618,1.66853,0.00000,0.00000,0.00000,39,1,70,15,36,2,74,21,ok,2,0,0.003,12,-0.21,-0.51,11.89,66,0.076,8.01
11.7786,-0.06283,0.02618,1.66853,0.00000,0.00000,0.00000,40,1,71,12,36,2,73,23,ok,2,0,0.003,12,-0.21,-0.51,11.89,66,0.089,8.01
11.7988,-0.06283,0.02618,1.66853,0.00000,0.00000,0.00000,41,1,70,9,38,2,73,24,ok,2,0,0.003,12,-0.21,-0.51,11.89,66,0.101,8.01
11.8036,-0.06283,0.02618,1.66853,0.00000,0.00000,0.00000,42,1,70,6,40,2,73,25,ok,2,0,0.003,12,-0.21,-0.51,11.89,66,0.114,8.01
11.8161,-0.06283,0.02618,1.66853,0.00000,0.00000,0.00000,44,0,69,3,40,2,73,27,ok,2,0,0.003,12,-0.21,-0.51,11.89,66,0.126,8.01
11.8389,-0.06283,0.02618,1.66853,0.00000,0.00000,0.00000,45,0,68,1,42,1,72,28,ok,2,0,0.003,12,-0.21,-0.51,11.89,66,0.139,8.01
11.8420,-0.06283,0.02618,1.66853,0.00000,0.00000,0.00000,47,0,67,0,43,1,72,29,ok,2,0,0.003,12,-0.21,-0.51,11.89,66,0.152,8.01
11.8547,-0.06283,0.02618,1.66853,0.00000,0.00000,0.00000,47,0,65,-2,44,0,73,30,ok,2,0,0.003,12,-0.21,-0.51,11.89,66,0.165,8.01
11.8748,-0.06283,0.02618,1.66853,0.00000,0.00000,0.00000,48,1,64,-4,46,0,74,29,ok,2,0,0.003,12,-0.21,-0.51,11.89,66,0.177,8.01
11.8796,-0.06283,0.02618,1.66853,0.00000,0.00000,0.00000,50,1,63,-6,47,0,76,27,ok,2,0,0.003,12,-0.21,-0.51,11.89,66,0.190,8.01
11.8923,-0.06283,0.02618,1.66853,0.00000,0.00000,0.00000,51,2,60,-7,48,1,78,21,ok,2,0,0.003,12,-0.21,-0.51,11.89,66,0.202,8.01
11.9149,-0.06807,0.00698,1.65806,0.00000,0.00000,0.00000,52,2,58,-8,49,1,79,18,ok,2,0,0.003,12,0.21,-1.44,10.79,67,0.000,8.01
11.9181,-0.06807,0.00698,1.65806,0.00000,0.00000,0.00000,52,2,56,-8,50,0,81,14,ok,2,0,0.003,12,0.21,-1.44,10.79,67,0.013,8.01
11.9306,-0.06807,0.00698,1.65806,0.00000,0.00000,0.00000,52,4,53,-9,51,0,81,14,ok,2,0,0.003,12,0.21,-1.44,10.79,67,0.026,8.01
11.9508,-0.06807,0.00698,1.65806,0.00000,0.00000,0.00000,54,5,51,-9,52,1,81,11,ok,2,0,0.003,12,0.21,-1.44,10.79,67,0.038,8.01
11.9556,-0.06807,0.00698,1.65806,0.00000,0.00000,0.00000,54,4,48,-9,53,1,81,7,ok,2,0,0.003,12,0.21,-1.44,10.79,67,0.051,8.01
11.9683,-0.06807,0.00698,1.65806,0.00000,0.00000,0.00000,55,5,45,-8,54,2,80,4,ok,2,0,0.003,12,0.21,-1.44,10.79,67,0.063,8.01
11.9908,-0.06807,0.00698,1.65806,0.00000,0.00000,0.00000,55,6,43,-9,55,1,80,3,ok,2,0,0.003,12,0.21,-1.44,10.79,67,0.076,8.01
11.9939,-0.06807,0.00698,1.65806,0.00000,0.00000,0.00000,57,6,41,-9,56,2,79,-1,ok,2,0,0.003,12,0.21,-1.44,10.79,67,0.089,8.01
12.0066,-0.06807,0.00698,1.65806,0.00000,0.00000,0.00000,58,6,38,-8,57,1,79,-3,ok,2,0,0.003,12,0.21,-1.44,10.79,67,0.102,8.01
12.0268,-0.06807,0.00698,1.65806,0.00000,0.00000,0.00000,59,7,35,-7,58,2,77,-4,ok,2,0,0.003,12,0.21,-1.44,10.79,67,0.114,8.01
12.0316,-0.06807,0.00698,1.65806,0.00000,0.00000,0.00000,59,8,32,-6,58,2,75,-6,ok,2,0,0.003,12,0.21,-1.44,10.79,67,0.127,8.01
12.0441,-0.06807,0.00698,1.65806,0.00000,0.00000,0.00000,60,8,28,-5,59,2,72,-6,ok,2,0,0.003,12,0.21,-1.44,10.79,67,0.139,8.01
12.0669,-0.06807,0.00698,1.65806,0.00000,0.00000,0.00000,61,9,25,-3,60,2,71,-8,ok,2,0,0.003,12,0.21,-1.44,10.79,67,0.152,8.01
12.0699,-0.06807,0.00698,1.65806,0.00000,0.00000,0.00000,63,10,21,-1,61,1,70,-10,ok,2,0,0.003,12,0.21,-1.44,10.79,67,0.165,8.01
12.0826,-0.06807,0.00698,1.65806,0.00000,0.00000,0.00000,63,10,19,0,64,-1,68,-11,ok,2,0,0.003,12,0.21,-1.44,10.79,67,0.178,8.01
12.1028,-0.06807,0.00698,1.65806,0.00000,0.00000,0.00000,64,11,18,2,64,0,66,-12,ok,2,0,0.003,12,0.21,-1.44,10.79,67,0.190,8.01
12.1079,-0.10297,-0.04887,1.71740,0.00000,0.00000,0.00000,64,12,16,4,65,1,64,-13,ok,2,0,0.003,12,-1.35,-0.32,10.25,68,0.000,8.01
12.1201,-0.10297,-0.04887,1.71740,0.00000,0.00000,0.00000,65,12,14,7,65,0,61,-13,ok,2,0,0.003,12,-1.35,-0.32,10.25,68,0.013,8.01
12.1429,-0.10297,-0.04887,1.71740,0.00000,0.00000,0.00000,65,14,12,11,66,1,59,-14,ok,2,0,0.003,12,-1.35,-0.32,10.25,68,0.025,8.01
12.1461,-0.10297,-0.04887,1.71740,0.00000,0.00000,0.00000,66,14,10,13,67,1,56,-12,ok,2,0,0.003,12,-1.35,-0.32,10.25,68,0.038,8.01
12.1586,-0.10297,-0.04887,1.71740,0.00000,0.00000,0.00000,66,15,12,13,67,1,53,-12,ok,2,0,0.003,12,-1.35,-0.32,10.25,68,0.051,8.01
12.1788,-0.10297,-0.04887,1.71740,0.00000,0.00000,0.00000,66,16,12,13,68,1,51,-11,ok,2,0,0.003,12,-1.35,-0.32,10.25,68,0.064,8.01
12.1836,-0.10297,-0.04887,1.71740,0.00000,0.00000,0.00000,67,17,14,12,68,2,48,-11,ok,2,0,0.004,12,-1.35,-0.32,10.25,68,0.076,8.01
12.1961,-0.10297,-0.04887,1.71740,0.00000,0.00000,0.00000,67,18,15,11,68,2,46,-10,ok,2,0,0.004,12,-1.35,-0.32,10.25,68,0.089,8.01
12.2189,-0.10297,-0.04887,1.71740,0.00000,0.00000,0.00000,68,18,15,11,68,3,42,-9,ok,2,0,0.004,12,-1.35,-0.32,10.25,68,0.101,8.01
12.2220,-0.10297,-0.04887,1.71740,0.00000,0.00000,0.00000,68,19,17,10,69,4,40,-8,ok,2,0,0.004,12,-1.35,-0.32,10.25,68,0.114,8.01
12.2348,-0.10297,-0.04887,1.71740,0.00000,0.00000,0.00000,68,20,17,9,69,5,36,-6,ok,2,0,0.004,12,-1.35,-0.32,10.25,68,0.127,8.01
