# run_gait log  cmd_fwd=0.100 hz=80.0 fw_balance=off policy_yaw_sign=-1
t,roll,pitch,yaw,gx,gy,gz,j0,j1,j2,j3,j4,j5,j6,j7,guard_state,hottest_j,hottest_tier,hottest_frac,duty_s,ax,ay,az,imu_n,imu_age_s,volt
0.0309,-0.02269,0.01222,0.00000,0.00000,0.00000,0.00000,21,-1,59,7,66,-12,61,0,ok,4,0,0.000,0,0.10,-0.29,9.99,8,0.021,nan
0.0344,-0.02269,0.01222,0.00000,0.00000,0.00000,0.00000,19,0,61,8,64,-12,63,-1,ok,4,0,0.000,0,0.10,-0.29,9.99,8,0.043,nan
0.0473,-0.02269,0.01222,0.00000,0.00000,0.00000,0.00000,17,2,61,9,61,-13,64,0,ok,4,0,0.000,0,0.10,-0.29,9.99,8,0.055,8.36
0.0669,-0.02269,0.01222,0.00000,0.00000,0.00000,0.00000,15,6,62,9,59,-13,64,0,ok,4,0,0.000,0,0.10,-0.29,9.99,8,0.068,8.36
0.0722,-0.02618,0.00698,0.00000,0.00000,0.00000,0.00000,13,9,62,11,56,-13,65,1,ok,4,0,0.000,0,0.02,-0.33,9.89,9,0.000,8.36
0.0843,-0.02618,0.00698,0.00000,0.00000,0.00000,0.00000,11,11,63,11,53,-12,65,1,ok,4,0,0.000,0,0.02,-0.33,9.89,9,0.013,8.36
0.1069,-0.02618,0.00698,0.00000,0.00000,0.00000,0.00000,13,12,63,12,51,-12,66,2,ok,4,0,0.000,0,0.02,-0.33,9.89,9,0.025,8.36
0.1102,-0.02618,0.00698,0.00000,0.00000,0.00000,0.00000,13,11,63,13,48,-12,66,2,ok,4,0,0.000,0,0.02,-0.33,9.89,9,0.038,8.36
0.1227,-0.02618,0.00698,0.00000,0.00000,0.00000,0.00000,14,10,64,14,45,-12,66,3,ok,4,0,0.000,0,0.02,-0.33,9.89,9,0.051,8.36
0.1429,-0.02618,0.00698,0.00000,0.00000,0.00000,0.00000,15,9,64,15,42,-11,67,3,ok,4,0,0.000,0,0.02,-0.33,9.89,9,0.064,8.36
0.1477,-0.02618,0.00698,0.00000,0.00000,0.00000,0.00000,16,9,65,15,39,-10,68,4,ok,4,0,0.000,0,0.02,-0.33,9.89,9,0.076,8.36
0.1602,-0.02618,0.00698,0.00000,0.00000,0.00000,0.00000,18,8,65,16,36,-8,68,4,ok,4,0,0.000,0,0.02,-0.33,9.89,9,0.089,8.36
0.1828,-0.02618,0.00698,0.00000,0.00000,0.00000,0.00000,18,7,65,17,34,-7,69,5,ok,4,0,0.000,0,0.02,-0.33,9.89,9,0.101,8.36
0.1860,-0.02618,0.00698,0.00000,0.00000,0.00000,0.00000,21,6,66,18,32,-6,69,6,ok,4,0,0.000,0,0.02,-0.33,9.89,9,0.114,8.36
0.1986,-0.02618,0.00698,0.00000,0.00000,0.00000,0.00000,22,5,66,19,30,-2,70,6,ok,4,0,0.000,0,0.02,-0.33,9.89,9,0.127,8.36
0.2188,-0.02618,0.00698,0.00000,0.00000,0.00000,0.00000,23,5,66,21,29,0,70,8,ok,4,0,0.000,0,0.02,-0.33,9.89,9,0.139,8.36
0.2238,-0.02618,0.00698,0.00000,0.00000,0.00000,0.00000,24,4,66,22,27,4,70,9,ok,4,0,0.000,0,0.02,-0.33,9.89,9,0.152,8.36
0.2361,-0.02618,0.00698,0.00000,0.00000,0.00000,0.00000,25,4,66,23,27,6,71,9,ok,4,0,0.000,0,0.02,-0.33,9.89,9,0.164,8.36
0.2588,-0.02618,0.00698,0.00000,0.00000,0.00000,0.00000,27,4,65,26,29,5,71,10,ok,4,0,0.000,0,0.02,-0.33,9.89,9,0.177,8.36
0.2619,-0.02618,0.00698,0.00000,0.00000,0.00000,0.00000,28,3,64,28,29,6,72,11,ok,4,0,0.000,0,0.02,-0.33,9.89,9,0.190,8.36
0.2747,-0.02618,0.00698,0.00000,0.00000,0.00000,0.00000,29,3,66,26,30,4,72,12,ok,4,0,0.000,0,0.02,-0.33,9.89,9,0.203,8.36
0.2948,-0.07854,-0.10123,0.01047,0.00000,0.00000,0.00000,30,2,69,24,31,3,73,13,ok,4,0,0.000,0,-0.64,-0.95,10.00,10,0.000,8.36
0.2996,-0.07854,-0.10123,0.01047,0.00000,0.00000,0.00000,31,1,72,20,32,3,73,14,ok,4,0,0.000,0,-0.64,-0.95,10.00,10,0.012,8.36
0.3121,-0.07854,-0.10123,0.01047,0.00000,0.00000,0.00000,32,0,73,17,33,3,73,16,ok,4,0,0.000,0,-0.64,-0.95,10.00,10,0.025,8.36
0.3348,-0.07854,-0.10123,0.01047,0.00000,0.00000,0.00000,33,0,73,15,35,1,73,18,ok,4,0,0.000,0,-0.64,-0.95,10.00,10,0.037,8.36
0.3381,-0.07854,-0.10123,0.01047,0.00000,0.00000,0.00000,34,-1,73,15,37,2,74,19,ok,4,0,0.000,0,-0.64,-0.95,10.00,10,0.051,8.36
0.3506,-0.07854,-0.10123,0.01047,0.00000,0.00000,0.00000,36,-1,74,12,37,2,73,21,ok,4,0,0.000,0,-0.64,-0.95,10.00,10,0.064,8.36
0.3709,-0.07854,-0.10123,0.01047,0.00000,0.00000,0.00000,37,-1,73,9,39,2,72,22,ok,4,0,0.000,0,-0.64,-0.95,10.00,10,0.076,8.36
0.3756,-0.07854,-0.10123,0.01047,0.00000,0.00000,0.00000,38,-1,73,6,40,1,73,23,ok,4,0,0.000,0,-0.64,-0.95,10.00,10,0.088,8.36
0.3883,-0.07854,-0.10123,0.01047,0.00000,0.00000,0.00000,39,-2,72,3,41,1,72,25,ok,4,0,0.000,0,-0.64,-0.95,10.00,10,0.101,8.36
0.4108,-0.07854,-0.10123,0.01047,0.00000,0.00000,0.00000,40,-2,71,2,42,0,72,27,ok,4,0,0.000,0,-0.64,-0.95,10.00,10,0.114,8.36
0.4139,-0.07854,-0.10123,0.01047,0.00000,0.00000,0.00000,42,-2,70,0,43,0,71,28,ok,4,0,0.000,0,-0.64,-0.95,10.00,10,0.127,8.36
0.4266,-0.07854,-0.10123,0.01047,0.00000,0.00000,0.00000,42,-2,67,-2,44,-1,72,28,ok,4,0,0.000,0,-0.64,-0.95,10.00,10,0.139,8.36
0.4468,-0.07854,-0.10123,0.01047,0.00000,0.00000,0.00000,44,-1,66,-4,46,-2,73,28,ok,4,0,0.000,0,-0.64,-0.95,10.00,10,0.152,8.36
0.4518,-0.07854,-0.10123,0.01047,0.00000,0.00000,0.00000,45,-1,65,-6,47,-2,75,25,ok,4,0,0.000,0,-0.64,-0.95,10.00,10,0.164,8.36
0.4641,-0.07854,-0.10123,0.01047,0.00000,0.00000,0.00000,47,0,63,-7,48,-2,76,20,ok,4,0,0.000,0,-0.64,-0.95,10.00,10,0.177,8.36
0.4868,-0.07854,-0.10123,0.01047,0.00000,0.00000,0.00000,48,0,61,-8,49,-2,78,17,ok,4,0,0.000,0,-0.64,-0.95,10.00,10,0.189,8.36
0.4902,-0.07854,-0.00175,0.06807,0.00000,0.00000,0.00000,49,0,58,-9,50,-1,79,14,ok,4,0,0.000,0,0.29,-0.09,11.00,11,0.000,8.36
0.5029,-0.07854,-0.00175,0.06807,0.00000,0.00000,0.00000,49,3,55,-10,52,-1,79,13,ok,4,0,0.000,0,0.29,-0.09,11.00,11,0.013,8.36
0.5228,-0.07854,-0.00175,0.06807,0.00000,0.00000,0.00000,51,4,52,-10,53,0,79,10,ok,4,0,0.000,1,0.29,-0.09,11.00,11,0.025,8.36
0.5277,-0.07854,-0.00175,0.06807,0.00000,0.00000,0.00000,51,4,49,-10,55,0,79,7,ok,4,0,0.000,1,0.29,-0.09,11.00,11,0.038,8.36
0.5401,-0.07854,-0.00175,0.06807,0.00000,0.00000,0.00000,53,5,46,-10,56,0,78,4,ok,4,0,0.000,1,0.29,-0.09,11.00,11,0.050,8.36
0.5628,-0.07854,-0.00175,0.06807,0.00000,0.00000,0.00000,53,6,43,-10,57,0,78,2,ok,4,0,0.000,1,0.29,-0.09,11.00,11,0.063,8.36
0.5661,-0.07854,-0.00175,0.06807,0.00000,0.00000,0.00000,55,6,41,-10,58,1,77,-1,ok,4,0,0.000,1,0.29,-0.09,11.00,11,0.076,8.36
0.5787,-0.07854,-0.00175,0.06807,0.00000,0.00000,0.00000,55,6,39,-9,59,0,77,-3,ok,4,0,0.000,1,0.29,-0.09,11.00,11,0.089,8.36
0.5988,-0.07854,-0.00175,0.06807,0.00000,0.00000,0.00000,57,6,36,-8,59,1,76,-4,ok,4,0,0.000,1,0.29,-0.09,11.00,11,0.101,8.36
0.6036,-0.07854,-0.00175,0.06807,0.00000,0.00000,0.00000,57,7,33,-7,60,1,74,-7,ok,4,0,0.000,1,0.29,-0.09,11.00,11,0.114,8.36
0.6162,-0.07854,-0.00175,0.06807,0.00000,0.00000,0.00000,58,7,29,-6,60,1,72,-7,ok,2,0,0.000,1,0.29,-0.09,11.00,11,0.126,8.36
0.6388,-0.07854,-0.00175,0.06807,0.00000,0.00000,0.00000,59,8,27,-4,61,1,70,-8,ok,2,0,0.000,1,0.29,-0.09,11.00,11,0.139,8.36
0.6419,-0.07854,-0.00175,0.06807,0.00000,0.00000,0.00000,60,10,22,-2,62,1,69,-10,ok,2,0,0.000,1,0.29,-0.09,11.00,11,0.152,8.36
0.6546,-0.07854,-0.00175,0.06807,0.00000,0.00000,0.00000,60,10,21,-1,64,-1,67,-11,ok,2,0,0.000,1,0.29,-0.09,11.00,11,0.165,8.36
0.6748,-0.07854,-0.00175,0.06807,0.00000,0.00000,0.00000,61,10,19,0,65,0,65,-13,ok,2,0,0.000,1,0.29,-0.09,11.00,11,0.177,8.36
0.6797,-0.07854,-0.00175,0.06807,0.00000,0.00000,0.00000,62,11,17,3,66,0,63,-13,ok,2,0,0.000,1,0.29,-0.09,11.00,11,0.190,8.36
0.6923,-0.03840,-0.00873,0.09076,0.00000,0.00000,0.00000,62,12,15,6,67,0,60,-14,ok,2,0,0.000,1,0.19,-0.10,8.74,12,0.000,8.36
0.7148,-0.03840,-0.00873,0.09076,0.00000,0.00000,0.00000,62,13,13,10,67,1,59,-15,ok,2,0,0.000,1,0.19,-0.10,8.74,12,0.013,8.36
0.7180,-0.03840,-0.00873,0.09076,0.00000,0.00000,0.00000,62,14,12,12,68,0,55,-13,ok,2,0,0.000,1,0.19,-0.10,8.74,12,0.026,8.36
0.7306,-0.03840,-0.00873,0.09076,0.00000,0.00000,0.00000,63,15,13,13,68,1,53,-13,ok,2,0,0.000,1,0.19,-0.10,8.74,12,0.038,8.36
0.7508,-0.03840,-0.00873,0.09076,0.00000,0.00000,0.00000,63,16,13,13,69,1,50,-12,ok,2,0,0.000,1,0.19,-0.10,8.74,12,0.051,8.36
0.7558,-0.03840,-0.00873,0.09076,0.00000,0.00000,0.00000,64,16,14,12,69,1,47,-11,ok,2,0,0.000,1,0.19,-0.10,8.74,12,0.063,8.36
0.7681,-0.03840,-0.00873,0.09076,0.00000,0.00000,0.00000,64,18,15,10,69,2,45,-10,ok,2,0,0.000,1,0.19,-0.10,8.74,12,0.076,8.36
0.7908,-0.03840,-0.00873,0.09076,0.00000,0.00000,0.00000,65,18,16,10,69,2,41,-9,ok,2,0,0.000,1,0.19,-0.10,8.74,12,0.088,8.36
0.7941,-0.03840,-0.00873,0.09076,0.00000,0.00000,0.00000,66,19,17,9,70,3,39,-9,ok,2,0,0.000,1,0.19,-0.10,8.74,12,0.102,8.36
0.8067,-0.03840,-0.00873,0.09076,0.00000,0.00000,0.00000,66,20,18,8,70,4,35,-7,ok,2,0,0.000,1,0.19,-0.10,8.74,12,0.115,8.36
0.8268,-0.03840,-0.00873,0.09076,0.00000,0.00000,0.00000,67,21,20,7,71,5,34,-5,ok,2,0,0.000,1,0.19,-0.10,8.74,12,0.127,8.36
0.8317,-0.03840,-0.00873,0.09076,0.00000,0.00000,0.00000,67,22,21,7,71,6,32,-4,ok,2,0,0.000,1,0.19,-0.10,8.74,12,0.139,8.36
0.8441,-0.03840,-0.00873,0.09076,0.00000,0.00000,0.00000,66,23,22,6,71,7,30,-1,ok,2,0,0.000,1,0.19,-0.10,8.74,12,0.152,8.36
0.8668,-0.03840,-0.00873,0.09076,0.00000,0.00000,0.00000,66,24,24,6,72,8,28,2,ok,2,0,0.000,1,0.19,-0.10,8.74,12,0.165,8.36
0.8699,-0.03840,-0.00873,0.09076,0.00000,0.00000,0.00000,66,25,25,5,72,9,27,5,ok,2,0,0.000,1,0.19,-0.10,8.74,12,0.178,8.36
0.8828,-0.03840,-0.00873,0.09076,0.00000,0.00000,0.00000,65,28,26,5,72,10,27,7,ok,2,0,0.000,1,0.19,-0.10,8.74,12,0.190,8.36
0.9028,-0.05236,0.03316,0.13963,0.00000,0.00000,0.00000,64,29,27,3,72,12,29,6,ok,2,0,0.000,1,1.04,-1.09,10.87,13,0.000,8.36
0.9076,-0.05236,0.03316,0.13963,0.00000,0.00000,0.00000,66,28,28,3,72,13,29,6,ok,2,0,0.000,1,1.04,-1.09,10.87,13,0.012,8.36
0.9201,-0.05236,0.03316,0.13963,0.00000,0.00000,0.00000,68,25,30,3,72,14,30,4,ok,2,0,0.000,1,1.04,-1.09,10.87,13,0.025,8.36
0.9428,-0.05236,0.03316,0.13963,0.00000,0.00000,0.00000,70,21,31,2,72,15,31,3,ok,2,0,0.000,1,1.04,-1.09,10.87,13,0.037,8.36
0.9460,-0.05236,0.03316,0.13963,0.00000,0.00000,0.00000,71,17,33,2,72,18,33,3,ok,2,0,0.000,1,1.04,-1.09,10.87,13,0.051,8.36
0.9589,-0.05236,0.03316,0.13963,0.00000,0.00000,0.00000,71,15,34,2,72,18,34,2,ok,2,0,0.000,1,1.04,-1.09,10.87,13,0.064,8.36
0.9788,-0.05236,0.03316,0.13963,0.00000,0.00000,0.00000,71,14,35,1,71,21,36,1,ok,2,0,0.000,1,1.04,-1.09,10.87,13,0.076,8.36
0.9837,-0.05236,0.03316,0.13963,0.00000,0.00000,0.00000,71,11,36,1,71,22,38,1,ok,2,0,0.000,1,1.04,-1.09,10.87,13,0.089,8.36
0.9961,-0.05236,0.03316,0.13963,0.00000,0.00000,0.00000,70,7,38,1,72,24,38,2,ok,2,0,0.000,1,1.04,-1.09,10.87,13,0.101,8.36
1.0188,-0.05236,0.03316,0.13963,0.00000,0.00000,0.00000,69,5,39,1,72,25,40,1,ok,2,0,0.000,1,1.04,-1.09,10.87,13,0.114,8.36
1.0221,-0.05236,0.03316,0.13963,0.00000,0.00000,0.00000,68,1,41,1,71,27,41,1,ok,2,0,0.000,1,1.04,-1.09,10.87,13,0.127,8.36
1.0346,-0.05236,0.03316,0.13963,0.00000,0.00000,0.00000,67,-1,42,1,71,29,42,1,ok,2,0,0.000,1,1.04,-1.09,10.87,13,0.139,8.36
1.0548,-0.05236,0.03316,0.13963,0.00000,0.00000,0.00000,66,-3,44,1,71,29,43,1,ok,2,0,0.000,1,1.04,-1.09,10.87,13,0.152,8.36
1.0596,-0.05236,0.03316,0.13963,0.00000,0.00000,0.00000,64,-4,44,1,73,28,45,1,ok,2,0,0.000,1,1.04,-1.09,10.87,13,0.164,8.36
1.0721,-0.05236,0.03316,0.13963,0.00000,0.00000,0.00000,63,-6,46,2,74,26,46,0,ok,2,0,0.000,1,1.04,-1.09,10.87,13,0.177,8.36
1.0948,0.06632,0.04189,0.19722,0.00000,0.00000,0.00000,62,-8,47,2,76,21,47,0,ok,2,0,0.000,1,0.41,1.38,9.95,14,0.000,8.36
1.0981,0.06632,0.04189,0.19722,0.00000,0.00000,0.00000,59,-9,48,3,77,17,48,0,ok,2,0,0.000,1,0.41,1.38,9.95,14,0.013,8.36
1.1106,0.06632,0.04189,0.19722,0.00000,0.00000,0.00000,57,-10,50,3,79,14,49,0,ok,2,0,0.000,1,0.41,1.38,9.95,14,0.026,8.36
1.1308,0.06632,0.04189,0.19722,0.00000,0.00000,0.00000,55,-11,51,2,79,14,49,0,ok,2,0,0.000,1,0.41,1.38,9.95,14,0.039,8.36
1.1356,0.06632,0.04189,0.19722,0.00000,0.00000,0.00000,52,-12,51,4,79,11,51,0,ok,2,0,0.000,1,0.41,1.38,9.95,14,0.051,8.36
1.1481,0.06632,0.04189,0.19722,0.00000,0.00000,0.00000,50,-11,52,5,79,8,51,0,ok,2,0,0.000,1,0.41,1.38,9.95,14,0.064,8.36
1.1708,0.06632,0.04189,0.19722,0.00000,0.00000,0.00000,47,-11,53,5,79,5,53,0,ok,2,0,0.000,1,0.41,1.38,9.95,14,0.076,8.36
1.1739,0.06632,0.04189,0.19722,0.00000,0.00000,0.00000,45,-11,53,6,78,2,53,0,ok,2,0,0.000,1,0.41,1.38,9.95,14,0.089,8.36
1.1868,0.06632,0.04189,0.19722,0.00000,0.00000,0.00000,42,-11,54,6,77,-1,54,0,ok,2,0,0.000,1,0.41,1.38,9.95,14,0.102,8.36
1.2068,0.06632,0.04189,0.19722,0.00000,0.00000,0.00000,40,-11,56,7,76,-3,55,0,ok,2,0,0.000,1,0.41,1.38,9.95,14,0.115,8.36
1.2116,0.06632,0.04189,0.19722,0.00000,0.00000,0.00000,38,-10,56,7,75,-5,56,0,ok,2,0,0.000,1,0.41,1.38,9.95,14,0.127,8.36
1.2240,0.06632,0.04189,0.19722,0.00000,0.00000,0.00000,35,-9,57,7,74,-8,57,-1,ok,2,0,0.000,1,0.41,1.38,9.95,14,0.140,8.36
1.2468,0.06632,0.04189,0.19722,0.00000,0.00000,0.00000,32,-8,57,8,71,-7,57,0,ok,2,0,0.000,1,0.41,1.38,9.95,14,0.152,8.36
1.2499,0.06632,0.04189,0.19722,0.00000,0.00000,0.00000,29,-6,58,8,70,-9,58,0,ok,2,0,0.000,1,0.41,1.38,9.95,14,0.165,8.36
1.2627,0.06632,0.04189,0.19722,0.00000,0.00000,0.00000,26,-4,59,9,69,-11,59,0,ok,2,0,0.000,1,0.41,1.38,9.95,14,0.178,8.36
1.2828,0.06632,0.04189,0.19722,0.00000,0.00000,0.00000,22,-2,60,10,66,-12,60,0,ok,2,0,0.000,1,0.41,1.38,9.95,14,0.191,8.36
1.2879,0.02618,-0.05061,0.19199,0.00000,0.00000,0.00000,20,-1,61,11,64,-13,61,0,ok,2,0,0.000,1,0.51,0.93,9.93,15,0.000,8.36
1.3001,0.02618,-0.05061,0.19199,0.00000,0.00000,0.00000,19,0,62,11,62,-13,63,-3,ok,2,0,0.000,1,0.51,0.93,9.93,15,0.013,8.36
1.3228,0.02618,-0.05061,0.19199,0.00000,0.00000,0.00000,17,3,62,12,60,-14,63,-1,ok,2,0,0.000,1,0.51,0.93,9.93,15,0.025,8.36
1.3259,0.02618,-0.05061,0.19199,0.00000,0.00000,0.00000,14,6,63,13,58,-15,64,-2,ok,2,0,0.000,1,0.51,0.93,9.93,15,0.038,8.36
1.3387,0.02618,-0.05061,0.19199,0.00000,0.00000,0.00000,12,10,63,14,55,-14,65,-1,ok,2,0,0.000,1,0.51,0.93,9.93,15,0.051,8.36
1.3588,0.02618,-0.05061,0.19199,0.00000,0.00000,0.00000,11,12,64,15,52,-13,65,-1,ok,2,0,0.000,1,0.51,0.93,9.93,15,0.064,8.36
1.3638,0.02618,-0.05061,0.19199,0.00000,0.00000,0.00000,12,13,64,16,50,-13,66,0,ok,2,0,0.000,1,0.51,0.93,9.93,15,0.076,8.36
1.3761,0.02618,-0.05061,0.19199,0.00000,0.00000,0.00000,12,13,64,17,47,-12,67,-1,ok,2,0,0.000,1,0.51,0.93,9.93,15,0.089,8.36
1.3989,0.02618,-0.05061,0.19199,0.00000,0.00000,0.00000,14,12,65,17,44,-12,68,0,ok,2,0,0.000,1,0.51,0.93,9.93,15,0.101,8.36
1.4020,0.02618,-0.05061,0.19199,0.00000,0.00000,0.00000,15,12,65,18,41,-10,69,0,ok,2,0,0.000,1,0.51,0.93,9.93,15,0.115,8.36
1.4147,0.02618,-0.05061,0.19199,0.00000,0.00000,0.00000,16,11,66,19,38,-10,69,1,ok,4,0,0.000,1,0.51,0.93,9.93,15,0.127,8.36
1.4348,0.02618,-0.05061,0.19199,0.00000,0.00000,0.00000,18,10,66,19,35,-8,69,2,ok,4,0,0.000,1,0.51,0.93,9.93,15,0.140,8.36
1.4397,0.02618,-0.05061,0.19199,0.00000,0.00000,0.00000,18,10,66,21,33,-7,70,3,ok,4,0,0.000,1,0.51,0.93,9.93,15,0.152,8.36
1.4523,0.02618,-0.05061,0.19199,0.00000,0.00000,0.00000,20,9,66,21,31,-6,70,4,ok,4,0,0.000,1,0.51,0.93,9.93,15,0.165,8.36
1.4749,0.02618,-0.05061,0.19199,0.00000,0.00000,0.00000,21,8,66,22,29,-2,71,4,ok,4,0,0.000,1,0.51,0.93,9.93,15,0.177,8.36
1.4779,0.02618,-0.05061,0.19199,0.00000,0.00000,0.00000,23,7,66,23,28,0,71,6,ok,4,0,0.000,1,0.51,0.93,9.93,15,0.190,8.36
1.4909,-0.08727,-0.03316,0.21817,0.00000,0.00000,0.00000,24,6,66,24,27,3,71,7,ok,4,0,0.000,1,0.55,-0.75,9.70,16,0.000,8.36
1.5108,-0.08727,-0.03316,0.21817,0.00000,0.00000,0.00000,25,6,65,25,26,6,72,8,ok,4,0,0.000,1,0.55,-0.75,9.70,16,0.013,8.36
1.5158,-0.08727,-0.03316,0.21817,0.00000,0.00000,0.00000,27,5,64,28,28,5,72,9,ok,4,0,0.000,1,0.55,-0.75,9.70,16,0.025,8.36
1.5282,-0.08727,-0.03316,0.21817,0.00000,0.00000,0.00000,28,4,64,29,28,5,72,11,ok,4,0,0.000,1,0.55,-0.75,9.70,16,0.038,8.36
1.5509,-0.08727,-0.03316,0.21817,0.00000,0.00000,0.00000,29,4,65,28,30,2,72,12,ok,4,0,0.000,2,0.55,-0.75,9.70,16,0.050,8.36
1.5541,-0.08727,-0.03316,0.21817,0.00000,0.00000,0.00000,30,3,68,25,31,2,73,14,ok,4,0,0.000,2,0.55,-0.75,9.70,16,0.063,8.36
1.5669,-0.08727,-0.03316,0.21817,0.00000,0.00000,0.00000,31,3,70,21,32,2,73,15,ok,4,0,0.000,2,0.55,-0.75,9.70,16,0.076,8.36
1.5869,-0.08727,-0.03316,0.21817,0.00000,0.00000,0.00000,33,2,71,17,33,1,72,17,ok,4,0,0.000,2,0.55,-0.75,9.70,16,0.089,8.36
1.5917,-0.08727,-0.03316,0.21817,0.00000,0.00000,0.00000,34,2,72,15,34,0,72,19,ok,4,0,0.000,2,0.55,-0.75,9.70,16,0.101,8.36
1.6041,-0.08727,-0.03316,0.21817,0.00000,0.00000,0.00000,36,1,72,14,37,1,73,20,ok,4,0,0.000,2,0.55,-0.75,9.70,16,0.114,8.36
1.6268,-0.08727,-0.03316,0.21817,0.00000,0.00000,0.00000,37,1,72,11,37,1,72,22,ok,4,0,0.000,2,0.55,-0.75,9.70,16,0.126,8.36
1.6301,-0.08727,-0.03316,0.21817,0.00000,0.00000,0.00000,39,1,71,8,39,1,71,23,ok,4,0,0.000,2,0.55,-0.75,9.70,16,0.139,8.36
1.6426,-0.08727,-0.03316,0.21817,0.00000,0.00000,0.00000,40,1,71,5,41,0,72,24,ok,4,0,0.000,2,0.55,-0.75,9.70,16,0.152,8.36
1.6628,-0.08727,-0.03316,0.21817,0.00000,0.00000,0.00000,41,0,70,3,41,1,72,26,ok,4,0,0.000,2,0.55,-0.75,9.70,16,0.165,8.36
1.6677,-0.08727,-0.03316,0.21817,0.00000,0.00000,0.00000,43,0,69,1,43,0,71,27,ok,4,0,0.000,2,0.55,-0.75,9.70,16,0.177,8.36
1.6803,-0.08727,-0.03316,0.21817,0.00000,0.00000,0.00000,44,0,68,-1,44,0,71,29,ok,4,0,0.000,2,0.55,-0.75,9.70,16,0.190,8.36
1.7028,-0.08378,-0.01920,0.21118,0.00000,0.00000,0.00000,44,0,66,-2,45,-1,72,29,ok,4,0,0.000,2,-1.18,-0.74,10.59,17,0.000,8.36
1.7059,-0.08378,-0.01920,0.21118,0.00000,0.00000,0.00000,46,1,65,-4,47,-1,73,28,ok,4,0,0.001,2,-1.18,-0.74,10.59,17,0.013,8.36
1.7186,-0.08378,-0.01920,0.21118,0.00000,0.00000,0.00000,47,1,64,-6,48,-1,75,26,ok,4,0,0.001,2,-1.18,-0.74,10.59,17,0.026,8.36
1.7388,-0.08378,-0.01920,0.21118,0.00000,0.00000,0.00000,49,2,61,-7,49,-1,77,20,ok,4,0,0.001,2,-1.18,-0.74,10.59,17,0.039,8.36
1.7437,-0.08378,-0.01920,0.21118,0.00000,0.00000,0.00000,50,1,59,-9,49,-1,78,17,ok,4,0,0.001,2,-1.18,-0.74,10.59,17,0.051,8.36
1.7561,-0.08378,-0.01920,0.21118,0.00000,0.00000,0.00000,50,2,57,-9,51,0,80,13,ok,4,0,0.001,2,-1.18,-0.74,10.59,17,0.064,8.36
1.7788,-0.08378,-0.01920,0.21118,0.00000,0.00000,0.00000,50,4,54,-10,52,0,80,13,ok,4,0,0.001,2,-1.18,-0.74,10.59,17,0.076,8.36
1.7819,-0.08378,-0.01920,0.21118,0.00000,0.00000,0.00000,51,5,51,-10,53,0,80,10,ok,4,0,0.001,2,-1.18,-0.74,10.59,17,0.089,8.36
1.7948,-0.08378,-0.01920,0.21118,0.00000,0.00000,0.00000,52,4,49,-10,54,0,80,7,ok,4,0,0.001,2,-1.18,-0.74,10.59,17,0.102,8.36
1.8148,-0.08378,-0.01920,0.21118,0.00000,0.00000,0.00000,53,5,46,-9,55,1,79,3,ok,2,0,0.001,2,-1.18,-0.74,10.59,17,0.115,8.36
1.8196,-0.08378,-0.01920,0.21118,0.00000,0.00000,0.00000,53,6,43,-9,56,0,79,2,ok,2,0,0.001,2,-1.18,-0.74,10.59,17,0.127,8.36
1.8321,-0.08378,-0.01920,0.21118,0.00000,0.00000,0.00000,55,6,41,-10,57,1,78,-2,ok,2,0,0.001,2,-1.18,-0.74,10.59,17,0.140,8.36
1.8548,-0.08378,-0.01920,0.21118,0.00000,0.00000,0.00000,55,6,39,-9,58,0,78,-4,ok,2,0,0.001,2,-1.18,-0.74,10.59,17,0.152,8.36
1.8580,-0.08378,-0.01920,0.21118,0.00000,0.00000,0.00000,57,7,36,-7,59,1,76,-5,ok,2,0,0.001,2,-1.18,-0.74,10.59,17,0.165,8.36
1.8706,-0.08378,-0.01920,0.21118,0.00000,0.00000,0.00000,57,8,33,-6,59,1,74,-7,ok,2,0,0.001,2,-1.18,-0.74,10.59,17,0.178,8.36
1.8908,-0.08378,-0.01920,0.21118,0.00000,0.00000,0.00000,58,8,29,-5,60,1,71,-7,ok,2,0,0.001,2,-1.18,-0.74,10.59,17,0.191,8.36
1.8959,-0.06458,0.02967,0.23038,0.00000,0.00000,0.00000,59,9,26,-3,61,1,70,-9,ok,2,0,0.001,2,0.41,-0.59,9.23,18,0.000,8.36
1.9081,-0.06458,0.02967,0.23038,0.00000,0.00000,0.00000,60,10,22,-1,62,0,69,-11,ok,2,0,0.001,2,0.41,-0.59,9.23,18,0.013,8.36
1.9308,-0.06458,0.02967,0.23038,0.00000,0.00000,0.00000,61,10,20,0,64,-2,67,-12,ok,2,0,0.001,2,0.41,-0.59,9.23,18,0.025,8.36
1.9339,-0.06458,0.02967,0.23038,0.00000,0.00000,0.00000,62,11,18,1,65,-1,65,-13,ok,2,0,0.001,2,0.41,-0.59,9.23,18,0.038,8.36
1.9466,-0.06458,0.02967,0.23038,0.00000,0.00000,0.00000,62,12,16,3,65,0,63,-14,ok,2,0,0.001,2,0.41,-0.59,9.23,18,0.051,8.36
1.9668,-0.06458,0.02967,0.23038,0.00000,0.00000,0.00000,63,12,14,6,66,0,60,-14,ok,2,0,0.001,2,0.41,-0.59,9.23,18,0.063,8.36
1.9716,-0.06458,0.02967,0.23038,0.00000,0.00000,0.00000,63,14,13,10,66,0,58,-15,ok,2,0,0.001,2,0.41,-0.59,9.23,18,0.076,8.36
1.9841,-0.06458,0.02967,0.23038,0.00000,0.00000,0.00000,64,14,11,12,67,0,55,-13,ok,2,0,0.001,2,0.41,-0.59,9.23,18,0.088,8.36
2.0068,-0.06458,0.02967,0.23038,0.00000,0.00000,0.00000,64,15,13,12,68,0,53,-13,ok,2,0,0.001,2,0.41,-0.59,9.23,18,0.101,8.36
2.0101,-0.06458,0.02967,0.23038,0.00000,0.00000,0.00000,64,16,12,12,69,1,50,-12,ok,2,0,0.001,2,0.41,-0.59,9.23,18,0.114,8.36
2.0226,-0.06458,0.02967,0.23038,0.00000,0.00000,0.00000,65,17,14,11,69,1,47,-11,ok,2,0,0.001,2,0.41,-0.59,9.23,18,0.127,8.36
2.0428,-0.06458,0.02967,0.23038,0.00000,0.00000,0.00000,65,17,15,10,69,2,45,-11,ok,2,0,0.001,2,0.41,-0.59,9.23,18,0.139,8.36
2.0476,-0.06458,0.02967,0.23038,0.00000,0.00000,0.00000,66,18,16,10,69,3,41,-9,ok,2,0,0.001,2,0.41,-0.59,9.23,18,0.152,8.36
2.0600,-0.06458,0.02967,0.23038,0.00000,0.00000,0.00000,66,18,17,9,70,3,39,-9,ok,2,0,0.001,2,0.41,-0.59,9.23,18,0.164,8.36
2.0828,-0.06458,0.02967,0.23038,0.00000,0.00000,0.00000,66,20,18,8,70,4,35,-7,ok,2,0,0.001,2,0.41,-0.59,9.23,18,0.177,8.36
2.0859,-0.06458,0.02967,0.23038,0.00000,0.00000,0.00000,67,21,20,7,71,5,34,-5,ok,2,0,0.001,2,0.41,-0.59,9.23,18,0.190,8.36
2.0989,-0.03316,0.05934,0.23911,0.00000,0.00000,0.00000,67,22,21,6,71,6,32,-4,ok,2,0,0.001,2,0.90,-0.28,9.79,19,0.000,8.36
2.1188,-0.03316,0.05934,0.23911,0.00000,0.00000,0.00000,66,23,22,6,71,7,30,-1,ok,2,0,0.001,2,0.90,-0.28,9.79,19,0.013,8.36
2.1238,-0.03316,0.05934,0.23911,0.00000,0.00000,0.00000,66,24,23,5,72,8,28,2,ok,2,0,0.001,2,0.90,-0.28,9.79,19,0.025,8.36
2.1361,-0.03316,0.05934,0.23911,0.00000,0.00000,0.00000,66,25,25,5,72,9,27,5,ok,2,0,0.001,2,0.90,-0.28,9.79,19,0.038,8.36
2.1589,-0.03316,0.05934,0.23911,0.00000,0.00000,0.00000,65,28,26,4,72,10,27,7,ok,2,0,0.001,2,0.90,-0.28,9.79,19,0.050,8.36
2.1619,-0.03316,0.05934,0.23911,0.00000,0.00000,0.00000,64,29,27,3,72,12,29,6,ok,2,0,0.001,2,0.90,-0.28,9.79,19,0.063,8.36
2.1748,-0.03316,0.05934,0.23911,0.00000,0.00000,0.00000,66,28,28,3,72,13,29,6,ok,2,0,0.001,2,0.90,-0.28,9.79,19,0.076,8.36
2.1948,-0.03316,0.05934,0.23911,0.00000,0.00000,0.00000,68,25,30,2,72,15,30,3,ok,2,0,0.001,2,0.90,-0.28,9.79,19,0.089,8.36
2.1996,-0.03316,0.05934,0.23911,0.00000,0.00000,0.00000,70,21,31,2,72,16,31,3,ok,2,0,0.001,2,0.90,-0.28,9.79,19,0.101,8.36
2.2121,-0.03316,0.05934,0.23911,0.00000,0.00000,0.00000,71,17,32,2,72,18,33,3,ok,2,0,0.001,2,0.90,-0.28,9.79,19,0.114,8.36
2.2348,-0.03316,0.05934,0.23911,0.00000,0.00000,0.00000,71,15,34,2,72,18,34,2,ok,2,0,0.001,2,0.90,-0.28,9.79,19,0.126,8.36
2.2380,-0.03316,0.05934,0.23911,0.00000,0.00000,0.00000,71,14,35,1,71,21,36,1,ok,2,0,0.001,2,0.90,-0.28,9.79,19,0.139,8.36
2.2506,-0.03316,0.05934,0.23911,0.00000,0.00000,0.00000,71,11,36,1,71,22,38,1,ok,2,0,0.001,2,0.90,-0.28,9.79,19,0.152,8.36
2.2708,-0.03316,0.05934,0.23911,0.00000,0.00000,0.00000,70,8,38,1,72,24,38,2,ok,2,0,0.001,2,0.90,-0.28,9.79,19,0.165,8.36
2.2756,-0.03316,0.05934,0.23911,0.00000,0.00000,0.00000,70,5,39,1,72,25,40,1,ok,2,0,0.001,2,0.90,-0.28,9.79,19,0.177,8.36
2.2882,-0.03316,0.05934,0.23911,0.00000,0.00000,0.00000,69,1,41,1,71,27,41,1,ok,2,0,0.001,2,0.90,-0.28,9.79,19,0.190,8.36
2.3108,-0.00175,0.00175,0.33510,0.00000,0.00000,0.00000,67,-1,42,1,71,29,42,1,ok,2,0,0.001,2,1.12,1.08,9.82,20,0.000,8.36
2.3139,-0.00175,0.00175,0.33510,0.00000,0.00000,0.00000,66,-3,44,1,71,29,44,1,ok,2,0,0.001,2,1.12,1.08,9.82,20,0.013,8.36
2.3267,-0.00175,0.00175,0.33510,0.00000,0.00000,0.00000,64,-4,44,1,73,28,45,1,ok,2,0,0.001,2,1.12,1.08,9.82,20,0.026,8.36
2.3468,-0.00175,0.00175,0.33510,0.00000,0.00000,0.00000,63,-6,46,2,74,26,46,0,ok,2,0,0.001,2,1.12,1.08,9.82,20,0.039,8.36
2.3516,-0.00175,0.00175,0.33510,0.00000,0.00000,0.00000,62,-8,47,2,76,21,47,0,ok,2,0,0.001,2,1.12,1.08,9.82,20,0.051,8.36
2.3642,-0.00175,0.00175,0.33510,0.00000,0.00000,0.00000,60,-9,48,3,77,17,48,0,ok,2,0,0.001,2,1.12,1.08,9.82,20,0.064,8.36
2.3868,-0.00175,0.00175,0.33510,0.00000,0.00000,0.00000,58,-10,49,3,79,14,49,0,ok,2,0,0.001,2,1.12,1.08,9.82,20,0.076,8.36
2.3899,-0.00175,0.00175,0.33510,0.00000,0.00000,0.00000,55,-11,50,3,79,13,50,0,ok,2,0,0.001,2,1.12,1.08,9.82,20,0.089,8.36
2.4026,-0.00175,0.00175,0.33510,0.00000,0.00000,0.00000,53,-12,50,5,79,11,51,0,ok,2,0,0.001,2,1.12,1.08,9.82,20,0.102,8.36
2.4228,-0.00175,0.00175,0.33510,0.00000,0.00000,0.00000,51,-11,52,5,79,7,52,0,ok,2,0,0.001,2,1.12,1.08,9.82,20,0.115,8.36
2.4276,-0.00175,0.00175,0.33510,0.00000,0.00000,0.00000,48,-11,53,5,78,4,53,0,ok,2,0,0.001,2,1.12,1.08,9.82,20,0.127,8.36
2.4400,-0.00175,0.00175,0.33510,0.00000,0.00000,0.00000,46,-11,53,6,78,2,54,0,ok,2,0,0.001,2,1.12,1.08,9.82,20,0.140,8.36
2.4628,-0.00175,0.00175,0.33510,0.00000,0.00000,0.00000,43,-11,54,7,77,-1,54,1,ok,2,0,0.001,2,1.12,1.08,9.82,20,0.152,8.36
2.4659,-0.00175,0.00175,0.33510,0.00000,0.00000,0.00000,41,-11,56,7,76,-3,55,0,ok,2,0,0.001,2,1.12,1.08,9.82,20,0.165,8.36
2.4786,-0.00175,0.00175,0.33510,0.00000,0.00000,0.00000,38,-10,56,7,75,-5,56,0,ok,2,0,0.001,2,1.12,1.08,9.82,20,0.178,8.36
2.4988,-0.00175,0.00175,0.33510,0.00000,0.00000,0.00000,35,-9,57,7,74,-8,57,-1,ok,2,0,0.001,2,1.12,1.08,9.82,20,0.191,8.36
2.5039,0.04363,-0.06283,0.34383,0.00000,0.00000,0.00000,33,-8,58,8,71,-7,57,0,ok,2,0,0.001,2,-0.21,0.25,10.07,21,0.000,8.36
2.5161,0.04363,-0.06283,0.34383,0.00000,0.00000,0.00000,29,-6,58,8,70,-10,58,0,ok,2,0,0.001,2,-0.21,0.25,10.07,21,0.013,8.36
2.5388,0.04363,-0.06283,0.34383,0.00000,0.00000,0.00000,26,-4,59,9,68,-11,59,0,ok,2,0,0.001,2,-0.21,0.25,10.07,21,0.025,8.36
2.5420,0.04363,-0.06283,0.34383,0.00000,0.00000,0.00000,22,-2,60,11,66,-13,60,0,ok,2,0,0.001,3,-0.21,0.25,10.07,21,0.038,8.36
2.5547,0.04363,-0.06283,0.34383,0.00000,0.00000,0.00000,20,-1,62,11,64,-13,61,0,ok,2,0,0.001,3,-0.21,0.25,10.07,21,0.051,8.36
2.5748,0.04363,-0.06283,0.34383,0.00000,0.00000,0.00000,19,1,62,11,62,-14,63,-3,ok,2,0,0.001,3,-0.21,0.25,10.07,21,0.064,8.36
2.5796,0.04363,-0.06283,0.34383,0.00000,0.00000,0.00000,17,3,63,12,59,-14,63,-2,ok,2,0,0.001,3,-0.21,0.25,10.07,21,0.076,8.36
2.5921,0.04363,-0.06283,0.34383,0.00000,0.00000,0.00000,14,7,63,13,58,-15,64,-2,ok,2,0,0.001,3,-0.21,0.25,10.07,21,0.089,8.36
2.6148,0.04363,-0.06283,0.34383,0.00000,0.00000,0.00000,13,10,63,14,55,-14,65,-1,ok,2,0,0.001,3,-0.21,0.25,10.07,21,0.101,8.36
2.6181,0.04363,-0.06283,0.34383,0.00000,0.00000,0.00000,11,13,64,15,52,-13,65,-1,ok,2,0,0.001,3,-0.21,0.25,10.07,21,0.114,8.36
2.6307,0.04363,-0.06283,0.34383,0.00000,0.00000,0.00000,13,13,64,16,49,-13,66,0,ok,2,0,0.001,3,-0.21,0.25,10.07,21,0.127,8.36
2.6508,0.04363,-0.06283,0.34383,0.00000,0.00000,0.00000,13,13,64,17,46,-12,67,-1,ok,2,0,0.001,3,-0.21,0.25,10.07,21,0.140,8.36
2.6556,0.04363,-0.06283,0.34383,0.00000,0.00000,0.00000,14,12,65,17,44,-12,68,0,ok,2,0,0.001,3,-0.21,0.25,10.07,21,0.152,8.36
2.6683,0.04363,-0.06283,0.34383,0.00000,0.00000,0.00000,15,12,65,18,41,-11,69,0,ok,2,0,0.001,3,-0.21,0.25,10.07,21,0.165,8.36
2.6908,0.04363,-0.06283,0.34383,0.00000,0.00000,0.00000,16,11,66,19,38,-10,69,1,ok,2,0,0.001,3,-0.21,0.25,10.07,21,0.177,8.36
2.6939,0.04363,-0.06283,0.34383,0.00000,0.00000,0.00000,18,10,66,19,35,-8,69,2,ok,2,0,0.001,3,-0.21,0.25,10.07,21,0.190,8.36
2.7069,-0.01222,-0.00349,0.36303,0.00000,0.00000,0.00000,19,10,66,21,33,-7,70,3,ok,2,0,0.001,3,-0.32,-0.36,8.88,22,0.000,8.36
2.7268,-0.01222,-0.00349,0.36303,0.00000,0.00000,0.00000,21,8,66,21,31,-5,71,4,ok,0,0,0.001,3,-0.32,-0.36,8.88,22,0.013,8.36
2.7316,-0.01222,-0.00349,0.36303,0.00000,0.00000,0.00000,22,8,66,22,29,-2,71,5,ok,0,0,0.001,3,-0.32,-0.36,8.88,22,0.025,8.36
2.7441,-0.01222,-0.00349,0.36303,0.00000,0.00000,0.00000,23,7,65,23,28,0,71,6,ok,0,0,0.001,3,-0.32,-0.36,8.88,22,0.038,8.36
2.7668,-0.01222,-0.00349,0.36303,0.00000,0.00000,0.00000,25,6,65,24,27,3,71,7,ok,0,0,0.001,3,-0.32,-0.36,8.88,22,0.050,8.36
2.7699,-0.01222,-0.00349,0.36303,0.00000,0.00000,0.00000,26,6,65,25,26,6,72,8,ok,0,0,0.001,3,-0.32,-0.36,8.88,22,0.063,8.36
2.7826,-0.01222,-0.00349,0.36303,0.00000,0.00000,0.00000,27,5,64,28,28,5,72,9,ok,0,0,0.001,3,-0.32,-0.36,8.88,22,0.076,8.36
2.8028,-0.01222,-0.00349,0.36303,0.00000,0.00000,0.00000,28,4,64,29,28,5,72,11,ok,0,0,0.001,3,-0.32,-0.36,8.88,22,0.089,8.36
2.8076,-0.01222,-0.00349,0.36303,0.00000,0.00000,0.00000,29,4,65,28,30,3,72,12,ok,0,0,0.001,3,-0.32,-0.36,8.88,22,0.101,8.36
2.8201,-0.01222,-0.00349,0.36303,0.00000,0.00000,0.00000,31,3,68,25,31,2,73,14,ok,0,0,0.001,3,-0.32,-0.36,8.88,22,0.114,8.36
2.8428,-0.01222,-0.00349,0.36303,0.00000,0.00000,0.00000,32,3,70,21,32,2,73,15,ok,2,0,0.001,3,-0.32,-0.36,8.88,22,0.126,8.36
2.8461,-0.01222,-0.00349,0.36303,0.00000,0.00000,0.00000,33,2,71,17,33,2,72,17,ok,2,0,0.001,3,-0.32,-0.36,8.88,22,0.139,8.36
2.8586,-0.01222,-0.00349,0.36303,0.00000,0.00000,0.00000,34,2,71,15,34,1,72,19,ok,2,0,0.001,3,-0.32,-0.36,8.88,22,0.152,8.36
2.8788,-0.01222,-0.00349,0.36303,0.00000,0.00000,0.00000,36,1,71,14,37,1,73,20,ok,0,0,0.001,3,-0.32,-0.36,8.88,22,0.165,8.36
2.8836,-0.01222,-0.00349,0.36303,0.00000,0.00000,0.00000,37,1,71,11,37,1,72,22,ok,0,0,0.001,3,-0.32,-0.36,8.88,22,0.177,8.36
2.8962,-0.01222,-0.00349,0.36303,0.00000,0.00000,0.00000,39,1,71,8,39,1,72,23,ok,0,0,0.001,3,-0.32,-0.36,8.88,22,0.190,8.36
2.9188,-0.02269,-0.01571,0.34558,0.00000,0.00000,0.00000,40,1,70,5,40,1,72,24,ok,0,0,0.001,3,-1.17,-0.10,11.23,23,0.000,8.36
2.9221,-0.02269,-0.01571,0.34558,0.00000,0.00000,0.00000,42,0,70,3,41,1,72,26,ok,0,0,0.001,3,-1.17,-0.10,11.23,23,0.013,8.36
2.9346,-0.02269,-0.01571,0.34558,0.00000,0.00000,0.00000,43,0,69,1,42,0,72,28,ok,0,0,0.001,3,-1.17,-0.10,11.23,23,0.026,8.36
2.9548,-0.02269,-0.01571,0.34558,0.00000,0.00000,0.00000,45,0,68,-1,44,0,72,29,ok,0,0,0.001,3,-1.17,-0.10,11.23,23,0.039,8.36
2.9596,-0.02269,-0.01571,0.34558,0.00000,0.00000,0.00000,45,0,65,-2,45,-1,73,29,ok,0,0,0.001,3,-1.17,-0.10,11.23,23,0.051,8.36
2.9720,-0.02269,-0.01571,0.34558,0.00000,0.00000,0.00000,46,0,64,-4,46,0,74,28,ok,0,0,0.001,3,-1.17,-0.10,11.23,23,0.064,8.36
2.9948,-0.02269,-0.01571,0.34558,0.00000,0.00000,0.00000,48,1,64,-6,48,0,76,26,ok,0,0,0.001,3,-1.17,-0.10,11.23,23,0.076,8.36
2.9979,-0.02269,-0.01571,0.34558,0.00000,0.00000,0.00000,49,2,61,-7,48,0,77,20,ok,2,0,0.001,3,-1.17,-0.10,11.23,23,0.089,8.36
3.0108,-0.02269,-0.01571,0.34558,0.00000,0.00000,0.00000,50,1,59,-8,49,0,79,17,ok,2,0,0.001,3,-1.17,-0.10,11.23,23,0.102,8.36
3.0308,-0.02269,-0.01571,0.34558,0.00000,0.00000,0.00000,51,1,57,-9,50,0,80,14,ok,2,0,0.001,3,-1.17,-0.10,11.23,23,0.115,8.36
3.0356,-0.02269,-0.01571,0.34558,0.00000,0.00000,0.00000,51,4,54,-10,52,0,80,13,ok,2,0,0.001,3,-1.17,-0.10,11.23,23,0.127,8.36
3.0481,-0.02269,-0.01571,0.34558,0.00000,0.00000,0.00000,52,5,51,-9,53,0,80,10,ok,2,0,0.001,3,-1.17,-0.10,11.23,23,0.140,8.36
3.0708,-0.02269,-0.01571,0.34558,0.00000,0.00000,0.00000,52,4,49,-9,54,0,80,7,ok,2,0,0.001,3,-1.17,-0.10,11.23,23,0.152,8.36
3.0739,-0.02269,-0.01571,0.34558,0.00000,0.00000,0.00000,53,5,46,-9,55,1,80,3,ok,2,0,0.001,3,-1.17,-0.10,11.23,23,0.165,8.36
3.0868,-0.02269,-0.01571,0.34558,0.00000,0.00000,0.00000,53,6,43,-9,56,0,79,2,ok,2,0,0.001,3,-1.17,-0.10,11.23,23,0.178,8.36
3.1068,-0.02269,-0.01571,0.34558,0.00000,0.00000,0.00000,55,6,41,-9,57,1,78,-2,ok,2,0,0.001,3,-1.17,-0.10,11.23,23,0.191,8.36
3.1118,-0.05411,-0.01222,0.41539,0.00000,0.00000,0.00000,56,6,39,-8,58,0,78,-3,ok,2,0,0.001,3,-0.63,-0.42,9.62,24,0.000,8.36
3.1241,-0.05411,-0.01222,0.41539,0.00000,0.00000,0.00000,57,7,36,-7,58,1,77,-5,ok,2,0,0.001,3,-0.63,-0.42,9.62,24,0.013,8.36
3.1468,-0.05411,-0.01222,0.41539,0.00000,0.00000,0.00000,58,8,33,-6,59,1,75,-7,ok,2,0,0.001,3,-0.63,-0.42,9.62,24,0.025,8.36
3.1499,-0.05411,-0.01222,0.41539,0.00000,0.00000,0.00000,59,8,29,-5,60,1,72,-7,ok,2,0,0.001,3,-0.63,-0.42,9.62,24,0.038,8.36
3.1628,-0.05411,-0.01222,0.41539,0.00000,0.00000,0.00000,59,9,26,-3,61,1,71,-9,ok,2,0,0.001,3,-0.63,-0.42,9.62,24,0.051,8.36
3.1828,-0.05411,-0.01222,0.41539,0.00000,0.00000,0.00000,61,10,22,-1,62,0,69,-11,ok,2,0,0.001,3,-0.63,-0.42,9.62,24,0.063,8.36
3.1876,-0.05411,-0.01222,0.41539,0.00000,0.00000,0.00000,61,10,20,0,64,-2,67,-12,ok,2,0,0.001,3,-0.63,-0.42,9.62,24,0.076,8.36
3.2001,-0.05411,-0.01222,0.41539,0.00000,0.00000,0.00000,62,11,18,1,64,-1,65,-13,ok,2,0,0.001,3,-0.63,-0.42,9.62,24,0.088,8.36
3.2228,-0.05411,-0.01222,0.41539,0.00000,0.00000,0.00000,63,12,16,3,65,0,63,-14,ok,2,0,0.001,3,-0.63,-0.42,9.62,24,0.101,8.36
3.2259,-0.05411,-0.01222,0.41539,0.00000,0.00000,0.00000,63,12,14,7,66,0,60,-14,ok,2,0,0.001,3,-0.63,-0.42,9.62,24,0.114,8.36
3.2386,-0.05411,-0.01222,0.41539,0.00000,0.00000,0.00000,63,13,13,10,66,0,59,-15,ok,2,0,0.001,3,-0.63,-0.42,9.62,24,0.127,8.36
3.2588,-0.05411,-0.01222,0.41539,0.00000,0.00000,0.00000,64,14,11,12,67,0,55,-13,ok,2,0,0.001,3,-0.63,-0.42,9.62,24,0.139,8.36
3.2636,-0.05411,-0.01222,0.41539,0.00000,0.00000,0.00000,64,15,13,13,67,0,53,-12,ok,2,0,0.001,3,-0.63,-0.42,9.62,24,0.152,8.36
3.2761,-0.05411,-0.01222,0.41539,0.00000,0.00000,0.00000,64,16,12,12,68,1,50,-12,ok,2,0,0.001,3,-0.63,-0.42,9.62,24,0.164,8.36
3.2988,-0.05411,-0.01222,0.41539,0.00000,0.00000,0.00000,65,17,14,11,68,1,47,-11,ok,2,0,0.001,3,-0.63,-0.42,9.62,24,0.177,8.36
3.3022,-0.03665,-0.02094,0.43982,0.00000,0.00000,0.00000,65,18,15,11,69,2,45,-11,ok,2,0,0.001,3,0.57,-0.15,10.59,25,0.000,8.36
3.3146,-0.03665,-0.02094,0.43982,0.00000,0.00000,0.00000,66,18,16,10,69,2,41,-9,ok,2,0,0.001,3,0.57,-0.15,10.59,25,0.013,8.36
3.3348,-0.03665,-0.02094,0.43982,0.00000,0.00000,0.00000,66,18,17,9,70,3,39,-9,ok,2,0,0.001,3,0.57,-0.15,10.59,25,0.025,8.36
3.3398,-0.03665,-0.02094,0.43982,0.00000,0.00000,0.00000,66,20,18,9,70,4,35,-7,ok,2,0,0.001,3,0.57,-0.15,10.59,25,0.038,8.36
3.3521,-0.03665,-0.02094,0.43982,0.00000,0.00000,0.00000,67,21,20,8,71,5,34,-6,ok,2,0,0.001,3,0.57,-0.15,10.59,25,0.050,8.36
3.3748,-0.03665,-0.02094,0.43982,0.00000,0.00000,0.00000,67,22,21,7,71,6,32,-4,ok,2,0,0.001,3,0.57,-0.15,10.59,25,0.063,8.36
3.3779,-0.03665,-0.02094,0.43982,0.00000,0.00000,0.00000,67,23,22,6,71,7,30,-1,ok,2,0,0.001,3,0.57,-0.15,10.59,25,0.076,8.36
3.3906,-0.03665,-0.02094,0.43982,0.00000,0.00000,0.00000,67,24,23,6,71,8,28,2,ok,2,0,0.001,3,0.57,-0.15,10.59,25,0.089,8.36
3.4108,-0.03665,-0.02094,0.43982,0.00000,0.00000,0.00000,66,25,25,5,71,9,27,5,ok,2,0,0.001,3,0.57,-0.15,10.59,25,0.101,8.36
3.4158,-0.03665,-0.02094,0.43982,0.00000,0.00000,0.00000,65,28,26,5,71,10,27,7,ok,2,0,0.001,3,0.57,-0.15,10.59,25,0.114,8.36
3.4280,-0.03665,-0.02094,0.43982,0.00000,0.00000,0.00000,65,29,27,4,71,11,29,6,ok,2,0,0.001,3,0.57,-0.15,10.59,25,0.126,8.36
3.4508,-0.03665,-0.02094,0.43982,0.00000,0.00000,0.00000,66,28,28,3,71,13,29,6,ok,2,0,0.001,3,0.57,-0.15,10.59,25,0.139,8.36
3.4539,-0.03665,-0.02094,0.43982,0.00000,0.00000,0.00000,68,25,30,3,72,14,30,3,ok,2,0,0.001,3,0.57,-0.15,10.59,25,0.152,8.36
3.4666,-0.03665,-0.02094,0.43982,0.00000,0.00000,0.00000,71,21,31,2,71,15,31,3,ok,2,0,0.001,3,0.57,-0.15,10.59,25,0.165,8.36
3.4868,-0.03665,-0.02094,0.43982,0.00000,0.00000,0.00000,72,17,33,2,71,17,33,3,ok,2,0,0.001,3,0.57,-0.15,10.59,25,0.177,8.36
3.4916,-0.03665,-0.02094,0.43982,0.00000,0.00000,0.00000,72,15,34,2,72,18,34,2,ok,2,0,0.001,3,0.57,-0.15,10.59,25,0.190,8.36
3.5044,-0.04189,0.03142,0.55851,0.00000,0.00000,0.00000,71,14,35,1,71,20,36,1,ok,2,0,0.001,3,-1.02,-0.09,10.08,26,0.000,8.36
3.5268,-0.04189,0.03142,0.55851,0.00000,0.00000,0.00000,71,11,36,1,71,22,38,1,ok,2,0,0.001,3,-1.02,-0.09,10.08,26,0.012,8.36
3.5300,-0.04189,0.03142,0.55851,0.00000,0.00000,0.00000,71,8,38,2,71,24,38,2,ok,2,0,0.001,3,-1.02,-0.09,10.08,26,0.026,8.36
3.5427,-0.04189,0.03142,0.55851,0.00000,0.00000,0.00000,70,5,39,2,71,25,40,1,ok,2,0,0.001,3,-1.02,-0.09,10.08,26,0.039,8.36
3.5628,-0.04189,0.03142,0.55851,0.00000,0.00000,0.00000,69,1,40,1,71,27,42,2,ok,2,0,0.001,4,-1.02,-0.09,10.08,26,0.051,8.36
3.5678,-0.04189,0.03142,0.55851,0.00000,0.00000,0.00000,68,-1,41,1,71,28,42,2,ok,2,0,0.001,4,-1.02,-0.09,10.08,26,0.064,8.36
3.5803,-0.04189,0.03142,0.55851,0.00000,0.00000,0.00000,67,-3,43,2,71,29,43,1,ok,2,0,0.001,4,-1.02,-0.09,10.08,26,0.076,8.36
3.6028,-0.04189,0.03142,0.55851,0.00000,0.00000,0.00000,65,-4,44,2,72,28,45,1,ok,2,0,0.001,4,-1.02,-0.09,10.08,26,0.089,8.36
3.6059,-0.04189,0.03142,0.55851,0.00000,0.00000,0.00000,64,-6,45,2,74,26,46,0,ok,2,0,0.001,4,-1.02,-0.09,10.08,26,0.102,8.36
3.6187,-0.04189,0.03142,0.55851,0.00000,0.00000,0.00000,63,-8,46,2,76,21,47,0,ok,2,0,0.001,4,-1.02,-0.09,10.08,26,0.115,8.36
3.6388,-0.04189,0.03142,0.55851,0.00000,0.00000,0.00000,60,-9,48,3,77,17,48,0,ok,2,0,0.001,4,-1.02,-0.09,10.08,26,0.127,8.36
3.6436,-0.04189,0.03142,0.55851,0.00000,0.00000,0.00000,58,-10,49,3,79,14,49,0,ok,2,0,0.001,4,-1.02,-0.09,10.08,26,0.139,8.36
3.6560,-0.04189,0.03142,0.55851,0.00000,0.00000,0.00000,56,-11,50,3,79,13,50,1,ok,2,0,0.001,4,-1.02,-0.09,10.08,26,0.152,8.36
3.6788,-0.04189,0.03142,0.55851,0.00000,0.00000,0.00000,54,-12,50,5,79,11,51,1,ok,2,0,0.001,4,-1.02,-0.09,10.08,26,0.165,8.36
3.6819,-0.04189,0.03142,0.55851,0.00000,0.00000,0.00000,51,-12,52,6,79,8,52,0,ok,2,0,0.001,4,-1.02,-0.09,10.08,26,0.178,8.36
3.6946,-0.04189,0.03142,0.55851,0.00000,0.00000,0.00000,48,-12,52,5,78,4,53,0,ok,2,0,0.001,4,-1.02,-0.09,10.08,26,0.191,8.36
3.7148,-0.04189,0.03142,0.55851,0.00000,0.00000,0.00000,46,-11,53,6,77,2,54,0,ok,2,0,0.001,4,-1.02,-0.09,10.08,26,0.203,8.36
3.7198,0.10123,-0.00873,0.54454,0.00000,0.00000,0.00000,43,-11,54,7,77,-1,54,1,ok,2,0,0.001,4,-1.19,1.34,10.08,27,0.000,8.36
3.7321,0.10123,-0.00873,0.54454,0.00000,0.00000,0.00000,41,-11,56,7,76,-3,55,-1,ok,2,0,0.001,4,-1.19,1.34,10.08,27,0.013,8.36
3.7548,0.10123,-0.00873,0.54454,0.00000,0.00000,0.00000,39,-10,56,7,75,-4,56,0,ok,2,0,0.001,4,-1.19,1.34,10.08,27,0.025,8.36
3.7581,0.10123,-0.00873,0.54454,0.00000,0.00000,0.00000,35,-9,57,7,73,-7,57,-1,ok,2,0,0.001,4,-1.19,1.34,10.08,27,0.038,8.36
3.7707,0.10123,-0.00873,0.54454,0.00000,0.00000,0.00000,33,-8,58,8,71,-7,57,0,ok,2,0,0.001,4,-1.19,1.34,10.08,27,0.051,8.36
3.7908,0.10123,-0.00873,0.54454,0.00000,0.00000,0.00000,29,-6,58,8,70,-9,58,0,ok,2,0,0.001,4,-1.19,1.34,10.08,27,0.064,8.36
3.7956,0.10123,-0.00873,0.54454,0.00000,0.00000,0.00000,27,-4,59,9,68,-11,59,0,ok,2,0,0.001,4,-1.19,1.34,10.08,27,0.076,8.36
3.8081,0.10123,-0.00873,0.54454,0.00000,0.00000,0.00000,23,-2,60,10,66,-12,60,0,ok,2,0,0.001,4,-1.19,1.34,10.08,27,0.089,8.36
3.8308,0.10123,-0.00873,0.54454,0.00000,0.00000,0.00000,21,-1,61,11,64,-13,61,0,ok,2,0,0.001,4,-1.19,1.34,10.08,27,0.101,8.36
3.8339,0.10123,-0.00873,0.54454,0.00000,0.00000,0.00000,19,1,62,11,62,-13,63,-2,ok,2,0,0.001,4,-1.19,1.34,10.08,27,0.114,8.36
3.8466,0.10123,-0.00873,0.54454,0.00000,0.00000,0.00000,17,3,62,12,59,-14,63,-1,ok,2,0,0.001,4,-1.19,1.34,10.08,27,0.127,8.36
3.8668,0.10123,-0.00873,0.54454,0.00000,0.00000,0.00000,15,7,63,13,57,-15,64,-1,ok,2,0,0.001,4,-1.19,1.34,10.08,27,0.140,8.36
3.8717,0.10123,-0.00873,0.54454,0.00000,0.00000,0.00000,13,10,63,14,54,-14,65,-1,ok,2,0,0.001,4,-1.19,1.34,10.08,27,0.152,8.36
3.8841,0.10123,-0.00873,0.54454,0.00000,0.00000,0.00000,12,13,63,15,52,-13,66,-1,ok,2,0,0.001,4,-1.19,1.34,10.08,27,0.165,8.36
3.9068,0.10123,-0.00873,0.54454,0.00000,0.00000,0.00000,13,13,64,16,49,-13,67,0,ok,2,0,0.001,4,-1.19,1.34,10.08,27,0.177,8.36
3.9102,0.02269,-0.04712,0.57596,0.00000,0.00000,0.00000,13,13,64,17,46,-12,67,-1,ok,2,0,0.001,4,1.08,-0.29,11.45,28,0.000,8.36
3.9228,0.02269,-0.04712,0.57596,0.00000,0.00000,0.00000,15,12,64,17,44,-12,68,1,ok,2,0,0.001,4,1.08,-0.29,11.45,28,0.013,8.36
3.9428,0.02269,-0.04712,0.57596,0.00000,0.00000,0.00000,16,11,65,18,41,-10,69,1,ok,2,0,0.001,4,1.08,-0.29,11.45,28,0.025,8.36
3.9476,0.02269,-0.04712,0.57596,0.00000,0.00000,0.00000,17,11,65,19,38,-10,70,2,ok,2,0,0.001,4,1.08,-0.29,11.45,28,0.038,8.36
3.9600,0.02269,-0.04712,0.57596,0.00000,0.00000,0.00000,19,10,65,20,35,-8,70,2,ok,2,0,0.001,4,1.08,-0.29,11.45,28,0.050,8.36
3.9828,0.02269,-0.04712,0.57596,0.00000,0.00000,0.00000,19,10,65,21,33,-7,71,3,ok,2,0,0.001,4,1.08,-0.29,11.45,28,0.063,8.36
3.9859,0.02269,-0.04712,0.57596,0.00000,0.00000,0.00000,21,8,66,21,31,-5,71,5,ok,2,0,0.001,4,1.08,-0.29,11.45,28,0.076,8.36
3.9985,0.02269,-0.04712,0.57596,0.00000,0.00000,0.00000,22,7,66,23,29,-2,72,5,ok,2,0,0.001,4,1.08,-0.29,11.45,28,0.089,8.36
4.0188,0.02269,-0.04712,0.57596,0.00000,0.00000,0.00000,24,7,66,23,28,0,72,6,ok,2,0,0.001,4,1.08,-0.29,11.45,28,0.101,8.36
4.0236,0.02269,-0.04712,0.57596,0.00000,0.00000,0.00000,25,6,66,24,26,3,72,7,ok,2,0,0.001,4,1.08,-0.29,11.45,28,0.114,8.36
4.0362,0.02269,-0.04712,0.57596,0.00000,0.00000,0.00000,26,6,65,25,26,6,72,8,ok,2,0,0.001,4,1.08,-0.29,11.45,28,0.126,8.36
4.0588,0.02269,-0.04712,0.57596,0.00000,0.00000,0.00000,27,5,64,28,28,5,72,9,ok,2,0,0.001,4,1.08,-0.29,11.45,28,0.139,8.36
4.0619,0.02269,-0.04712,0.57596,0.00000,0.00000,0.00000,29,4,64,29,28,5,72,11,ok,0,0,0.001,4,1.08,-0.29,11.45,28,0.152,8.36
4.0746,0.02269,-0.04712,0.57596,0.00000,0.00000,0.00000,30,4,65,28,29,3,72,12,ok,0,0,0.001,4,1.08,-0.29,11.45,28,0.165,8.36
4.0948,0.02269,-0.04712,0.57596,0.00000,0.00000,0.00000,31,3,68,25,30,2,73,14,ok,2,0,0.001,4,1.08,-0.29,11.45,28,0.177,8.36
4.0996,0.02269,-0.04712,0.57596,0.00000,0.00000,0.00000,32,3,70,21,31,2,73,15,ok,2,0,0.001,4,1.08,-0.29,11.45,28,0.190,8.36
4.1123,-0.10821,-0.07505,0.60388,0.00000,0.00000,0.00000,34,2,71,17,33,2,72,17,ok,2,0,0.001,4,-0.73,-1.10,9.52,29,0.000,8.36
4.1348,-0.10821,-0.07505,0.60388,0.00000,0.00000,0.00000,35,2,71,15,34,0,72,20,ok,2,0,0.001,4,-0.73,-1.10,9.52,29,0.012,8.36
4.1379,-0.10821,-0.07505,0.60388,0.00000,0.00000,0.00000,37,1,71,15,36,0,73,20,ok,2,0,0.001,4,-0.73,-1.10,9.52,29,0.026,8.36
4.1506,-0.10821,-0.07505,0.60388,0.00000,0.00000,0.00000,38,1,71,11,37,0,72,23,ok,2,0,0.001,4,-0.73,-1.10,9.52,29,0.039,8.36
4.1708,-0.10821,-0.07505,0.60388,0.00000,0.00000,0.00000,40,0,71,9,39,1,72,24,ok,0,0,0.001,4,-0.73,-1.10,9.52,29,0.051,8.36
4.1756,-0.10821,-0.07505,0.60388,0.00000,0.00000,0.00000,41,1,70,6,40,0,73,25,ok,0,0,0.001,4,-0.73,-1.10,9.52,29,0.063,8.36
4.1880,-0.10821,-0.07505,0.60388,0.00000,0.00000,0.00000,43,0,70,3,41,1,72,26,ok,0,0,0.001,4,-0.73,-1.10,9.52,29,0.076,8.36
4.2108,-0.10821,-0.07505,0.60388,0.00000,0.00000,0.00000,44,0,69,1,42,0,72,28,ok,0,0,0.001,4,-0.73,-1.10,9.52,29,0.089,8.36
4.2141,-0.10821,-0.07505,0.60388,0.00000,0.00000,0.00000,45,0,68,0,43,0,72,29,ok,0,0,0.001,4,-0.73,-1.10,9.52,29,0.102,8.36
4.2266,-0.10821,-0.07505,0.60388,0.00000,0.00000,0.00000,45,0,66,-2,45,-1,72,29,ok,2,0,0.001,4,-0.73,-1.10,9.52,29,0.115,8.36
4.2468,-0.10821,-0.07505,0.60388,0.00000,0.00000,0.00000,47,0,65,-4,46,-1,74,28,ok,0,0,0.001,4,-0.73,-1.10,9.52,29,0.127,8.36
4.2516,-0.10821,-0.07505,0.60388,0.00000,0.00000,0.00000,48,1,64,-6,47,-1,75,26,ok,0,0,0.001,4,-0.73,-1.10,9.52,29,0.140,8.36
4.2641,-0.10821,-0.07505,0.60388,0.00000,0.00000,0.00000,49,2,61,-7,48,-1,77,21,ok,2,0,0.001,4,-0.73,-1.10,9.52,29,0.152,8.36
4.2868,-0.10821,-0.07505,0.60388,0.00000,0.00000,0.00000,51,1,59,-8,49,-1,78,17,ok,2,0,0.001,4,-0.73,-1.10,9.52,29,0.165,8.36
4.2901,-0.10821,-0.07505,0.60388,0.00000,0.00000,0.00000,51,1,56,-8,50,-1,80,14,ok,2,0,0.001,4,-0.73,-1.10,9.52,29,0.178,8.36
4.3026,-0.10821,-0.07505,0.60388,0.00000,0.00000,0.00000,51,4,54,-9,52,-1,80,13,ok,2,0,0.001,4,-0.73,-1.10,9.52,29,0.191,8.36
4.3228,-0.10821,-0.07505,0.60388,0.00000,0.00000,0.00000,52,5,51,-9,53,-1,80,10,ok,2,0,0.001,4,-0.73,-1.10,9.52,29,0.203,8.36
4.3279,-0.01396,-0.01222,0.63181,0.00000,0.00000,0.00000,53,4,49,-9,54,-1,80,7,ok,2,0,0.001,4,0.05,-0.50,9.01,30,0.000,8.36
4.3402,-0.01396,-0.01222,0.63181,0.00000,0.00000,0.00000,53,5,46,-9,55,1,79,3,ok,2,0,0.001,4,0.05,-0.50,9.01,30,0.013,8.36
4.3628,-0.01396,-0.01222,0.63181,0.00000,0.00000,0.00000,54,6,43,-9,56,0,79,2,ok,2,0,0.001,4,0.05,-0.50,9.01,30,0.025,8.36
4.3659,-0.01396,-0.01222,0.63181,0.00000,0.00000,0.00000,56,7,41,-9,57,1,78,-2,ok,2,0,0.001,4,0.05,-0.50,9.01,30,0.038,8.36
4.3786,-0.01396,-0.01222,0.63181,0.00000,0.00000,0.00000,56,7,39,-8,58,0,78,-4,ok,2,0,0.001,4,0.05,-0.50,9.01,30,0.051,8.36
4.3988,-0.01396,-0.01222,0.63181,0.00000,0.00000,0.00000,58,7,35,-7,58,1,76,-5,ok,2,0,0.001,4,0.05,-0.50,9.01,30,0.064,8.36
4.4038,-0.01396,-0.01222,0.63181,0.00000,0.00000,0.00000,58,8,33,-6,59,1,74,-7,ok,2,0,0.001,4,0.05,-0.50,9.01,30,0.076,8.36
4.4161,-0.01396,-0.01222,0.63181,0.00000,0.00000,0.00000,59,8,29,-5,60,1,72,-7,ok,2,0,0.001,4,0.05,-0.50,9.01,30,0.089,8.36
4.4388,-0.01396,-0.01222,0.63181,0.00000,0.00000,0.00000,60,9,26,-3,61,1,70,-9,ok,2,0,0.001,4,0.05,-0.50,9.01,30,0.101,8.36
4.4419,-0.01396,-0.01222,0.63181,0.00000,0.00000,0.00000,61,10,21,-1,62,0,69,-11,ok,2,0,0.001,4,0.05,-0.50,9.01,30,0.114,8.36
4.4546,-0.01396,-0.01222,0.63181,0.00000,0.00000,0.00000,62,10,20,0,64,-2,67,-12,ok,2,0,0.001,4,0.05,-0.50,9.01,30,0.127,8.36
4.4748,-0.01396,-0.01222,0.63181,0.00000,0.00000,0.00000,63,11,18,1,64,-1,65,-13,ok,2,0,0.001,4,0.05,-0.50,9.01,30,0.140,8.36
4.4798,-0.01396,-0.01222,0.63181,0.00000,0.00000,0.00000,63,12,16,3,65,0,63,-13,ok,2,0,0.001,4,0.05,-0.50,9.01,30,0.152,8.36
4.4920,-0.01396,-0.01222,0.63181,0.00000,0.00000,0.00000,64,12,14,7,66,0,61,-14,ok,2,0,0.001,4,0.05,-0.50,9.01,30,0.165,8.36
4.5148,-0.01396,-0.01222,0.63181,0.00000,0.00000,0.00000,64,14,12,10,66,0,59,-14,ok,2,0,0.001,4,0.05,-0.50,9.01,30,0.177,8.36
4.5179,-0.01396,-0.01222,0.63181,0.00000,0.00000,0.00000,64,14,11,12,67,0,56,-13,ok,2,0,0.001,4,0.05,-0.50,9.01,30,0.190,8.36
4.5311,-0.00698,-0.02967,0.65799,0.00000,0.00000,0.00000,65,15,12,13,67,0,53,-12,ok,2,0,0.001,4,1.05,-0.20,11.23,31,0.000,8.36
4.5508,-0.00698,-0.02967,0.65799,0.00000,0.00000,0.00000,65,16,12,13,68,1,51,-12,ok,2,0,0.001,4,1.05,-0.20,11.23,31,0.012,8.36
4.5556,-0.00698,-0.02967,0.65799,0.00000,0.00000,0.00000,66,17,14,11,68,1,47,-11,ok,2,0,0.001,4,1.05,-0.20,11.23,31,0.025,8.36
4.5681,-0.00698,-0.02967,0.65799,0.00000,0.00000,0.00000,66,18,15,11,69,2,45,-11,ok,2,0,0.001,5,1.05,-0.20,11.23,31,0.037,8.36
4.5908,-0.00698,-0.02967,0.65799,0.00000,0.00000,0.00000,66,18,15,10,69,2,42,-9,ok,2,0,0.001,5,1.05,-0.20,11.23,31,0.050,8.36
4.5940,-0.00698,-0.02967,0.65799,0.00000,0.00000,0.00000,67,19,17,9,70,3,39,-9,ok,2,0,0.001,5,1.05,-0.20,11.23,31,0.063,8.36
4.6068,-0.00698,-0.02967,0.65799,0.00000,0.00000,0.00000,67,20,18,9,70,4,36,-7,ok,2,0,0.001,5,1.05,-0.20,11.23,31,0.076,8.36
4.6268,-0.00698,-0.02967,0.65799,0.00000,0.00000,0.00000,68,21,20,8,71,5,34,-5,ok,2,0,0.001,5,1.05,-0.20,11.23,31,0.089,8.36
4.6317,-0.00698,-0.02967,0.65799,0.00000,0.00000,0.00000,68,22,21,7,71,6,32,-4,ok,2,0,0.001,5,1.05,-0.20,11.23,31,0.101,8.36
4.6441,-0.00698,-0.02967,0.65799,0.00000,0.00000,0.00000,67,23,22,7,70,7,30,-1,ok,2,0,0.001,5,1.05,-0.20,11.23,31,0.114,8.36
4.6668,-0.00698,-0.02967,0.65799,0.00000,0.00000,0.00000,67,24,23,6,71,8,29,2,ok,2,0,0.001,5,1.05,-0.20,11.23,31,0.126,8.36
4.6699,-0.00698,-0.02967,0.65799,0.00000,0.00000,0.00000,67,25,25,5,71,9,27,5,ok,2,0,0.001,5,1.05,-0.20,11.23,31,0.139,8.36
4.6828,-0.00698,-0.02967,0.65799,0.00000,0.00000,0.00000,66,28,26,5,71,10,27,7,ok,2,0,0.001,5,1.05,-0.20,11.23,31,0.152,8.36
4.7028,-0.00698,-0.02967,0.65799,0.00000,0.00000,0.00000,65,29,27,4,71,11,29,6,ok,2,0,0.001,5,1.05,-0.20,11.23,31,0.164,8.36
4.7076,-0.00698,-0.02967,0.65799,0.00000,0.00000,0.00000,66,28,28,4,71,13,29,6,ok,2,0,0.001,5,1.05,-0.20,11.23,31,0.177,8.36
4.7200,-0.00698,-0.02967,0.65799,0.00000,0.00000,0.00000,69,25,30,3,72,14,30,4,ok,2,0,0.001,5,1.05,-0.20,11.23,31,0.189,8.36
4.7428,0.04538,-0.03142,0.73129,0.00000,0.00000,0.00000,71,21,31,2,71,15,32,3,ok,2,0,0.001,5,0.85,-0.51,10.37,32,0.000,8.36
4.7459,0.04538,-0.03142,0.73129,0.00000,0.00000,0.00000,72,17,33,2,71,18,33,3,ok,2,0,0.001,5,0.85,-0.51,10.37,32,0.013,8.36
4.7586,0.04538,-0.03142,0.73129,0.00000,0.00000,0.00000,72,15,34,2,72,18,34,2,ok,2,0,0.001,5,0.85,-0.51,10.37,32,0.026,8.36
4.7788,0.04538,-0.03142,0.73129,0.00000,0.00000,0.00000,72,14,35,2,71,21,36,1,ok,2,0,0.001,5,0.85,-0.51,10.37,32,0.039,8.36
4.7836,0.04538,-0.03142,0.73129,0.00000,0.00000,0.00000,72,11,36,2,71,22,38,1,ok,2,0,0.001,5,0.85,-0.51,10.37,32,0.051,8.36
4.7961,0.04538,-0.03142,0.73129,0.00000,0.00000,0.00000,71,7,38,2,71,23,39,2,ok,2,0,0.001,5,0.85,-0.51,10.37,32,0.064,8.36
4.8188,0.04538,-0.03142,0.73129,0.00000,0.00000,0.00000,71,5,39,2,71,25,40,1,ok,2,0,0.001,5,0.85,-0.51,10.37,32,0.076,8.36
4.8219,0.04538,-0.03142,0.73129,0.00000,0.00000,0.00000,70,1,40,2,70,27,42,1,ok,2,0,0.001,5,0.85,-0.51,10.37,32,0.089,8.36
4.8348,0.04538,-0.03142,0.73129,0.00000,0.00000,0.00000,69,-1,42,1,70,28,43,1,ok,2,0,0.001,5,0.85,-0.51,10.37,32,0.102,8.36
4.8548,0.04538,-0.03142,0.73129,0.00000,0.00000,0.00000,67,-3,43,2,71,28,44,1,ok,2,0,0.001,5,0.85,-0.51,10.37,32,0.115,8.36
4.8596,0.04538,-0.03142,0.73129,0.00000,0.00000,0.00000,65,-4,43,2,72,28,45,1,ok,2,0,0.001,5,0.85,-0.51,10.37,32,0.127,8.36
4.8720,0.04538,-0.03142,0.73129,0.00000,0.00000,0.00000,64,-6,45,2,73,26,46,0,ok,2,0,0.001,5,0.85,-0.51,10.37,32,0.140,8.36
4.8948,0.04538,-0.03142,0.73129,0.00000,0.00000,0.00000,63,-8,46,2,75,21,47,0,ok,2,0,0.001,5,0.85,-0.51,10.37,32,0.152,8.36
4.8979,0.04538,-0.03142,0.73129,0.00000,0.00000,0.00000,61,-9,48,3,77,16,49,0,ok,2,0,0.001,5,0.85,-0.51,10.37,32,0.165,8.36
4.9106,0.04538,-0.03142,0.73129,0.00000,0.00000,0.00000,59,-10,49,3,78,14,49,0,ok,2,0,0.001,5,0.85,-0.51,10.37,32,0.178,8.36
4.9308,0.04538,-0.03142,0.73129,0.00000,0.00000,0.00000,56,-11,50,3,78,13,50,0,ok,2,0,0.001,5,0.85,-0.51,10.37,32,0.191,8.36
4.9358,0.09076,0.02618,0.70860,0.00000,0.00000,0.00000,54,-12,50,5,78,11,51,0,ok,2,0,0.001,5,-0.30,0.60,10.35,33,0.000,8.36
4.9481,0.09076,0.02618,0.70860,0.00000,0.00000,0.00000,51,-11,51,6,78,8,52,0,ok,2,0,0.001,5,-0.30,0.60,10.35,33,0.013,8.36
4.9708,0.09076,0.02618,0.70860,0.00000,0.00000,0.00000,49,-11,52,5,78,5,53,0,ok,2,0,0.001,5,-0.30,0.60,10.35,33,0.025,8.36
4.9739,0.09076,0.02618,0.70860,0.00000,0.00000,0.00000,46,-11,53,6,77,2,54,0,ok,2,0,0.001,5,-0.30,0.60,10.35,33,0.038,8.36
4.9865,0.09076,0.02618,0.70860,0.00000,0.00000,0.00000,44,-11,53,7,76,-1,54,1,ok,2,0,0.001,5,-0.30,0.60,10.35,33,0.051,8.36
5.0068,0.09076,0.02618,0.70860,0.00000,0.00000,0.00000,42,-11,55,7,76,-3,55,0,ok,2,0,0.001,5,-0.30,0.60,10.35,33,0.064,8.36
5.0117,0.09076,0.02618,0.70860,0.00000,0.00000,0.00000,39,-10,56,7,75,-4,56,0,ok,2,0,0.001,5,-0.30,0.60,10.35,33,0.076,8.36
5.0305,0.09076,0.02618,0.70860,0.00000,0.00000,0.00000,36,-9,57,7,73,-7,57,-1,ok,2,0,0.001,5,-0.30,0.60,10.35,33,0.088,8.36
5.0468,0.09076,0.02618,0.70860,0.00000,0.00000,0.00000,34,-8,57,8,70,-7,57,0,ok,2,0,0.001,5,-0.30,0.60,10.35,33,0.101,8.36
5.0499,0.09076,0.02618,0.70860,0.00000,0.00000,0.00000,30,-6,58,8,69,-9,58,0,ok,2,0,0.001,5,-0.30,0.60,10.35,33,0.114,8.36
5.0626,0.09076,0.02618,0.70860,0.00000,0.00000,0.00000,27,-4,58,9,68,-11,59,1,ok,2,0,0.001,5,-0.30,0.60,10.35,33,0.127,8.36
5.0828,0.09076,0.02618,0.70860,0.00000,0.00000,0.00000,23,-2,60,11,66,-12,60,0,ok,2,0,0.001,5,-0.30,0.60,10.35,33,0.140,8.36
5.0879,0.09076,0.02618,0.70860,0.00000,0.00000,0.00000,21,-1,61,11,64,-13,61,0,ok,2,0,0.001,5,-0.30,0.60,10.35,33,0.152,8.36
5.1000,0.09076,0.02618,0.70860,0.00000,0.00000,0.00000,20,1,62,11,62,-13,63,-2,ok,2,0,0.002,5,-0.30,0.60,10.35,33,0.165,8.36
5.1228,0.09076,0.02618,0.70860,0.00000,0.00000,0.00000,18,3,62,12,59,-14,64,-1,ok,2,0,0.002,5,-0.30,0.60,10.35,33,0.177,8.36
5.1261,0.09076,0.02618,0.70860,0.00000,0.00000,0.00000,15,6,62,13,57,-14,65,-1,ok,2,0,0.002,5,-0.30,0.60,10.35,33,0.190,8.36
5.1388,0.06981,-0.02443,0.72606,0.00000,0.00000,0.00000,13,10,62,14,54,-13,65,-1,ok,2,0,0.002,5,0.41,0.13,10.42,34,0.000,8.36
5.1588,0.06981,-0.02443,0.72606,0.00000,0.00000,0.00000,12,12,63,15,52,-13,66,-1,ok,2,0,0.002,5,0.41,0.13,10.42,34,0.013,8.36
5.1638,0.06981,-0.02443,0.72606,0.00000,0.00000,0.00000,14,13,63,16,49,-13,67,0,ok,2,0,0.002,5,0.41,0.13,10.42,34,0.025,8.36
5.1761,0.06981,-0.02443,0.72606,0.00000,0.00000,0.00000,14,13,63,17,46,-12,67,0,ok,2,0,0.002,5,0.41,0.13,10.42,34,0.038,8.36
5.1988,0.06981,-0.02443,0.72606,0.00000,0.00000,0.00000,15,12,64,17,44,-11,68,1,ok,2,0,0.002,5,0.41,0.13,10.42,34,0.050,8.36
5.2019,0.06981,-0.02443,0.72606,0.00000,0.00000,0.00000,16,11,65,18,41,-10,69,1,ok,2,0,0.002,5,0.41,0.13,10.42,34,0.063,8.36
5.2145,0.06981,-0.02443,0.72606,0.00000,0.00000,0.00000,17,11,65,19,38,-9,70,2,ok,2,0,0.002,5,0.41,0.13,10.42,34,0.076,8.36
5.2348,0.06981,-0.02443,0.72606,0.00000,0.00000,0.00000,19,10,65,20,35,-8,70,2,ok,2,0,0.002,5,0.41,0.13,10.42,34,0.089,8.36
5.2396,0.06981,-0.02443,0.72606,0.00000,0.00000,0.00000,19,10,65,21,33,-6,71,3,ok,2,0,0.002,5,0.41,0.13,10.42,34,0.101,8.36
5.2520,0.06981,-0.02443,0.72606,0.00000,0.00000,0.00000,22,8,66,21,31,-5,71,5,ok,2,0,0.002,5,0.41,0.13,10.42,34,0.114,8.36
5.2748,0.06981,-0.02443,0.72606,0.00000,0.00000,0.00000,23,8,66,23,29,-2,72,5,ok,2,0,0.002,5,0.41,0.13,10.42,34,0.126,8.36
5.2780,0.06981,-0.02443,0.72606,0.00000,0.00000,0.00000,24,7,65,23,27,0,72,6,ok,2,0,0.002,5,0.41,0.13,10.42,34,0.139,8.36
5.2907,0.06981,-0.02443,0.72606,0.00000,0.00000,0.00000,25,6,65,24,26,4,72,8,ok,2,0,0.002,5,0.41,0.13,10.42,34,0.152,8.36
5.3108,0.06981,-0.02443,0.72606,0.00000,0.00000,0.00000,27,6,65,25,26,6,72,8,ok,2,0,0.002,5,0.41,0.13,10.42,34,0.165,8.36
5.3156,0.06981,-0.02443,0.72606,0.00000,0.00000,0.00000,28,5,64,28,28,6,73,9,ok,2,0,0.002,5,0.41,0.13,10.42,34,0.177,8.36
5.3281,0.06981,-0.02443,0.72606,0.00000,0.00000,0.00000,29,4,64,29,28,5,73,11,ok,2,0,0.002,5,0.41,0.13,10.42,34,0.190,8.36
5.3508,-0.05411,0.01396,0.73827,0.00000,0.00000,0.00000,30,4,65,28,29,3,73,12,ok,2,0,0.002,5,-0.08,-0.79,9.22,35,0.000,8.36
5.3539,-0.05411,0.01396,0.73827,0.00000,0.00000,0.00000,31,3,67,25,30,2,73,15,ok,2,0,0.002,5,-0.08,-0.79,9.22,35,0.013,8.36
5.3668,-0.05411,0.01396,0.73827,0.00000,0.00000,0.00000,33,3,70,21,31,2,73,16,ok,2,0,0.002,5,-0.08,-0.79,9.22,35,0.026,8.36
5.3868,-0.05411,0.01396,0.73827,0.00000,0.00000,0.00000,34,2,71,17,33,2,73,18,ok,2,0,0.002,5,-0.08,-0.79,9.22,35,0.038,8.36
5.3916,-0.05411,0.01396,0.73827,0.00000,0.00000,0.00000,35,2,71,15,34,1,73,20,ok,2,0,0.002,5,-0.08,-0.79,9.22,35,0.051,8.36
5.4041,-0.05411,0.01396,0.73827,0.00000,0.00000,0.00000,37,1,71,15,36,1,73,20,ok,2,0,0.002,5,-0.08,-0.79,9.22,35,0.063,8.36
5.4309,-0.05411,0.01396,0.73827,0.00000,0.00000,0.00000,38,1,71,11,37,1,73,23,ok,2,0,0.002,5,-0.08,-0.79,9.22,35,0.076,8.36
5.4340,-0.05411,0.01396,0.73827,0.00000,0.00000,0.00000,40,1,71,8,38,2,72,24,ok,2,0,0.002,5,-0.08,-0.79,9.22,35,0.093,8.36
5.4468,-0.05411,0.01396,0.73827,0.00000,0.00000,0.00000,41,1,70,6,40,1,73,25,ok,2,0,0.002,5,-0.08,-0.79,9.22,35,0.106,8.36
5.4668,-0.05411,0.01396,0.73827,0.00000,0.00000,0.00000,43,0,70,3,41,2,72,26,ok,0,0,0.002,5,-0.08,-0.79,9.22,35,0.119,8.36
5.4717,-0.05411,0.01396,0.73827,0.00000,0.00000,0.00000,44,0,68,1,42,1,72,28,ok,2,0,0.002,5,-0.08,-0.79,9.22,35,0.131,8.36
5.4841,-0.05411,0.01396,0.73827,0.00000,0.00000,0.00000,45,0,67,0,44,1,72,29,ok,2,0,0.002,5,-0.08,-0.79,9.22,35,0.144,8.36
5.5068,-0.05411,0.01396,0.73827,0.00000,0.00000,0.00000,45,0,65,-2,45,0,73,29,ok,2,0,0.002,5,-0.08,-0.79,9.22,35,0.156,8.36
5.5100,-0.05411,0.01396,0.73827,0.00000,0.00000,0.00000,47,1,64,-4,46,0,74,29,ok,2,0,0.002,5,-0.08,-0.79,9.22,35,0.169,8.36
5.5228,-0.05411,0.01396,0.73827,0.00000,0.00000,0.00000,48,1,63,-6,47,0,76,26,ok,2,0,0.002,5,-0.08,-0.79,9.22,35,0.182,8.36
5.5428,-0.05934,-0.01920,0.71558,0.00000,0.00000,0.00000,50,2,61,-7,48,0,78,21,ok,2,0,0.002,5,-0.12,-0.58,9.81,36,0.000,8.36
5.5476,-0.05934,-0.01920,0.71558,0.00000,0.00000,0.00000,51,1,59,-8,49,0,79,17,ok,2,0,0.002,5,-0.12,-0.58,9.81,36,0.012,8.36
5.5601,-0.05934,-0.01920,0.71558,0.00000,0.00000,0.00000,51,1,56,-8,50,0,80,14,ok,2,0,0.002,5,-0.12,-0.58,9.81,36,0.025,8.36
5.5828,-0.05934,-0.01920,0.71558,0.00000,0.00000,0.00000,51,3,54,-9,52,0,81,14,ok,2,0,0.002,5,-0.12,-0.58,9.81,36,0.038,8.36
5.5861,-0.05934,-0.01920,0.71558,0.00000,0.00000,0.00000,52,4,51,-9,53,0,80,11,ok,2,0,0.002,6,-0.12,-0.58,9.81,36,0.051,8.36
5.5985,-0.05934,-0.01920,0.71558,0.00000,0.00000,0.00000,53,4,49,-9,54,0,80,7,ok,2,0,0.002,6,-0.12,-0.58,9.81,36,0.064,8.36
5.6188,-0.05934,-0.01920,0.71558,0.00000,0.00000,0.00000,54,5,46,-9,55,1,80,4,ok,2,0,0.002,6,-0.12,-0.58,9.81,36,0.076,8.36
5.6236,-0.05934,-0.01920,0.71558,0.00000,0.00000,0.00000,54,6,43,-9,55,1,79,2,ok,2,0,0.002,6,-0.12,-0.58,9.81,36,0.088,8.36
5.6365,-0.05934,-0.01920,0.71558,0.00000,0.00000,0.00000,56,6,41,-9,57,1,78,-2,ok,2,0,0.002,6,-0.12,-0.58,9.81,36,0.101,8.36
5.6588,-0.05934,-0.01920,0.71558,0.00000,0.00000,0.00000,56,6,39,-8,58,0,78,-3,ok,2,0,0.002,6,-0.12,-0.58,9.81,36,0.113,8.36
5.6619,-0.05934,-0.01920,0.71558,0.00000,0.00000,0.00000,58,7,35,-7,58,1,77,-5,ok,2,0,0.002,6,-0.12,-0.58,9.81,36,0.127,8.36
5.6746,-0.05934,-0.01920,0.71558,0.00000,0.00000,0.00000,58,8,33,-6,59,1,75,-7,ok,2,0,0.002,6,-0.12,-0.58,9.81,36,0.140,8.36
5.6948,-0.05934,-0.01920,0.71558,0.00000,0.00000,0.00000,59,8,29,-5,60,1,72,-7,ok,2,0,0.002,6,-0.12,-0.58,9.81,36,0.152,8.36
5.6996,-0.05934,-0.01920,0.71558,0.00000,0.00000,0.00000,60,9,26,-3,61,1,71,-9,ok,2,0,0.002,6,-0.12,-0.58,9.81,36,0.165,8.36
5.7121,-0.05934,-0.01920,0.71558,0.00000,0.00000,0.00000,61,10,22,-1,62,1,69,-11,ok,2,0,0.002,6,-0.12,-0.58,9.81,36,0.177,8.36
5.7348,-0.05934,-0.01920,0.71558,0.00000,0.00000,0.00000,62,10,20,0,64,-1,67,-12,ok,2,0,0.002,6,-0.12,-0.58,9.81,36,0.190,8.36
5.7382,-0.11519,-0.03142,0.82903,0.00000,0.00000,0.00000,63,11,18,1,64,-1,65,-13,ok,2,0,0.002,6,-0.23,-0.72,10.21,37,0.000,8.36
5.7506,-0.11519,-0.03142,0.82903,0.00000,0.00000,0.00000,63,12,16,4,65,0,63,-13,ok,2,0,0.002,6,-0.23,-0.72,10.21,37,0.013,8.36
5.7708,-0.11519,-0.03142,0.82903,0.00000,0.00000,0.00000,64,12,14,7,65,0,61,-14,ok,2,0,0.002,6,-0.23,-0.72,10.21,37,0.025,8.36
5.7758,-0.11519,-0.03142,0.82903,0.00000,0.00000,0.00000,64,13,12,10,66,0,59,-14,ok,2,0,0.002,6,-0.23,-0.72,10.21,37,0.038,8.36
5.7881,-0.11519,-0.03142,0.82903,0.00000,0.00000,0.00000,65,14,11,13,67,0,55,-12,ok,2,0,0.002,6,-0.23,-0.72,10.21,37,0.050,8.36
5.8108,-0.11519,-0.03142,0.82903,0.00000,0.00000,0.00000,65,15,12,13,67,0,53,-12,ok,2,0,0.002,6,-0.23,-0.72,10.21,37,0.063,8.36
5.8139,-0.11519,-0.03142,0.82903,0.00000,0.00000,0.00000,65,16,12,13,68,1,51,-12,ok,2,0,0.002,6,-0.23,-0.72,10.21,37,0.076,8.36
5.8266,-0.11519,-0.03142,0.82903,0.00000,0.00000,0.00000,66,17,14,12,68,1,47,-11,ok,2,0,0.002,6,-0.23,-0.72,10.21,37,0.089,8.36
5.8468,-0.11519,-0.03142,0.82903,0.00000,0.00000,0.00000,66,17,15,11,69,2,45,-10,ok,2,0,0.002,6,-0.23,-0.72,10.21,37,0.101,8.36
5.8516,-0.11519,-0.03142,0.82903,0.00000,0.00000,0.00000,67,18,16,10,69,2,42,-9,ok,2,0,0.002,6,-0.23,-0.72,10.21,37,0.114,8.36
5.8641,-0.11519,-0.03142,0.82903,0.00000,0.00000,0.00000,67,18,17,9,70,3,39,-9,ok,2,0,0.002,6,-0.23,-0.72,10.21,37,0.126,8.36
5.8868,-0.11519,-0.03142,0.82903,0.00000,0.00000,0.00000,67,20,18,9,70,4,35,-7,ok,2,0,0.002,6,-0.23,-0.72,10.21,37,0.139,8.36
5.8901,-0.11519,-0.03142,0.82903,0.00000,0.00000,0.00000,68,21,20,8,71,5,34,-5,ok,2,0,0.002,6,-0.23,-0.72,10.21,37,0.152,8.36
5.9026,-0.11519,-0.03142,0.82903,0.00000,0.00000,0.00000,68,22,21,7,71,6,32,-4,ok,2,0,0.002,6,-0.23,-0.72,10.21,37,0.165,8.36
5.9228,-0.11519,-0.03142,0.82903,0.00000,0.00000,0.00000,67,23,22,7,70,7,30,-1,ok,2,0,0.002,6,-0.23,-0.72,10.21,37,0.177,8.36
5.9276,-0.11519,-0.03142,0.82903,0.00000,0.00000,0.00000,67,24,23,6,71,8,28,2,ok,2,0,0.002,6,-0.23,-0.72,10.21,37,0.190,8.36
5.9404,-0.04014,0.06632,0.85521,0.00000,0.00000,0.00000,67,25,25,5,71,9,27,5,ok,2,0,0.002,6,0.96,-0.50,10.52,38,0.000,8.36
5.9628,-0.04014,0.06632,0.85521,0.00000,0.00000,0.00000,66,28,26,5,71,10,27,7,ok,2,0,0.002,6,0.96,-0.50,10.52,38,0.013,8.36
5.9659,-0.04014,0.06632,0.85521,0.00000,0.00000,0.00000,65,29,27,4,71,12,29,6,ok,2,0,0.002,6,0.96,-0.50,10.52,38,0.026,8.36
5.9787,-0.04014,0.06632,0.85521,0.00000,0.00000,0.00000,66,28,28,4,71,13,29,6,ok,2,0,0.002,6,0.96,-0.50,10.52,38,0.039,8.36
5.9988,-0.04014,0.06632,0.85521,0.00000,0.00000,0.00000,69,25,29,3,72,15,30,4,ok,2,0,0.002,6,0.96,-0.50,10.52,38,0.051,8.36
6.0036,-0.04014,0.06632,0.85521,0.00000,0.00000,0.00000,71,21,30,2,71,16,31,3,ok,2,0,0.002,6,0.96,-0.50,10.52,38,0.063,8.36
6.0160,-0.04014,0.06632,0.85521,0.00000,0.00000,0.00000,72,17,32,2,71,18,33,3,ok,2,0,0.002,6,0.96,-0.50,10.52,38,0.076,8.36
6.0388,-0.04014,0.06632,0.85521,0.00000,0.00000,0.00000,72,15,33,2,72,19,34,2,ok,2,0,0.002,6,0.96,-0.50,10.52,38,0.089,8.36
6.0421,-0.04014,0.06632,0.85521,0.00000,0.00000,0.00000,72,14,35,1,71,21,36,1,ok,2,0,0.002,6,0.96,-0.50,10.52,38,0.102,8.36
6.0546,-0.04014,0.06632,0.85521,0.00000,0.00000,0.00000,72,11,36,1,71,22,38,1,ok,2,0,0.002,6,0.96,-0.50,10.52,38,0.115,8.36
6.0748,-0.04014,0.06632,0.85521,0.00000,0.00000,0.00000,71,8,37,2,71,24,39,2,ok,2,0,0.002,6,0.96,-0.50,10.52,38,0.127,8.36
6.0797,-0.04014,0.06632,0.85521,0.00000,0.00000,0.00000,71,5,39,2,71,26,40,2,ok,2,0,0.002,6,0.96,-0.50,10.52,38,0.140,8.36
6.0920,-0.04014,0.06632,0.85521,0.00000,0.00000,0.00000,70,1,40,2,71,28,42,2,ok,2,0,0.002,6,0.96,-0.50,10.52,38,0.152,8.36
6.1148,-0.04014,0.06632,0.85521,0.00000,0.00000,0.00000,69,-1,41,1,71,29,43,2,ok,2,0,0.002,6,0.96,-0.50,10.52,38,0.165,8.36
6.1179,-0.04014,0.06632,0.85521,0.00000,0.00000,0.00000,67,-3,43,2,71,29,44,1,ok,2,0,0.002,6,0.96,-0.50,10.52,38,0.178,8.36
6.1306,-0.04014,0.06632,0.85521,0.00000,0.00000,0.00000,65,-4,43,2,72,29,45,1,ok,2,0,0.002,6,0.96,-0.50,10.52,38,0.191,8.36
6.1508,0.09076,0.00698,0.91804,0.00000,0.00000,0.00000,64,-6,45,2,74,26,46,0,ok,2,0,0.002,6,-0.21,1.26,10.02,39,0.000,8.36
6.1556,0.09076,0.00698,0.91804,0.00000,0.00000,0.00000,63,-8,46,2,76,22,48,0,ok,2,0,0.002,6,-0.21,1.26,10.02,39,0.012,8.36
6.1680,0.09076,0.00698,0.91804,0.00000,0.00000,0.00000,61,-9,48,3,77,17,49,0,ok,2,0,0.002,6,-0.21,1.26,10.02,39,0.025,8.36
6.1908,0.09076,0.00698,0.91804,0.00000,0.00000,0.00000,59,-10,49,3,78,15,49,0,ok,2,0,0.002,6,-0.21,1.26,10.02,39,0.038,8.36
6.1939,0.09076,0.00698,0.91804,0.00000,0.00000,0.00000,56,-11,50,3,78,14,50,0,ok,2,0,0.002,6,-0.21,1.26,10.02,39,0.051,8.36
6.2066,0.09076,0.00698,0.91804,0.00000,0.00000,0.00000,54,-11,50,5,79,12,51,0,ok,2,0,0.002,6,-0.21,1.26,10.02,39,0.063,8.36
6.2268,0.09076,0.00698,0.91804,0.00000,0.00000,0.00000,51,-11,51,6,79,8,52,0,ok,2,0,0.002,6,-0.21,1.26,10.02,39,0.076,8.36
6.2316,0.09076,0.00698,0.91804,0.00000,0.00000,0.00000,49,-11,52,5,78,5,53,0,ok,2,0,0.002,6,-0.21,1.26,10.02,39,0.088,8.36
6.2441,0.09076,0.00698,0.91804,0.00000,0.00000,0.00000,47,-11,53,6,77,3,54,0,ok,2,0,0.002,6,-0.21,1.26,10.02,39,0.101,8.36
6.2668,0.09076,0.00698,0.91804,0.00000,0.00000,0.00000,44,-11,53,7,76,-1,55,1,ok,2,0,0.002,6,-0.21,1.26,10.02,39,0.113,8.36
6.2699,0.09076,0.00698,0.91804,0.00000,0.00000,0.00000,42,-11,55,7,76,-3,55,0,ok,2,0,0.002,6,-0.21,1.26,10.02,39,0.127,8.36
6.2825,0.09076,0.00698,0.91804,0.00000,0.00000,0.00000,40,-10,56,7,75,-4,56,1,ok,2,0,0.002,6,-0.21,1.26,10.02,39,0.140,8.36
6.3028,0.09076,0.00698,0.91804,0.00000,0.00000,0.00000,37,-9,57,8,73,-7,57,-1,ok,2,0,0.002,6,-0.21,1.26,10.02,39,0.152,8.36
6.3076,0.09076,0.00698,0.91804,0.00000,0.00000,0.00000,34,-8,57,8,70,-7,58,0,ok,2,0,0.002,6,-0.21,1.26,10.02,39,0.164,8.36
6.3201,0.09076,0.00698,0.91804,0.00000,0.00000,0.00000,31,-6,58,9,69,-9,58,0,ok,2,0,0.002,6,-0.21,1.26,10.02,39,0.177,8.36
6.3428,0.09076,0.00698,0.91804,0.00000,0.00000,0.00000,28,-4,58,9,68,-11,60,1,ok,2,0,0.002,6,-0.21,1.26,10.02,39,0.190,8.36
6.3462,0.05061,-0.05760,0.93026,0.00000,0.00000,0.00000,23,-2,60,11,66,-12,60,0,ok,2,0,0.002,6,-0.65,0.69,9.18,40,0.000,8.36
6.3585,0.05061,-0.05760,0.93026,0.00000,0.00000,0.00000,22,-1,61,11,64,-13,61,0,ok,2,0,0.002,6,-0.65,0.69,9.18,40,0.013,8.36
6.3788,0.05061,-0.05760,0.93026,0.00000,0.00000,0.00000,20,1,62,12,62,-13,63,-2,ok,2,0,0.002,6,-0.65,0.69,9.18,40,0.025,8.36
6.3836,0.05061,-0.05760,0.93026,0.00000,0.00000,0.00000,18,3,62,12,59,-14,64,-1,ok,2,0,0.002,6,-0.65,0.69,9.18,40,0.038,8.36
6.3960,0.05061,-0.05760,0.93026,0.00000,0.00000,0.00000,16,6,62,13,57,-14,65,-1,ok,2,0,0.002,6,-0.65,0.69,9.18,40,0.050,8.36
6.4188,0.05061,-0.05760,0.93026,0.00000,0.00000,0.00000,14,10,63,14,54,-14,65,-1,ok,2,0,0.002,6,-0.65,0.69,9.18,40,0.063,8.36
6.4219,0.05061,-0.05760,0.93026,0.00000,0.00000,0.00000,12,13,63,15,52,-13,66,-1,ok,2,0,0.002,6,-0.65,0.69,9.18,40,0.076,8.36
6.4346,0.05061,-0.05760,0.93026,0.00000,0.00000,0.00000,14,13,64,16,49,-13,67,0,ok,2,0,0.002,6,-0.65,0.69,9.18,40,0.089,8.36
6.4548,0.05061,-0.05760,0.93026,0.00000,0.00000,0.00000,14,13,64,17,46,-12,67,0,ok,2,0,0.002,6,-0.65,0.69,9.18,40,0.101,8.36
6.4596,0.05061,-0.05760,0.93026,0.00000,0.00000,0.00000,15,12,64,17,44,-12,68,1,ok,2,0,0.002,6,-0.65,0.69,9.18,40,0.114,8.36
6.4721,0.05061,-0.05760,0.93026,0.00000,0.00000,0.00000,17,12,65,18,41,-10,69,1,ok,2,0,0.002,6,-0.65,0.69,9.18,40,0.126,8.36
6.4948,0.05061,-0.05760,0.93026,0.00000,0.00000,0.00000,17,11,65,19,38,-10,70,2,ok,2,0,0.002,6,-0.65,0.69,9.18,40,0.139,8.36
6.4981,0.05061,-0.05760,0.93026,0.00000,0.00000,0.00000,19,10,65,20,35,-8,70,2,ok,2,0,0.002,6,-0.65,0.69,9.18,40,0.152,8.36
6.5106,0.05061,-0.05760,0.93026,0.00000,0.00000,0.00000,20,10,65,21,33,-7,71,3,ok,2,0,0.002,6,-0.65,0.69,9.18,40,0.165,8.36
6.5308,0.05061,-0.05760,0.93026,0.00000,0.00000,0.00000,22,8,66,22,31,-5,71,5,ok,2,0,0.002,6,-0.65,0.69,9.18,40,0.177,8.36
6.5358,0.05061,-0.05760,0.93026,0.00000,0.00000,0.00000,23,8,66,23,29,-2,72,5,ok,2,0,0.002,6,-0.65,0.69,9.18,40,0.190,8.36
6.5483,-0.03840,-0.01571,0.95819,0.00000,0.00000,0.00000,24,7,65,23,27,0,72,6,ok,2,0,0.002,6,0.59,-0.36,10.73,41,0.000,8.36
6.5708,-0.03840,-0.01571,0.95819,0.00000,0.00000,0.00000,26,6,65,24,26,3,72,8,ok,2,0,0.002,6,0.59,-0.36,10.73,41,0.012,8.36
6.5739,-0.03840,-0.01571,0.95819,0.00000,0.00000,0.00000,27,6,65,25,26,6,72,9,ok,0,0,0.002,6,0.59,-0.36,10.73,41,0.026,8.36
6.5866,-0.03840,-0.01571,0.95819,0.00000,0.00000,0.00000,28,5,64,28,28,5,73,10,ok,2,0,0.002,6,0.59,-0.36,10.73,41,0.039,8.36
6.6068,-0.03840,-0.01571,0.95819,0.00000,0.00000,0.00000,29,4,63,29,28,5,73,12,ok,2,0,0.002,7,0.59,-0.36,10.73,41,0.051,8.36
6.6116,-0.03840,-0.01571,0.95819,0.00000,0.00000,0.00000,31,4,65,28,29,3,73,13,ok,2,0,0.002,7,0.59,-0.36,10.73,41,0.063,8.36
6.6241,-0.03840,-0.01571,0.95819,0.00000,0.00000,0.00000,32,3,67,25,30,2,73,15,ok,2,0,0.002,7,0.59,-0.36,10.73,41,0.076,8.36
6.6469,-0.03840,-0.01571,0.95819,0.00000,0.00000,0.00000,33,3,70,21,31,2,73,16,ok,2,0,0.002,7,0.59,-0.36,10.73,41,0.088,8.36
6.6502,-0.03840,-0.01571,0.95819,0.00000,0.00000,0.00000,34,2,71,17,33,2,73,18,ok,2,0,0.002,7,0.59,-0.36,10.73,41,0.102,8.36
6.6627,-0.03840,-0.01571,0.95819,0.00000,0.00000,0.00000,36,2,71,15,34,1,73,20,ok,2,0,0.002,7,0.59,-0.36,10.73,41,0.115,8.36
6.6828,-0.03840,-0.01571,0.95819,0.00000,0.00000,0.00000,37,1,71,15,37,1,73,20,ok,2,0,0.002,7,0.59,-0.36,10.73,41,0.127,8.36
6.6877,-0.03840,-0.01571,0.95819,0.00000,0.00000,0.00000,39,1,71,11,37,1,72,22,ok,2,0,0.002,7,0.59,-0.36,10.73,41,0.140,8.36
6.7001,-0.03840,-0.01571,0.95819,0.00000,0.00000,0.00000,40,1,71,8,39,2,72,24,ok,2,0,0.002,7,0.59,-0.36,10.73,41,0.152,8.36
6.7228,-0.03840,-0.01571,0.95819,0.00000,0.00000,0.00000,41,1,70,5,40,1,73,25,ok,2,0,0.002,7,0.59,-0.36,10.73,41,0.165,8.36
6.7259,-0.03840,-0.01571,0.95819,0.00000,0.00000,0.00000,43,0,69,3,41,1,72,26,ok,2,0,0.002,7,0.59,-0.36,10.73,41,0.178,8.36
6.7390,-0.00873,0.02443,0.95819,0.00000,0.00000,0.00000,44,0,68,1,42,1,72,28,ok,2,0,0.002,7,-0.02,-1.44,8.50,42,0.000,8.36
6.7628,-0.00873,0.02443,0.95819,0.00000,0.00000,0.00000,46,0,67,-1,43,1,72,29,ok,0,0,0.002,7,-0.02,-1.44,8.50,42,0.013,8.36
6.7661,-0.00873,0.02443,0.95819,0.00000,0.00000,0.00000,46,0,65,-2,45,0,73,29,ok,2,0,0.002,7,-0.02,-1.44,8.50,42,0.027,8.36
6.7785,-0.00873,0.02443,0.95819,0.00000,0.00000,0.00000,48,1,64,-4,46,0,74,28,ok,2,0,0.002,7,-0.02,-1.44,8.50,42,0.040,8.36
6.7988,-0.00873,0.02443,0.95819,0.00000,0.00000,0.00000,49,1,63,-6,47,0,76,26,ok,2,0,0.002,7,-0.02,-1.44,8.50,42,0.053,8.36
6.8035,-0.00873,0.02443,0.95819,0.00000,0.00000,0.00000,50,2,61,-7,48,0,78,21,ok,2,0,0.002,7,-0.02,-1.44,8.50,42,0.065,8.36
6.8161,-0.00873,0.02443,0.95819,0.00000,0.00000,0.00000,51,1,58,-8,49,0,79,17,ok,2,0,0.002,7,-0.02,-1.44,8.50,42,0.077,8.36
6.8388,-0.00873,0.02443,0.95819,0.00000,0.00000,0.00000,52,2,56,-8,50,0,80,14,ok,2,0,0.002,7,-0.02,-1.44,8.50,42,0.090,8.36
6.8422,-0.00873,0.02443,0.95819,0.00000,0.00000,0.00000,52,4,54,-9,51,0,81,14,ok,2,0,0.002,7,-0.02,-1.44,8.50,42,0.103,8.36
6.8545,-0.00873,0.02443,0.95819,0.00000,0.00000,0.00000,53,5,51,-9,53,0,81,11,ok,2,0,0.002,7,-0.02,-1.44,8.50,42,0.116,8.36
6.8748,-0.00873,0.02443,0.95819,0.00000,0.00000,0.00000,54,4,48,-9,54,0,81,7,ok,2,0,0.002,7,-0.02,-1.44,8.50,42,0.129,8.36
6.8796,-0.00873,0.02443,0.95819,0.00000,0.00000,0.00000,54,5,46,-9,55,1,80,4,ok,2,0,0.002,7,-0.02,-1.44,8.50,42,0.141,8.36
6.8921,-0.00873,0.02443,0.95819,0.00000,0.00000,0.00000,55,6,43,-9,55,1,80,2,ok,2,0,0.002,7,-0.02,-1.44,8.50,42,0.154,8.36
6.9148,-0.00873,0.02443,0.95819,0.00000,0.00000,0.00000,57,6,41,-9,56,2,79,-1,ok,2,0,0.002,7,-0.02,-1.44,8.50,42,0.166,8.36
6.9179,-0.00873,0.02443,0.95819,0.00000,0.00000,0.00000,57,6,38,-8,58,1,78,-3,ok,2,0,0.002,7,-0.02,-1.44,8.50,42,0.179,8.36
6.9304,-0.00873,0.02443,0.95819,0.00000,0.00000,0.00000,58,7,35,-7,58,1,77,-5,ok,2,0,0.002,7,-0.02,-1.44,8.50,42,0.192,8.36
6.9508,-0.00873,0.02443,0.95819,0.00000,0.00000,0.00000,59,8,32,-6,59,2,75,-7,ok,2,0,0.002,7,-0.02,-1.44,8.50,42,0.205,8.36
6.9558,-0.07505,-0.00524,1.01055,0.00000,0.00000,0.00000,60,8,28,-5,60,2,72,-7,ok,2,0,0.002,7,0.54,-1.10,10.31,43,0.000,8.36
6.9681,-0.07505,-0.00524,1.01055,0.00000,0.00000,0.00000,60,9,26,-3,61,2,71,-9,ok,2,0,0.002,7,0.54,-1.10,10.31,43,0.012,8.36
6.9908,-0.07505,-0.00524,1.01055,0.00000,0.00000,0.00000,62,10,21,-1,62,1,70,-10,ok,2,0,0.002,7,0.54,-1.10,10.31,43,0.025,8.36
6.9940,-0.07505,-0.00524,1.01055,0.00000,0.00000,0.00000,62,10,20,0,64,-1,68,-11,ok,2,0,0.002,7,0.54,-1.10,10.31,43,0.038,8.36
7.0067,-0.07505,-0.00524,1.01055,0.00000,0.00000,0.00000,63,11,18,1,64,-1,65,-13,ok,2,0,0.002,7,0.54,-1.10,10.31,43,0.051,8.36
7.0268,-0.07505,-0.00524,1.01055,0.00000,0.00000,0.00000,64,11,16,4,65,0,64,-13,ok,2,0,0.002,7,0.54,-1.10,10.31,43,0.064,8.36
7.0315,-0.07505,-0.00524,1.01055,0.00000,0.00000,0.00000,64,12,14,7,65,0,61,-13,ok,2,0,0.002,7,0.54,-1.10,10.31,43,0.076,8.36
7.0441,-0.07505,-0.00524,1.01055,0.00000,0.00000,0.00000,64,13,12,10,66,1,59,-14,ok,2,0,0.002,7,0.54,-1.10,10.31,43,0.089,8.36
7.0668,-0.07505,-0.00524,1.01055,0.00000,0.00000,0.00000,65,14,11,13,67,1,56,-12,ok,2,0,0.002,7,0.54,-1.10,10.31,43,0.101,8.36
7.0699,-0.07505,-0.00524,1.01055,0.00000,0.00000,0.00000,65,15,12,13,67,1,53,-12,ok,2,0,0.002,7,0.54,-1.10,10.31,43,0.114,8.36
7.0824,-0.07505,-0.00524,1.01055,0.00000,0.00000,0.00000,65,16,12,13,68,1,51,-12,ok,2,0,0.002,7,0.54,-1.10,10.31,43,0.127,8.36
7.1028,-0.07505,-0.00524,1.01055,0.00000,0.00000,0.00000,66,16,14,12,68,1,47,-11,ok,2,0,0.002,7,0.54,-1.10,10.31,43,0.140,8.36
7.1076,-0.07505,-0.00524,1.01055,0.00000,0.00000,0.00000,66,17,15,11,69,2,45,-10,ok,2,0,0.002,7,0.54,-1.10,10.31,43,0.152,8.36
7.1201,-0.07505,-0.00524,1.01055,0.00000,0.00000,0.00000,67,18,15,10,69,3,42,-9,ok,2,0,0.002,7,0.54,-1.10,10.31,43,0.164,8.36
7.1428,-0.07505,-0.00524,1.01055,0.00000,0.00000,0.00000,67,18,17,9,70,3,39,-8,ok,2,0,0.002,7,0.54,-1.10,10.31,43,0.177,8.36
7.1460,-0.07505,-0.00524,1.01055,0.00000,0.00000,0.00000,67,20,17,9,70,5,36,-6,ok,2,0,0.002,7,0.54,-1.10,10.31,43,0.190,8.36
7.1589,-0.01047,0.08378,1.04371,0.00000,0.00000,0.00000,68,21,20,8,71,5,34,-5,ok,2,0,0.002,7,0.36,-0.79,9.48,44,0.000,8.36
7.1788,-0.01047,0.08378,1.04371,0.00000,0.00000,0.00000,68,22,21,7,71,6,32,-3,ok,2,0,0.002,7,0.36,-0.79,9.48,44,0.012,8.36
7.1836,-0.01047,0.08378,1.04371,0.00000,0.00000,0.00000,67,23,22,7,70,8,30,0,ok,2,0,0.002,7,0.36,-0.79,9.48,44,0.025,8.36
7.1961,-0.01047,0.08378,1.04371,0.00000,0.00000,0.00000,67,24,23,6,71,9,29,2,ok,2,0,0.002,7,0.36,-0.79,9.48,44,0.038,8.36
7.2228,-0.01047,0.08378,1.04371,0.00000,0.00000,0.00000,67,25,24,5,71,10,27,5,ok,2,0,0.002,7,0.36,-0.79,9.48,44,0.050,8.36
7.2262,-0.01047,0.08378,1.04371,0.00000,0.00000,0.00000,66,28,25,5,71,11,27,8,ok,2,0,0.002,7,0.36,-0.79,9.48,44,0.067,8.36
7.2384,-0.01047,0.08378,1.04371,0.00000,0.00000,0.00000,65,29,27,4,71,12,29,6,ok,2,0,0.002,7,0.36,-0.79,9.48,44,0.080,8.36
7.2588,-0.01047,0.08378,1.04371,0.00000,0.00000,0.00000,67,28,28,4,71,14,29,6,ok,2,0,0.002,7,0.36,-0.79,9.48,44,0.092,8.36
7.2635,-0.01047,0.08378,1.04371,0.00000,0.00000,0.00000,69,25,29,3,72,15,31,4,ok,2,0,0.002,7,0.36,-0.79,9.48,44,0.105,8.36
7.2761,-0.01047,0.08378,1.04371,0.00000,0.00000,0.00000,72,21,30,2,71,16,32,3,ok,2,0,0.002,7,0.36,-0.79,9.48,44,0.117,8.36
7.2989,-0.01047,0.08378,1.04371,0.00000,0.00000,0.00000,72,17,32,2,71,18,33,3,ok,2,0,0.002,7,0.36,-0.79,9.48,44,0.130,8.36
7.3020,-0.01047,0.08378,1.04371,0.00000,0.00000,0.00000,73,15,33,2,72,19,35,3,ok,2,0,0.002,7,0.36,-0.79,9.48,44,0.143,8.36
7.3146,-0.01047,0.08378,1.04371,0.00000,0.00000,0.00000,72,14,35,2,71,22,36,2,ok,2,0,0.002,7,0.36,-0.79,9.48,44,0.156,8.36
7.3348,-0.01047,0.08378,1.04371,0.00000,0.00000,0.00000,72,11,36,2,71,23,38,2,ok,2,0,0.002,7,0.36,-0.79,9.48,44,0.169,8.36
7.3399,-0.01047,0.08378,1.04371,0.00000,0.00000,0.00000,72,7,37,2,71,24,39,2,ok,2,0,0.002,7,0.36,-0.79,9.48,44,0.181,8.36
7.3524,-0.01047,0.08378,1.04371,0.00000,0.00000,0.00000,71,5,39,2,71,26,41,2,ok,2,0,0.002,7,0.36,-0.79,9.48,44,0.194,8.36
7.3748,0.05585,0.01745,1.09781,0.00000,0.00000,0.00000,70,1,40,2,70,28,42,2,ok,2,0,0.002,7,-0.04,0.96,10.54,45,0.000,8.36
7.3779,0.05585,0.01745,1.09781,0.00000,0.00000,0.00000,69,-1,41,1,70,29,43,2,ok,2,0,0.002,7,-0.04,0.96,10.54,45,0.013,8.36
7.3905,0.05585,0.01745,1.09781,0.00000,0.00000,0.00000,68,-3,43,2,71,29,44,1,ok,2,0,0.002,7,-0.04,0.96,10.54,45,0.026,8.36
7.4108,0.05585,0.01745,1.09781,0.00000,0.00000,0.00000,66,-4,43,2,72,29,45,1,ok,2,0,0.002,7,-0.04,0.96,10.54,45,0.038,8.36
7.4155,0.05585,0.01745,1.09781,0.00000,0.00000,0.00000,64,-6,45,2,73,27,47,0,ok,2,0,0.002,7,-0.04,0.96,10.54,45,0.051,8.36
7.4281,0.05585,0.01745,1.09781,0.00000,0.00000,0.00000,64,-8,46,2,75,22,48,0,ok,2,0,0.002,7,-0.04,0.96,10.54,45,0.063,8.36
7.4508,0.05585,0.01745,1.09781,0.00000,0.00000,0.00000,61,-9,48,3,77,17,49,1,ok,2,0,0.002,7,-0.04,0.96,10.54,45,0.076,8.36
7.4540,0.05585,0.01745,1.09781,0.00000,0.00000,0.00000,59,-10,49,3,78,15,49,1,ok,2,0,0.002,7,-0.04,0.96,10.54,45,0.089,8.36
7.4665,0.05585,0.01745,1.09781,0.00000,0.00000,0.00000,57,-11,50,3,78,14,50,1,ok,2,0,0.002,7,-0.04,0.96,10.54,45,0.102,8.36
7.4868,0.05585,0.01745,1.09781,0.00000,0.00000,0.00000,55,-11,50,5,78,12,51,1,ok,2,0,0.002,7,-0.04,0.96,10.54,45,0.114,8.36
7.4916,0.05585,0.01745,1.09781,0.00000,0.00000,0.00000,52,-11,51,6,78,8,52,1,ok,2,0,0.002,7,-0.04,0.96,10.54,45,0.127,8.36
7.5041,0.05585,0.01745,1.09781,0.00000,0.00000,0.00000,49,-11,52,5,78,5,53,1,ok,2,0,0.002,7,-0.04,0.96,10.54,45,0.139,8.36
7.5268,0.05585,0.01745,1.09781,0.00000,0.00000,0.00000,47,-11,53,6,77,3,54,0,ok,2,0,0.002,7,-0.04,0.96,10.54,45,0.152,8.36
7.5302,0.05585,0.01745,1.09781,0.00000,0.00000,0.00000,44,-11,53,7,76,-1,55,1,ok,2,0,0.002,7,-0.04,0.96,10.54,45,0.165,8.36
7.5425,0.05585,0.01745,1.09781,0.00000,0.00000,0.00000,42,-11,55,7,76,-3,55,0,ok,2,0,0.002,7,-0.04,0.96,10.54,45,0.178,8.36
7.5628,0.08901,-0.05934,1.08909,0.00000,0.00000,0.00000,40,-10,55,7,75,-4,57,1,ok,2,0,0.002,7,-0.07,0.78,9.77,46,0.000,8.36
7.5677,0.08901,-0.05934,1.08909,0.00000,0.00000,0.00000,37,-9,57,8,73,-7,57,-1,ok,2,0,0.002,7,-0.07,0.78,9.77,46,0.012,8.36
7.5801,0.08901,-0.05934,1.08909,0.00000,0.00000,0.00000,34,-8,57,9,70,-7,58,0,ok,2,0,0.002,7,-0.07,0.78,9.77,46,0.025,8.36
7.6028,0.08901,-0.05934,1.08909,0.00000,0.00000,0.00000,31,-6,58,9,69,-9,58,0,ok,2,0,0.002,7,-0.07,0.78,9.77,46,0.038,8.36
7.6061,0.08901,-0.05934,1.08909,0.00000,0.00000,0.00000,28,-4,59,9,68,-11,60,1,ok,2,0,0.002,7,-0.07,0.78,9.77,46,0.051,8.36
7.6185,0.08901,-0.05934,1.08909,0.00000,0.00000,0.00000,24,-2,60,11,66,-12,60,0,ok,2,0,0.002,8,-0.07,0.78,9.77,46,0.064,8.36
7.6388,0.08901,-0.05934,1.08909,0.00000,0.00000,0.00000,22,-1,61,11,64,-13,61,0,ok,2,0,0.002,8,-0.07,0.78,9.77,46,0.076,8.36
7.6435,0.08901,-0.05934,1.08909,0.00000,0.00000,0.00000,20,1,62,12,62,-13,64,-2,ok,2,0,0.002,8,-0.07,0.78,9.77,46,0.089,8.36
7.6561,0.08901,-0.05934,1.08909,0.00000,0.00000,0.00000,18,3,62,12,59,-14,64,-1,ok,2,0,0.002,8,-0.07,0.78,9.77,46,0.101,8.36
7.6789,0.08901,-0.05934,1.08909,0.00000,0.00000,0.00000,16,7,62,13,57,-14,65,-1,ok,2,0,0.002,8,-0.07,0.78,9.77,46,0.114,8.36
7.6822,0.08901,-0.05934,1.08909,0.00000,0.00000,0.00000,14,10,62,14,54,-14,65,-1,ok,2,0,0.002,8,-0.07,0.78,9.77,46,0.127,8.36
7.6946,0.08901,-0.05934,1.08909,0.00000,0.00000,0.00000,12,13,63,15,51,-13,66,-1,ok,2,0,0.002,8,-0.07,0.78,9.77,46,0.140,8.36
7.7148,0.08901,-0.05934,1.08909,0.00000,0.00000,0.00000,14,13,63,16,49,-13,67,0,ok,2,0,0.002,8,-0.07,0.78,9.77,46,0.152,8.36
7.7195,0.08901,-0.05934,1.08909,0.00000,0.00000,0.00000,14,13,63,17,46,-12,67,0,ok,2,0,0.002,8,-0.07,0.78,9.77,46,0.165,8.36
7.7324,0.08901,-0.05934,1.08909,0.00000,0.00000,0.00000,16,12,64,17,43,-11,68,1,ok,2,0,0.002,8,-0.07,0.78,9.77,46,0.177,8.36
7.7548,0.08901,-0.05934,1.08909,0.00000,0.00000,0.00000,17,12,64,19,40,-10,69,1,ok,2,0,0.002,8,-0.07,0.78,9.77,46,0.190,8.36
7.7581,0.08901,-0.05934,1.08909,0.00000,0.00000,0.00000,17,11,65,19,38,-9,70,2,ok,2,0,0.002,8,-0.07,0.78,9.77,46,0.203,8.36
7.7709,0.01745,0.00349,1.13097,0.00000,0.00000,0.00000,19,10,65,20,34,-8,70,2,ok,2,0,0.002,8,-0.25,-0.44,9.25,47,0.000,8.36
7.7908,0.01745,0.00349,1.13097,0.00000,0.00000,0.00000,20,10,65,21,33,-6,71,3,ok,2,0,0.002,8,-0.25,-0.44,9.25,47,0.013,8.36
7.7955,0.01745,0.00349,1.13097,0.00000,0.00000,0.00000,22,9,65,22,31,-5,71,5,ok,2,0,0.002,8,-0.25,-0.44,9.25,47,0.025,8.36
7.8081,0.01745,0.00349,1.13097,0.00000,0.00000,0.00000,23,8,65,23,28,-2,72,5,ok,2,0,0.002,8,-0.25,-0.44,9.25,47,0.038,8.36
7.8308,0.01745,0.00349,1.13097,0.00000,0.00000,0.00000,25,7,65,23,27,0,72,7,ok,2,0,0.002,8,-0.25,-0.44,9.25,47,0.050,8.36
7.8340,0.01745,0.00349,1.13097,0.00000,0.00000,0.00000,26,6,65,24,26,4,72,8,ok,2,0,0.002,8,-0.25,-0.44,9.25,47,0.063,8.36
7.8468,0.01745,0.00349,1.13097,0.00000,0.00000,0.00000,27,6,64,25,26,6,73,9,ok,2,0,0.002,8,-0.25,-0.44,9.25,47,0.076,8.36
7.8668,0.01745,0.00349,1.13097,0.00000,0.00000,0.00000,28,6,64,28,27,6,73,10,ok,2,0,0.002,8,-0.25,-0.44,9.25,47,0.089,8.36
7.8716,0.01745,0.00349,1.13097,0.00000,0.00000,0.00000,30,4,63,29,28,6,73,11,ok,2,0,0.002,8,-0.25,-0.44,9.25,47,0.101,8.36
7.8842,0.01745,0.00349,1.13097,0.00000,0.00000,0.00000,31,4,65,28,29,4,73,13,ok,2,0,0.002,8,-0.25,-0.44,9.25,47,0.114,8.36
7.9068,0.01745,0.00349,1.13097,0.00000,0.00000,0.00000,32,3,67,25,30,3,73,15,ok,2,0,0.002,8,-0.25,-0.44,9.25,47,0.126,8.36
7.9101,0.01745,0.00349,1.13097,0.00000,0.00000,0.00000,33,3,70,21,31,3,73,16,ok,2,0,0.002,8,-0.25,-0.44,9.25,47,0.139,8.36
7.9225,0.01745,0.00349,1.13097,0.00000,0.00000,0.00000,35,2,71,17,33,2,73,18,ok,2,0,0.002,8,-0.25,-0.44,9.25,47,0.152,8.36
7.9428,0.01745,0.00349,1.13097,0.00000,0.00000,0.00000,36,2,71,15,34,1,73,20,ok,2,0,0.002,8,-0.25,-0.44,9.25,47,0.165,8.36
7.9476,0.01745,0.00349,1.13097,0.00000,0.00000,0.00000,38,1,71,15,36,2,74,20,ok,2,0,0.002,8,-0.25,-0.44,9.25,47,0.177,8.36
7.9603,0.01745,0.00349,1.13097,0.00000,0.00000,0.00000,39,1,71,11,37,2,73,23,ok,2,0,0.002,8,-0.25,-0.44,9.25,47,0.189,8.36
7.9828,-0.00524,0.02793,1.09781,0.00000,0.00000,0.00000,41,1,71,8,38,2,72,24,ok,2,0,0.002,8,0.40,0.04,12.37,48,0.000,8.36
7.9861,-0.00524,0.02793,1.09781,0.00000,0.00000,0.00000,42,1,70,6,40,1,73,25,ok,2,0,0.002,8,0.40,0.04,12.37,48,0.013,8.36
7.9985,-0.00524,0.02793,1.09781,0.00000,0.00000,0.00000,43,0,69,3,41,2,73,27,ok,2,0,0.002,8,0.40,0.04,12.37,48,0.026,8.36
8.0188,-0.00524,0.02793,1.09781,0.00000,0.00000,0.00000,44,0,68,1,42,1,72,28,ok,2,0,0.002,8,0.40,0.04,12.37,48,0.039,8.36
8.0235,-0.00524,0.02793,1.09781,0.00000,0.00000,0.00000,46,0,67,0,43,1,72,29,ok,2,0,0.002,8,0.40,0.04,12.37,48,0.051,8.36
8.0361,-0.00524,0.02793,1.09781,0.00000,0.00000,0.00000,46,0,65,-2,44,0,73,29,ok,2,0,0.002,8,0.40,0.04,12.37,48,0.064,8.36
8.0588,-0.00524,0.02793,1.09781,0.00000,0.00000,0.00000,48,1,64,-4,46,0,74,29,ok,2,0,0.002,8,0.40,0.04,12.37,48,0.076,8.36
8.0621,-0.00524,0.02793,1.09781,0.00000,0.00000,0.00000,49,1,63,-6,47,0,76,26,ok,2,0,0.002,8,0.40,0.04,12.37,48,0.089,8.36
8.0745,-0.00524,0.02793,1.09781,0.00000,0.00000,0.00000,50,2,61,-7,48,0,78,21,ok,2,0,0.002,8,0.40,0.04,12.37,48,0.102,8.36
8.0948,-0.00524,0.02793,1.09781,0.00000,0.00000,0.00000,52,1,58,-8,49,0,79,17,ok,2,0,0.002,8,0.40,0.04,12.37,48,0.115,8.36
8.0995,-0.00524,0.02793,1.09781,0.00000,0.00000,0.00000,52,1,56,-8,50,1,81,14,ok,2,0,0.002,8,0.40,0.04,12.37,48,0.127,8.36
8.1121,-0.00524,0.02793,1.09781,0.00000,0.00000,0.00000,52,4,54,-9,51,0,81,14,ok,2,0,0.002,8,0.40,0.04,12.37,48,0.140,8.36
8.1348,-0.00524,0.02793,1.09781,0.00000,0.00000,0.00000,53,5,51,-9,52,1,81,11,ok,2,0,0.002,8,0.40,0.04,12.37,48,0.152,8.36
8.1381,-0.00524,0.02793,1.09781,0.00000,0.00000,0.00000,54,4,48,-9,54,1,81,7,ok,2,0,0.002,8,0.40,0.04,12.37,48,0.165,8.36
8.1505,-0.00524,0.02793,1.09781,0.00000,0.00000,0.00000,54,5,46,-9,54,2,80,4,ok,2,0,0.002,8,0.40,0.04,12.37,48,0.178,8.36
8.1708,-0.00524,0.02793,1.09781,0.00000,0.00000,0.00000,55,6,43,-9,55,1,80,2,ok,2,0,0.002,8,0.40,0.04,12.37,48,0.191,8.36
8.1758,-0.05934,-0.05061,1.17810,0.00000,0.00000,0.00000,57,6,41,-9,56,2,79,-1,ok,2,0,0.002,8,0.45,-1.01,10.11,49,0.000,8.36
8.1881,-0.05934,-0.05061,1.17810,0.00000,0.00000,0.00000,57,6,38,-8,57,0,79,-3,ok,2,0,0.002,8,0.45,-1.01,10.11,49,0.013,8.36
8.2108,-0.05934,-0.05061,1.17810,0.00000,0.00000,0.00000,59,7,35,-7,58,1,77,-4,ok,2,0,0.002,8,0.45,-1.01,10.11,49,0.025,8.36
8.2139,-0.05934,-0.05061,1.17810,0.00000,0.00000,0.00000,59,8,32,-6,59,1,75,-6,ok,2,0,0.002,8,0.45,-1.01,10.11,49,0.038,8.36
8.2265,-0.05934,-0.05061,1.17810,0.00000,0.00000,0.00000,60,8,29,-5,60,1,72,-7,ok,2,0,0.002,8,0.45,-1.01,10.11,49,0.051,8.36
8.2468,-0.05934,-0.05061,1.17810,0.00000,0.00000,0.00000,60,9,26,-3,61,2,71,-9,ok,2,0,0.002,8,0.45,-1.01,10.11,49,0.064,8.36
8.2516,-0.05934,-0.05061,1.17810,0.00000,0.00000,0.00000,62,10,21,-1,62,1,70,-10,ok,2,0,0.002,8,0.45,-1.01,10.11,49,0.076,8.36
8.2641,-0.05934,-0.05061,1.17810,0.00000,0.00000,0.00000,62,10,20,0,64,-1,68,-12,ok,2,0,0.002,8,0.45,-1.01,10.11,49,0.089,8.36
8.2868,-0.05934,-0.05061,1.17810,0.00000,0.00000,0.00000,63,11,18,2,64,-1,65,-13,ok,2,0,0.002,8,0.45,-1.01,10.11,49,0.101,8.36
8.2900,-0.05934,-0.05061,1.17810,0.00000,0.00000,0.00000,64,12,16,4,65,0,63,-13,ok,2,0,0.002,8,0.45,-1.01,10.11,49,0.114,8.36
8.3026,-0.05934,-0.05061,1.17810,0.00000,0.00000,0.00000,64,12,14,7,65,0,61,-14,ok,2,0,0.002,8,0.45,-1.01,10.11,49,0.127,8.36
8.3228,-0.05934,-0.05061,1.17810,0.00000,0.00000,0.00000,64,14,12,10,66,0,59,-14,ok,2,0,0.002,8,0.45,-1.01,10.11,49,0.140,8.36
8.3277,-0.05934,-0.05061,1.17810,0.00000,0.00000,0.00000,65,14,11,13,67,0,56,-13,ok,2,0,0.002,8,0.45,-1.01,10.11,49,0.152,8.36
8.3402,-0.05934,-0.05061,1.17810,0.00000,0.00000,0.00000,65,15,12,13,67,1,53,-12,ok,2,0,0.002,8,0.45,-1.01,10.11,49,0.165,8.36
8.3628,-0.05934,-0.05061,1.17810,0.00000,0.00000,0.00000,66,16,12,13,68,1,51,-12,ok,2,0,0.002,8,0.45,-1.01,10.11,49,0.177,8.36
8.3662,-0.05934,-0.05061,1.17810,0.00000,0.00000,0.00000,66,17,14,12,68,1,47,-11,ok,2,0,0.002,8,0.45,-1.01,10.11,49,0.190,8.36
8.3789,0.04712,0.00524,1.20777,0.00000,0.00000,0.00000,66,18,15,11,69,2,45,-10,ok,2,0,0.002,8,0.75,-0.04,10.39,50,0.000,8.36
8.3988,0.04712,0.00524,1.20777,0.00000,0.00000,0.00000,67,18,15,10,68,3,42,-9,ok,2,0,0.002,8,0.75,-0.04,10.39,50,0.013,8.36
8.4036,0.04712,0.00524,1.20777,0.00000,0.00000,0.00000,67,19,17,9,69,4,40,-9,ok,2,0,0.002,8,0.75,-0.04,10.39,50,0.025,8.36
8.4161,0.04712,0.00524,1.20777,0.00000,0.00000,0.00000,67,20,18,9,69,5,36,-7,ok,2,0,0.002,8,0.75,-0.04,10.39,50,0.038,8.36
8.4388,0.04712,0.00524,1.20777,0.00000,0.00000,0.00000,68,21,20,8,70,5,35,-6,ok,2,0,0.002,8,0.75,-0.04,10.39,50,0.050,8.36
8.4419,0.04712,0.00524,1.20777,0.00000,0.00000,0.00000,68,22,21,7,70,6,32,-4,ok,2,0,0.002,8,0.75,-0.04,10.39,50,0.063,8.36
8.4547,0.04712,0.00524,1.20777,0.00000,0.00000,0.00000,68,23,22,7,70,8,30,-1,ok,2,0,0.002,8,0.75,-0.04,10.39,50,0.076,8.36
8.4748,0.04712,0.00524,1.20777,0.00000,0.00000,0.00000,68,24,23,6,71,9,29,2,ok,2,0,0.002,8,0.75,-0.04,10.39,50,0.089,8.36
8.4795,0.04712,0.00524,1.20777,0.00000,0.00000,0.00000,68,25,24,5,71,9,28,5,ok,2,0,0.002,8,0.75,-0.04,10.39,50,0.101,8.36
8.4921,0.04712,0.00524,1.20777,0.00000,0.00000,0.00000,67,28,25,5,71,11,27,7,ok,2,0,0.002,8,0.75,-0.04,10.39,50,0.113,8.36
8.5148,0.04712,0.00524,1.20777,0.00000,0.00000,0.00000,66,29,27,4,71,12,29,6,ok,2,0,0.002,8,0.75,-0.04,10.39,50,0.126,8.36
8.5180,0.04712,0.00524,1.20777,0.00000,0.00000,0.00000,67,28,28,4,71,13,30,6,ok,2,0,0.002,8,0.75,-0.04,10.39,50,0.139,8.36
8.5306,0.04712,0.00524,1.20777,0.00000,0.00000,0.00000,70,25,29,3,71,15,31,4,ok,2,0,0.002,8,0.75,-0.04,10.39,50,0.152,8.36
8.5508,0.04712,0.00524,1.20777,0.00000,0.00000,0.00000,72,21,31,3,71,16,32,3,ok,2,0,0.002,8,0.75,-0.04,10.39,50,0.165,8.36
8.5556,0.04712,0.00524,1.20777,0.00000,0.00000,0.00000,73,17,32,2,70,18,34,3,ok,2,0,0.002,8,0.75,-0.04,10.39,50,0.177,8.36
8.5683,0.04712,0.00524,1.20777,0.00000,0.00000,0.00000,73,15,33,2,71,19,35,2,ok,2,0,0.002,8,0.75,-0.04,10.39,50,0.189,8.36
8.5908,0.00698,0.04014,1.33169,0.00000,0.00000,0.00000,73,14,35,2,70,21,37,1,ok,2,0,0.002,8,-0.05,-0.38,11.24,51,0.000,8.36
8.5939,0.00698,0.04014,1.33169,0.00000,0.00000,0.00000,73,11,36,2,70,22,39,2,ok,2,0,0.003,8,-0.05,-0.38,11.24,51,0.013,8.36
8.6067,0.00698,0.04014,1.33169,0.00000,0.00000,0.00000,72,7,37,2,70,24,39,2,ok,2,0,0.003,8,-0.05,-0.38,11.24,51,0.026,8.36
8.6268,0.00698,0.04014,1.33169,0.00000,0.00000,0.00000,71,5,38,2,71,26,41,2,ok,2,0,0.003,8,-0.05,-0.38,11.24,51,0.039,8.36
8.6315,0.00698,0.04014,1.33169,0.00000,0.00000,0.00000,71,1,40,2,70,28,42,2,ok,2,0,0.003,9,-0.05,-0.38,11.24,51,0.051,8.36
8.6441,0.00698,0.04014,1.33169,0.00000,0.00000,0.00000,69,-1,41,2,70,29,43,2,ok,2,0,0.003,9,-0.05,-0.38,11.24,51,0.064,8.36
8.6668,0.00698,0.04014,1.33169,0.00000,0.00000,0.00000,68,-3,43,2,70,29,44,1,ok,2,0,0.003,9,-0.05,-0.38,11.24,51,0.076,8.36
8.6700,0.00698,0.04014,1.33169,0.00000,0.00000,0.00000,66,-4,43,2,72,29,46,1,ok,2,0,0.003,9,-0.05,-0.38,11.24,51,0.089,8.36
8.6826,0.00698,0.04014,1.33169,0.00000,0.00000,0.00000,65,-6,45,3,73,26,47,0,ok,2,0,0.003,9,-0.05,-0.38,11.24,51,0.102,8.36
8.7028,0.00698,0.04014,1.33169,0.00000,0.00000,0.00000,64,-8,46,3,75,22,48,0,ok,2,0,0.003,9,-0.05,-0.38,11.24,51,0.114,8.36
8.7076,0.00698,0.04014,1.33169,0.00000,0.00000,0.00000,62,-9,48,4,77,17,49,1,ok,2,0,0.003,9,-0.05,-0.38,11.24,51,0.127,8.36
8.7201,0.00698,0.04014,1.33169,0.00000,0.00000,0.00000,59,-10,49,3,78,15,49,1,ok,2,0,0.003,9,-0.05,-0.38,11.24,51,0.140,8.36
8.7428,0.00698,0.04014,1.33169,0.00000,0.00000,0.00000,57,-11,49,3,78,14,50,1,ok,2,0,0.003,9,-0.05,-0.38,11.24,51,0.152,8.36
8.7461,0.00698,0.04014,1.33169,0.00000,0.00000,0.00000,55,-11,50,5,78,12,51,1,ok,2,0,0.003,9,-0.05,-0.38,11.24,51,0.165,8.36
8.7585,0.00698,0.04014,1.33169,0.00000,0.00000,0.00000,52,-11,51,6,78,8,52,1,ok,2,0,0.003,9,-0.05,-0.38,11.24,51,0.178,8.36
8.7788,0.00698,0.04014,1.33169,0.00000,0.00000,0.00000,49,-11,52,6,78,5,53,1,ok,2,0,0.003,9,-0.05,-0.38,11.24,51,0.191,8.36
8.7838,0.12217,0.00175,1.29852,0.00000,0.00000,0.00000,47,-11,53,6,77,3,54,0,ok,2,0,0.003,9,-0.22,2.17,9.49,52,0.000,8.36
8.7961,0.12217,0.00175,1.29852,0.00000,0.00000,0.00000,44,-11,53,7,76,0,55,1,ok,2,0,0.003,9,-0.22,2.17,9.49,52,0.013,8.36
8.8188,0.12217,0.00175,1.29852,0.00000,0.00000,0.00000,42,-11,55,7,76,-2,56,0,ok,2,0,0.003,9,-0.22,2.17,9.49,52,0.025,8.36
8.8220,0.12217,0.00175,1.29852,0.00000,0.00000,0.00000,40,-10,56,7,74,-4,57,0,ok,2,0,0.003,9,-0.22,2.17,9.49,52,0.038,8.36
8.8345,0.12217,0.00175,1.29852,0.00000,0.00000,0.00000,37,-9,57,8,73,-7,57,-1,ok,2,0,0.003,9,-0.22,2.17,9.49,52,0.051,8.36
8.8548,0.12217,0.00175,1.29852,0.00000,0.00000,0.00000,34,-7,57,8,70,-6,58,0,ok,2,0,0.003,9,-0.22,2.17,9.49,52,0.064,8.36
8.8595,0.12217,0.00175,1.29852,0.00000,0.00000,0.00000,31,-6,58,9,69,-9,58,0,ok,2,0,0.003,9,-0.22,2.17,9.49,52,0.076,8.36
8.8723,0.12217,0.00175,1.29852,0.00000,0.00000,0.00000,28,-4,58,9,68,-10,60,1,ok,2,0,0.003,9,-0.22,2.17,9.49,52,0.089,8.36
8.8948,0.12217,0.00175,1.29852,0.00000,0.00000,0.00000,24,-1,60,11,66,-12,60,0,ok,2,0,0.003,9,-0.22,2.17,9.49,52,0.101,8.36
8.8979,0.12217,0.00175,1.29852,0.00000,0.00000,0.00000,22,-1,60,11,64,-12,61,0,ok,2,0,0.003,9,-0.22,2.17,9.49,52,0.114,8.36
8.9106,0.12217,0.00175,1.29852,0.00000,0.00000,0.00000,21,1,61,11,62,-13,64,-2,ok,2,0,0.003,9,-0.22,2.17,9.49,52,0.127,8.36
8.9308,0.12217,0.00175,1.29852,0.00000,0.00000,0.00000,18,3,62,12,59,-13,64,-1,ok,2,0,0.003,9,-0.22,2.17,9.49,52,0.140,8.36
8.9355,0.12217,0.00175,1.29852,0.00000,0.00000,0.00000,16,7,62,13,57,-14,65,-1,ok,2,0,0.003,9,-0.22,2.17,9.49,52,0.152,8.36
8.9483,0.12217,0.00175,1.29852,0.00000,0.00000,0.00000,15,10,62,14,54,-13,66,0,ok,2,0,0.003,9,-0.22,2.17,9.49,52,0.165,8.36
8.9748,0.12217,0.00175,1.29852,0.00000,0.00000,0.00000,13,13,63,15,51,-12,66,-1,ok,2,0,0.003,9,-0.22,2.17,9.49,52,0.177,8.36
8.9782,0.11694,0.01396,1.31772,0.00000,0.00000,0.00000,15,13,63,16,49,-12,67,0,ok,2,0,0.003,9,0.51,0.65,9.66,53,0.000,8.36
8.9905,0.11694,0.01396,1.31772,0.00000,0.00000,0.00000,15,13,63,17,46,-11,68,0,ok,2,0,0.003,9,0.51,0.65,9.66,53,0.013,8.36
9.0108,0.11694,0.01396,1.31772,0.00000,0.00000,0.00000,16,12,64,17,44,-11,69,1,ok,2,0,0.003,9,0.51,0.65,9.66,53,0.025,8.36
9.0156,0.11694,0.01396,1.31772,0.00000,0.00000,0.00000,17,12,64,18,40,-9,70,1,ok,2,0,0.003,9,0.51,0.65,9.66,53,0.038,8.36
9.0282,0.11694,0.01396,1.31772,0.00000,0.00000,0.00000,18,11,65,19,38,-9,70,2,ok,2,0,0.003,9,0.51,0.65,9.66,53,0.050,8.36
9.0508,0.11694,0.01396,1.31772,0.00000,0.00000,0.00000,20,10,65,20,35,-7,70,2,ok,2,0,0.003,9,0.51,0.65,9.66,53,0.063,8.36
9.0539,0.11694,0.01396,1.31772,0.00000,0.00000,0.00000,20,10,65,21,33,-6,71,3,ok,2,0,0.003,9,0.51,0.65,9.66,53,0.076,8.36
9.0665,0.11694,0.01396,1.31772,0.00000,0.00000,0.00000,23,9,65,22,31,-4,72,5,ok,2,0,0.003,9,0.51,0.65,9.66,53,0.089,8.36
9.0868,0.11694,0.01396,1.31772,0.00000,0.00000,0.00000,24,8,65,23,28,-1,72,5,ok,2,0,0.003,9,0.51,0.65,9.66,53,0.101,8.36
9.0915,0.11694,0.01396,1.31772,0.00000,0.00000,0.00000,25,7,65,23,27,1,72,7,ok,2,0,0.003,9,0.51,0.65,9.66,53,0.114,8.36
9.1041,0.11694,0.01396,1.31772,0.00000,0.00000,0.00000,26,6,65,24,26,4,72,8,ok,2,0,0.003,9,0.51,0.65,9.66,53,0.126,8.36
9.1268,0.11694,0.01396,1.31772,0.00000,0.00000,0.00000,28,6,64,25,25,7,73,9,ok,2,0,0.003,9,0.51,0.65,9.66,53,0.139,8.36
9.1301,0.11694,0.01396,1.31772,0.00000,0.00000,0.00000,29,6,64,28,27,6,73,10,ok,2,0,0.003,9,0.51,0.65,9.66,53,0.152,8.36
9.1426,0.11694,0.01396,1.31772,0.00000,0.00000,0.00000,30,4,63,29,28,6,73,11,ok,2,0,0.003,9,0.51,0.65,9.66,53,0.165,8.36
9.1628,0.11694,0.01396,1.31772,0.00000,0.00000,0.00000,31,4,65,28,29,4,73,13,ok,2,0,0.003,9,0.51,0.65,9.66,53,0.177,8.36
9.1676,0.11694,0.01396,1.31772,0.00000,0.00000,0.00000,32,3,67,25,30,3,74,15,ok,2,0,0.003,9,0.51,0.65,9.66,53,0.190,8.36
9.1805,0.03491,0.01396,1.28107,0.00000,0.00000,0.00000,34,3,69,21,31,3,74,16,ok,2,0,0.003,9,-0.10,0.62,9.20,54,0.000,8.36
9.2028,0.03491,0.01396,1.28107,0.00000,0.00000,0.00000,35,2,70,18,32,3,73,18,ok,2,0,0.003,9,-0.10,0.62,9.20,54,0.012,8.36
9.2060,0.03491,0.01396,1.28107,0.00000,0.00000,0.00000,36,2,71,15,33,1,73,20,ok,2,0,0.003,9,-0.10,0.62,9.20,54,0.026,8.36
9.2185,0.03491,0.01396,1.28107,0.00000,0.00000,0.00000,38,1,71,15,36,2,74,21,ok,2,0,0.003,9,-0.10,0.62,9.20,54,0.038,8.36
9.2388,0.03491,0.01396,1.28107,0.00000,0.00000,0.00000,39,1,71,11,36,2,73,23,ok,2,0,0.003,9,-0.10,0.62,9.20,54,0.051,8.36
9.2436,0.03491,0.01396,1.28107,0.00000,0.00000,0.00000,41,1,70,9,38,2,73,24,ok,2,0,0.003,9,-0.10,0.62,9.20,54,0.063,8.36
9.2561,0.03491,0.01396,1.28107,0.00000,0.00000,0.00000,42,1,70,6,39,2,73,25,ok,2,0,0.003,9,-0.10,0.62,9.20,54,0.076,8.36
9.2788,0.03491,0.01396,1.28107,0.00000,0.00000,0.00000,44,0,69,3,40,2,73,27,ok,0,0,0.003,9,-0.10,0.62,9.20,54,0.088,8.36
9.2820,0.03491,0.01396,1.28107,0.00000,0.00000,0.00000,45,0,68,1,41,1,73,28,ok,0,0,0.003,9,-0.10,0.62,9.20,54,0.102,8.36
9.2944,0.03491,0.01396,1.28107,0.00000,0.00000,0.00000,46,0,67,0,43,1,72,29,ok,0,0,0.003,9,-0.10,0.62,9.20,54,0.114,8.36
9.3148,0.03491,0.01396,1.28107,0.00000,0.00000,0.00000,46,0,65,-1,44,0,74,29,ok,2,0,0.003,9,-0.10,0.62,9.20,54,0.127,8.36
9.3197,0.03491,0.01396,1.28107,0.00000,0.00000,0.00000,48,0,64,-3,46,0,75,29,ok,2,0,0.003,9,-0.10,0.62,9.20,54,0.139,8.36
9.3321,0.03491,0.01396,1.28107,0.00000,0.00000,0.00000,49,1,63,-6,47,0,76,26,ok,2,0,0.003,9,-0.10,0.62,9.20,54,0.152,8.36
9.3548,0.03491,0.01396,1.28107,0.00000,0.00000,0.00000,51,2,61,-7,48,1,78,21,ok,2,0,0.003,9,-0.10,0.62,9.20,54,0.164,8.36
9.3580,0.03491,0.01396,1.28107,0.00000,0.00000,0.00000,52,1,58,-8,48,1,79,17,ok,2,0,0.003,9,-0.10,0.62,9.20,54,0.178,8.36
9.3706,0.03491,0.01396,1.28107,0.00000,0.00000,0.00000,52,2,56,-8,50,1,81,14,ok,2,0,0.003,9,-0.10,0.62,9.20,54,0.190,8.36
9.3908,-0.09250,-0.02618,1.34390,0.00000,0.00000,0.00000,52,4,54,-9,51,1,81,14,ok,2,0,0.003,9,0.00,-0.35,10.66,55,0.000,8.36
9.3956,-0.09250,-0.02618,1.34390,0.00000,0.00000,0.00000,53,4,51,-9,52,0,81,11,ok,2,0,0.003,9,0.00,-0.35,10.66,55,0.012,8.36
9.4084,-0.09250,-0.02618,1.34390,0.00000,0.00000,0.00000,54,4,48,-9,53,0,81,8,ok,2,0,0.003,9,0.00,-0.35,10.66,55,0.025,8.36
9.4308,-0.09250,-0.02618,1.34390,0.00000,0.00000,0.00000,55,5,46,-8,54,1,81,4,ok,2,0,0.003,9,0.00,-0.35,10.66,55,0.038,8.36
9.4340,-0.09250,-0.02618,1.34390,0.00000,0.00000,0.00000,55,6,43,-8,55,1,80,3,ok,2,0,0.003,9,0.00,-0.35,10.66,55,0.051,8.36
9.4465,-0.09250,-0.02618,1.34390,0.00000,0.00000,0.00000,57,6,41,-9,56,1,79,-1,ok,2,0,0.003,9,0.00,-0.35,10.66,55,0.063,8.36
9.4668,-0.09250,-0.02618,1.34390,0.00000,0.00000,0.00000,57,6,38,-8,57,1,79,-3,ok,2,0,0.003,9,0.00,-0.35,10.66,55,0.076,8.36
9.4715,-0.09250,-0.02618,1.34390,0.00000,0.00000,0.00000,59,7,35,-7,57,1,77,-4,ok,2,0,0.003,9,0.00,-0.35,10.66,55,0.088,8.36
9.4841,-0.09250,-0.02618,1.34390,0.00000,0.00000,0.00000,59,8,32,-6,58,2,75,-6,ok,2,0,0.003,9,0.00,-0.35,10.66,55,0.101,8.36
9.5068,-0.09250,-0.02618,1.34390,0.00000,0.00000,0.00000,60,8,29,-5,59,2,72,-7,ok,2,0,0.003,9,0.00,-0.35,10.66,55,0.113,8.36
9.5099,-0.09250,-0.02618,1.34390,0.00000,0.00000,0.00000,60,9,26,-3,60,2,71,-9,ok,2,0,0.003,9,0.00,-0.35,10.66,55,0.127,8.36
9.5225,-0.09250,-0.02618,1.34390,0.00000,0.00000,0.00000,62,10,21,-1,61,1,70,-11,ok,2,0,0.003,9,0.00,-0.35,10.66,55,0.140,8.36
9.5428,-0.09250,-0.02618,1.34390,0.00000,0.00000,0.00000,62,10,20,0,64,-1,68,-12,ok,2,0,0.003,9,0.00,-0.35,10.66,55,0.152,8.36
9.5477,-0.09250,-0.02618,1.34390,0.00000,0.00000,0.00000,64,11,18,1,64,0,65,-13,ok,2,0,0.003,9,0.00,-0.35,10.66,55,0.164,8.36
9.5601,-0.09250,-0.02618,1.34390,0.00000,0.00000,0.00000,64,12,16,4,65,0,63,-13,ok,2,0,0.003,9,0.00,-0.35,10.66,55,0.177,8.36
9.5828,-0.09250,-0.02618,1.34390,0.00000,0.00000,0.00000,64,12,14,7,65,0,61,-14,ok,2,0,0.003,9,0.00,-0.35,10.66,55,0.190,8.36
9.5862,-0.00175,0.00175,1.33343,0.00000,0.00000,0.00000,64,13,12,10,66,1,59,-14,ok,2,0,0.003,9,0.66,0.56,10.03,56,0.000,8.36
9.5987,-0.00175,0.00175,1.33343,0.00000,0.00000,0.00000,65,14,11,13,66,1,56,-13,ok,2,0,0.003,9,0.66,0.56,10.03,56,0.013,8.36
9.6188,-0.00175,0.00175,1.33343,0.00000,0.00000,0.00000,65,15,12,13,67,1,53,-12,ok,2,0,0.003,9,0.66,0.56,10.03,56,0.025,8.36
9.6236,-0.00175,0.00175,1.33343,0.00000,0.00000,0.00000,66,16,12,13,67,2,51,-12,ok,2,0,0.003,9,0.66,0.56,10.03,56,0.038,8.36
9.6361,-0.00175,0.00175,1.33343,0.00000,0.00000,0.00000,66,17,14,12,68,2,48,-11,ok,2,0,0.003,9,0.66,0.56,10.03,56,0.050,8.36
9.6588,-0.00175,0.00175,1.33343,0.00000,0.00000,0.00000,67,18,15,11,68,3,45,-10,ok,2,0,0.003,9,0.66,0.56,10.03,56,0.063,8.36
9.6620,-0.00175,0.00175,1.33343,0.00000,0.00000,0.00000,67,18,15,10,68,3,42,-9,ok,2,0,0.003,10,0.66,0.56,10.03,56,0.076,8.36
9.6745,-0.00175,0.00175,1.33343,0.00000,0.00000,0.00000,68,19,17,9,69,4,40,-8,ok,2,0,0.003,10,0.66,0.56,10.03,56,0.089,8.36
9.6948,-0.00175,0.00175,1.33343,0.00000,0.00000,0.00000,68,20,17,9,69,5,36,-7,ok,2,0,0.003,10,0.66,0.56,10.03,56,0.101,8.36
9.6996,-0.00175,0.00175,1.33343,0.00000,0.00000,0.00000,69,21,19,8,70,5,35,-5,ok,2,0,0.003,10,0.66,0.56,10.03,56,0.114,8.36
9.7123,-0.00175,0.00175,1.33343,0.00000,0.00000,0.00000,69,22,20,7,70,6,32,-3,ok,2,0,0.003,10,0.66,0.56,10.03,56,0.126,8.36
9.7348,-0.00175,0.00175,1.33343,0.00000,0.00000,0.00000,68,23,22,7,70,8,30,0,ok,2,0,0.003,10,0.66,0.56,10.03,56,0.139,8.36
9.7380,-0.00175,0.00175,1.33343,0.00000,0.00000,0.00000,68,24,23,6,71,9,29,2,ok,2,0,0.003,10,0.66,0.56,10.03,56,0.152,8.36
9.7507,-0.00175,0.00175,1.33343,0.00000,0.00000,0.00000,68,25,24,5,71,10,28,6,ok,2,0,0.003,10,0.66,0.56,10.03,56,0.165,8.36
9.7708,-0.00175,0.00175,1.33343,0.00000,0.00000,0.00000,67,28,26,5,71,11,27,8,ok,2,0,0.003,10,0.66,0.56,10.03,56,0.177,8.36
9.7758,-0.00175,0.00175,1.33343,0.00000,0.00000,0.00000,66,29,27,4,71,12,29,6,ok,2,0,0.003,10,0.66,0.56,10.03,56,0.190,8.36
9.7884,0.01745,0.04887,1.39103,0.00000,0.00000,0.00000,67,28,28,4,71,14,30,6,ok,2,0,0.003,10,1.17,-0.57,10.96,57,0.000,8.36
9.8108,0.01745,0.04887,1.39103,0.00000,0.00000,0.00000,70,25,29,3,71,15,31,4,ok,2,0,0.003,10,1.17,-0.57,10.96,57,0.013,8.36
9.8140,0.01745,0.04887,1.39103,0.00000,0.00000,0.00000,72,21,30,3,71,16,32,3,ok,2,0,0.003,10,1.17,-0.57,10.96,57,0.026,8.36
9.8265,0.01745,0.04887,1.39103,0.00000,0.00000,0.00000,73,17,32,2,71,18,34,3,ok,2,0,0.003,10,1.17,-0.57,10.96,57,0.039,8.36
9.8468,0.01745,0.04887,1.39103,0.00000,0.00000,0.00000,73,15,33,2,71,19,35,2,ok,2,0,0.003,10,1.17,-0.57,10.96,57,0.051,8.36
9.8516,0.01745,0.04887,1.39103,0.00000,0.00000,0.00000,73,14,35,2,70,22,37,2,ok,2,0,0.003,10,1.17,-0.57,10.96,57,0.064,8.36
9.8643,0.01745,0.04887,1.39103,0.00000,0.00000,0.00000,73,11,36,2,70,23,39,2,ok,2,0,0.003,10,1.17,-0.57,10.96,57,0.076,8.36
9.8868,0.01745,0.04887,1.39103,0.00000,0.00000,0.00000,72,8,37,2,71,24,39,2,ok,2,0,0.003,10,1.17,-0.57,10.96,57,0.089,8.36
9.8899,0.01745,0.04887,1.39103,0.00000,0.00000,0.00000,71,5,38,2,71,26,41,2,ok,2,0,0.003,10,1.17,-0.57,10.96,57,0.102,8.36
9.9025,0.01745,0.04887,1.39103,0.00000,0.00000,0.00000,71,1,40,2,70,28,42,2,ok,2,0,0.003,10,1.17,-0.57,10.96,57,0.115,8.36
9.9228,0.01745,0.04887,1.39103,0.00000,0.00000,0.00000,69,-1,41,2,70,29,43,2,ok,2,0,0.003,10,1.17,-0.57,10.96,57,0.127,8.36
9.9276,0.01745,0.04887,1.39103,0.00000,0.00000,0.00000,68,-3,43,2,70,29,44,1,ok,2,0,0.003,10,1.17,-0.57,10.96,57,0.140,8.36
9.9401,0.01745,0.04887,1.39103,0.00000,0.00000,0.00000,66,-4,43,2,72,29,46,1,ok,2,0,0.003,10,1.17,-0.57,10.96,57,0.152,8.36
9.9628,0.01745,0.04887,1.39103,0.00000,0.00000,0.00000,65,-6,45,3,73,27,47,0,ok,2,0,0.003,10,1.17,-0.57,10.96,57,0.165,8.36
9.9659,0.01745,0.04887,1.39103,0.00000,0.00000,0.00000,64,-8,46,3,75,22,48,0,ok,2,0,0.003,10,1.17,-0.57,10.96,57,0.178,8.36
9.9786,0.01745,0.04887,1.39103,0.00000,0.00000,0.00000,62,-9,48,4,77,17,49,1,ok,2,0,0.003,10,1.17,-0.57,10.96,57,0.191,8.36
9.9988,0.09948,0.04887,1.41372,0.00000,0.00000,0.00000,60,-10,49,3,78,15,50,1,ok,2,0,0.003,10,-0.28,1.25,10.43,58,0.000,8.36
10.0036,0.09948,0.04887,1.41372,0.00000,0.00000,0.00000,57,-10,49,3,78,14,50,1,ok,2,0,0.003,10,-0.28,1.25,10.43,58,0.012,8.36
10.0163,0.09948,0.04887,1.41372,0.00000,0.00000,0.00000,55,-11,50,5,78,12,52,1,ok,2,0,0.003,10,-0.28,1.25,10.43,58,0.025,8.36
10.0428,0.09948,0.04887,1.41372,0.00000,0.00000,0.00000,52,-11,51,6,78,9,53,0,ok,2,0,0.003,10,-0.28,1.25,10.43,58,0.038,8.36
10.0460,0.09948,0.04887,1.41372,0.00000,0.00000,0.00000,50,-11,52,5,78,6,54,0,ok,2,0,0.003,10,-0.28,1.25,10.43,58,0.055,8.36
10.0586,0.09948,0.04887,1.41372,0.00000,0.00000,0.00000,47,-10,53,6,77,3,55,0,ok,2,0,0.003,10,-0.28,1.25,10.43,58,0.068,8.36
10.0788,0.09948,0.04887,1.41372,0.00000,0.00000,0.00000,45,-11,53,7,76,0,55,1,ok,2,0,0.003,10,-0.28,1.25,10.43,58,0.080,8.36
10.0838,0.09948,0.04887,1.41372,0.00000,0.00000,0.00000,43,-11,55,7,76,-2,56,0,ok,2,0,0.003,10,-0.28,1.25,10.43,58,0.093,8.36
10.0965,0.09948,0.04887,1.41372,0.00000,0.00000,0.00000,40,-10,55,7,75,-4,57,1,ok,2,0,0.003,10,-0.28,1.25,10.43,58,0.105,8.28
10.1188,0.09948,0.04887,1.41372,0.00000,0.00000,0.00000,37,-9,56,8,73,-7,58,0,ok,2,0,0.003,10,-0.28,1.25,10.43,58,0.118,8.28
10.1219,0.09948,0.04887,1.41372,0.00000,0.00000,0.00000,35,-7,57,8,70,-6,58,0,ok,2,0,0.003,10,-0.28,1.25,10.43,58,0.131,8.28
10.1345,0.09948,0.04887,1.41372,0.00000,0.00000,0.00000,31,-6,57,9,69,-8,59,1,ok,2,0,0.003,10,-0.28,1.25,10.43,58,0.144,8.28
10.1548,0.09948,0.04887,1.41372,0.00000,0.00000,0.00000,28,-4,58,9,68,-10,60,1,ok,2,0,0.003,10,-0.28,1.25,10.43,58,0.156,8.28
10.1595,0.09948,0.04887,1.41372,0.00000,0.00000,0.00000,24,-2,59,11,66,-11,61,1,ok,2,0,0.003,10,-0.28,1.25,10.43,58,0.169,8.28
10.1722,0.09948,0.04887,1.41372,0.00000,0.00000,0.00000,22,-1,60,11,64,-12,62,0,ok,2,0,0.003,10,-0.28,1.25,10.43,58,0.181,8.28
10.1948,0.09948,0.04887,1.41372,0.00000,0.00000,0.00000,21,1,61,12,62,-12,64,-2,ok,2,0,0.003,10,-0.28,1.25,10.43,58,0.194,8.28
10.1982,0.03316,0.03142,1.44513,0.00000,0.00000,0.00000,19,3,61,12,59,-13,64,-1,ok,2,0,0.003,10,-0.59,0.65,10.52,59,0.000,8.28
10.2104,0.03316,0.03142,1.44513,0.00000,0.00000,0.00000,16,7,62,13,57,-14,65,-1,ok,2,0,0.003,10,-0.59,0.65,10.52,59,0.013,8.28
10.2308,0.03316,0.03142,1.44513,0.00000,0.00000,0.00000,15,10,62,14,54,-13,66,0,ok,2,0,0.003,10,-0.59,0.65,10.52,59,0.025,8.28
10.2355,0.03316,0.03142,1.44513,0.00000,0.00000,0.00000,13,13,63,15,51,-12,66,0,ok,2,0,0.003,10,-0.59,0.65,10.52,59,0.038,8.28
10.2481,0.03316,0.03142,1.44513,0.00000,0.00000,0.00000,15,13,63,16,49,-12,67,1,ok,2,0,0.003,10,-0.59,0.65,10.52,59,0.050,8.28
10.2708,0.03316,0.03142,1.44513,0.00000,0.00000,0.00000,15,13,63,17,46,-11,68,0,ok,2,0,0.003,10,-0.59,0.65,10.52,59,0.063,8.28
10.2741,0.03316,0.03142,1.44513,0.00000,0.00000,0.00000,16,12,64,17,44,-10,69,1,ok,2,0,0.003,10,-0.59,0.65,10.52,59,0.076,8.28
10.2866,0.03316,0.03142,1.44513,0.00000,0.00000,0.00000,17,12,64,18,41,-9,70,1,ok,2,0,0.003,10,-0.59,0.65,10.52,59,0.089,8.28
10.3068,0.03316,0.03142,1.44513,0.00000,0.00000,0.00000,18,11,65,19,38,-9,70,2,ok,2,0,0.003,10,-0.59,0.65,10.52,59,0.101,8.28
10.3115,0.03316,0.03142,1.44513,0.00000,0.00000,0.00000,20,10,65,20,35,-7,70,3,ok,2,0,0.003,10,-0.59,0.65,10.52,59,0.114,8.28
10.3242,0.03316,0.03142,1.44513,0.00000,0.00000,0.00000,20,10,65,21,33,-6,71,4,ok,2,0,0.003,10,-0.59,0.65,10.52,59,0.126,8.28
10.3468,0.03316,0.03142,1.44513,0.00000,0.00000,0.00000,22,8,65,22,31,-4,71,5,ok,2,0,0.003,10,-0.59,0.65,10.52,59,0.139,8.28
10.3499,0.03316,0.03142,1.44513,0.00000,0.00000,0.00000,24,8,65,23,29,-1,72,5,ok,0,0,0.003,10,-0.59,0.65,10.52,59,0.152,8.28
10.3625,0.03316,0.03142,1.44513,0.00000,0.00000,0.00000,25,7,65,23,27,1,72,7,ok,0,0,0.003,10,-0.59,0.65,10.52,59,0.165,8.28
10.3828,0.03316,0.03142,1.44513,0.00000,0.00000,0.00000,26,6,65,24,26,5,72,8,ok,0,0,0.003,10,-0.59,0.65,10.52,59,0.177,8.28
10.3878,-0.11519,-0.02967,1.46259,0.00000,0.00000,0.00000,28,6,64,25,26,7,73,9,ok,0,0,0.003,10,-0.34,-0.79,10.58,60,0.000,8.28
10.4001,-0.11519,-0.02967,1.46259,0.00000,0.00000,0.00000,29,5,64,28,27,6,73,10,ok,0,0,0.003,10,-0.34,-0.79,10.58,60,0.013,8.28
10.4228,-0.11519,-0.02967,1.46259,0.00000,0.00000,0.00000,30,4,63,30,28,5,73,12,ok,0,0,0.003,10,-0.34,-0.79,10.58,60,0.025,8.28
10.4262,-0.11519,-0.02967,1.46259,0.00000,0.00000,0.00000,31,4,64,28,29,3,73,13,ok,0,0,0.003,10,-0.34,-0.79,10.58,60,0.038,8.28
10.4386,-0.11519,-0.02967,1.46259,0.00000,0.00000,0.00000,33,3,67,25,30,3,74,15,ok,0,0,0.003,10,-0.34,-0.79,10.58,60,0.051,8.28
10.4588,-0.11519,-0.02967,1.46259,0.00000,0.00000,0.00000,34,2,70,21,31,3,74,16,ok,2,0,0.003,10,-0.34,-0.79,10.58,60,0.064,8.28
10.4636,-0.11519,-0.02967,1.46259,0.00000,0.00000,0.00000,35,2,71,18,33,2,73,18,ok,2,0,0.003,10,-0.34,-0.79,10.58,60,0.076,8.28
10.4761,-0.11519,-0.02967,1.46259,0.00000,0.00000,0.00000,36,2,71,16,34,1,73,20,ok,2,0,0.003,10,-0.34,-0.79,10.58,60,0.089,8.28
10.4988,-0.11519,-0.02967,1.46259,0.00000,0.00000,0.00000,38,1,71,15,36,1,74,21,ok,2,0,0.003,10,-0.34,-0.79,10.58,60,0.101,8.28
10.5020,-0.11519,-0.02967,1.46259,0.00000,0.00000,0.00000,39,1,71,12,36,1,73,23,ok,2,0,0.003,10,-0.34,-0.79,10.58,60,0.114,8.28
10.5148,-0.11519,-0.02967,1.46259,0.00000,0.00000,0.00000,41,1,71,9,38,2,72,24,ok,0,0,0.003,10,-0.34,-0.79,10.58,60,0.127,8.28
10.5348,-0.11519,-0.02967,1.46259,0.00000,0.00000,0.00000,42,1,70,6,40,1,73,25,ok,0,0,0.003,10,-0.34,-0.79,10.58,60,0.140,8.28
10.5396,-0.11519,-0.02967,1.46259,0.00000,0.00000,0.00000,44,1,69,3,41,2,72,27,ok,0,0,0.003,10,-0.34,-0.79,10.58,60,0.152,8.28
10.5523,-0.11519,-0.02967,1.46259,0.00000,0.00000,0.00000,45,0,68,1,42,1,72,28,ok,0,0,0.003,10,-0.34,-0.79,10.58,60,0.165,8.28
10.5748,-0.11519,-0.02967,1.46259,0.00000,0.00000,0.00000,46,0,67,0,43,1,72,29,ok,0,0,0.003,10,-0.34,-0.79,10.58,60,0.177,8.28
10.5780,-0.11519,-0.02967,1.46259,0.00000,0.00000,0.00000,46,0,65,-1,44,0,73,29,ok,2,0,0.003,10,-0.34,-0.79,10.58,60,0.190,8.28
10.5908,-0.11519,-0.02967,1.46259,0.00000,0.00000,0.00000,48,1,64,-4,46,0,74,29,ok,0,0,0.003,10,-0.34,-0.79,10.58,60,0.203,8.28
10.6108,-0.05760,0.00698,1.45386,0.00000,0.00000,0.00000,49,1,63,-6,47,0,76,26,ok,0,0,0.003,10,1.24,-0.08,8.75,61,0.000,8.28
10.6155,-0.05760,0.00698,1.45386,0.00000,0.00000,0.00000,50,2,61,-7,48,0,78,21,ok,2,0,0.003,10,1.24,-0.08,8.75,61,0.013,8.28
10.6281,-0.05760,0.00698,1.45386,0.00000,0.00000,0.00000,52,2,58,-8,49,0,79,17,ok,2,0,0.003,10,1.24,-0.08,8.75,61,0.025,8.28
10.6508,-0.05760,0.00698,1.45386,0.00000,0.00000,0.00000,52,2,56,-8,50,0,80,14,ok,2,0,0.003,10,1.24,-0.08,8.75,61,0.038,8.28
10.6539,-0.05760,0.00698,1.45386,0.00000,0.00000,0.00000,52,4,54,-9,51,0,81,13,ok,2,0,0.003,10,1.24,-0.08,8.75,61,0.051,8.28
10.6667,-0.05760,0.00698,1.45386,0.00000,0.00000,0.00000,53,5,51,-9,52,1,81,11,ok,2,0,0.003,10,1.24,-0.08,8.75,61,0.064,8.28
10.6868,-0.05760,0.00698,1.45386,0.00000,0.00000,0.00000,54,5,48,-9,54,1,81,7,ok,2,0,0.003,11,1.24,-0.08,8.75,61,0.076,8.28
10.6915,-0.05760,0.00698,1.45386,0.00000,0.00000,0.00000,55,5,45,-8,54,1,80,4,ok,2,0,0.003,11,1.24,-0.08,8.75,61,0.088,8.28
10.7043,-0.05760,0.00698,1.45386,0.00000,0.00000,0.00000,55,6,43,-9,55,1,79,2,ok,2,0,0.003,11,1.24,-0.08,8.75,61,0.101,8.28
10.7269,-0.05760,0.00698,1.45386,0.00000,0.00000,0.00000,57,7,41,-9,56,2,78,-1,ok,2,0,0.003,11,1.24,-0.08,8.75,61,0.114,8.28
10.7301,-0.05760,0.00698,1.45386,0.00000,0.00000,0.00000,57,7,38,-8,57,1,78,-3,ok,2,0,0.003,11,1.24,-0.08,8.75,61,0.127,8.28
10.7426,-0.05760,0.00698,1.45386,0.00000,0.00000,0.00000,59,7,35,-7,58,1,77,-4,ok,2,0,0.003,11,1.24,-0.08,8.75,61,0.140,8.28
10.7628,-0.05760,0.00698,1.45386,0.00000,0.00000,0.00000,59,8,32,-6,58,2,75,-6,ok,2,0,0.003,11,1.24,-0.08,8.75,61,0.152,8.28
10.7676,-0.05760,0.00698,1.45386,0.00000,0.00000,0.00000,60,8,28,-5,59,2,72,-7,ok,2,0,0.003,11,1.24,-0.08,8.75,61,0.165,8.28
10.7801,-0.05760,0.00698,1.45386,0.00000,0.00000,0.00000,61,9,26,-3,60,2,71,-8,ok,2,0,0.003,11,1.24,-0.08,8.75,61,0.177,8.28
10.8028,-0.05760,0.00698,1.45386,0.00000,0.00000,0.00000,62,10,21,-1,61,1,70,-10,ok,2,0,0.003,11,1.24,-0.08,8.75,61,0.190,8.28
10.8062,-0.03665,0.04363,1.46433,0.00000,0.00000,0.00000,63,10,20,0,64,-1,68,-12,ok,2,0,0.003,11,-0.71,-0.52,9.77,62,0.000,8.28
10.8188,-0.03665,0.04363,1.46433,0.00000,0.00000,0.00000,64,11,18,1,64,0,65,-13,ok,2,0,0.003,11,-0.71,-0.52,9.77,62,0.013,8.28
10.8388,-0.03665,0.04363,1.46433,0.00000,0.00000,0.00000,64,12,16,4,65,1,64,-13,ok,2,0,0.003,11,-0.71,-0.52,9.77,62,0.025,8.28
10.8435,-0.03665,0.04363,1.46433,0.00000,0.00000,0.00000,64,12,14,7,65,1,61,-13,ok,2,0,0.003,11,-0.71,-0.52,9.77,62,0.038,8.28
10.8563,-0.03665,0.04363,1.46433,0.00000,0.00000,0.00000,64,14,12,10,66,1,59,-14,ok,2,0,0.003,11,-0.71,-0.52,9.77,62,0.050,8.28
10.8788,-0.03665,0.04363,1.46433,0.00000,0.00000,0.00000,65,14,10,13,67,1,56,-12,ok,2,0,0.003,11,-0.71,-0.52,9.77,62,0.063,8.28
10.8819,-0.03665,0.04363,1.46433,0.00000,0.00000,0.00000,66,15,12,13,67,1,53,-12,ok,2,0,0.003,11,-0.71,-0.52,9.77,62,0.076,8.28
10.8945,-0.03665,0.04363,1.46433,0.00000,0.00000,0.00000,66,16,12,13,68,2,51,-11,ok,2,0,0.003,11,-0.71,-0.52,9.77,62,0.089,8.28
10.9148,-0.03665,0.04363,1.46433,0.00000,0.00000,0.00000,67,17,13,12,68,2,48,-11,ok,2,0,0.003,11,-0.71,-0.52,9.77,62,0.101,8.28
10.9195,-0.03665,0.04363,1.46433,0.00000,0.00000,0.00000,67,18,14,11,69,3,46,-10,ok,2,0,0.003,11,-0.71,-0.52,9.77,62,0.114,8.28
10.9322,-0.03665,0.04363,1.46433,0.00000,0.00000,0.00000,67,18,15,10,69,4,42,-9,ok,2,0,0.003,11,-0.71,-0.52,9.77,62,0.126,8.28
10.9548,-0.03665,0.04363,1.46433,0.00000,0.00000,0.00000,68,19,17,9,69,4,40,-8,ok,2,0,0.003,11,-0.71,-0.52,9.77,62,0.139,8.28
10.9579,-0.03665,0.04363,1.46433,0.00000,0.00000,0.00000,68,20,17,9,70,5,36,-6,ok,2,0,0.003,11,-0.71,-0.52,9.77,62,0.152,8.28
10.9705,-0.03665,0.04363,1.46433,0.00000,0.00000,0.00000,69,21,19,8,71,6,35,-5,ok,2,0,0.003,11,-0.71,-0.52,9.77,62,0.165,8.28
10.9908,-0.03665,0.04363,1.46433,0.00000,0.00000,0.00000,69,22,20,7,71,7,33,-3,ok,2,0,0.003,11,-0.71,-0.52,9.77,62,0.177,8.28
10.9958,0.02793,0.03665,1.55509,0.00000,0.00000,0.00000,68,23,22,7,70,8,30,0,ok,2,0,0.003,11,0.17,-0.69,7.32,63,0.000,8.28
11.0081,0.02793,0.03665,1.55509,0.00000,0.00000,0.00000,68,24,23,6,71,9,29,2,ok,2,0,0.003,11,0.17,-0.69,7.32,63,0.013,8.28
11.0308,0.02793,0.03665,1.55509,0.00000,0.00000,0.00000,68,25,24,5,71,10,28,6,ok,2,0,0.003,11,0.17,-0.69,7.32,63,0.025,8.28
11.0341,0.02793,0.03665,1.55509,0.00000,0.00000,0.00000,67,28,26,5,71,11,27,7,ok,2,0,0.003,11,0.17,-0.69,7.32,63,0.038,8.28
11.0465,0.02793,0.03665,1.55509,0.00000,0.00000,0.00000,66,29,27,4,71,13,29,6,ok,2,0,0.003,11,0.17,-0.69,7.32,63,0.051,8.28
11.0668,0.02793,0.03665,1.55509,0.00000,0.00000,0.00000,68,28,28,4,71,14,30,6,ok,2,0,0.003,11,0.17,-0.69,7.32,63,0.063,8.28
11.0716,0.02793,0.03665,1.55509,0.00000,0.00000,0.00000,70,25,29,3,71,15,31,4,ok,2,0,0.003,11,0.17,-0.69,7.32,63,0.076,8.28
11.0841,0.02793,0.03665,1.55509,0.00000,0.00000,0.00000,72,21,30,3,71,17,32,3,ok,2,0,0.003,11,0.17,-0.69,7.32,63,0.088,8.28
11.1068,0.02793,0.03665,1.55509,0.00000,0.00000,0.00000,73,17,32,2,71,19,34,3,ok,2,0,0.003,11,0.17,-0.69,7.32,63,0.101,8.28
11.1099,0.02793,0.03665,1.55509,0.00000,0.00000,0.00000,74,15,33,2,71,19,35,3,ok,2,0,0.003,11,0.17,-0.69,7.32,63,0.114,8.28
11.1226,0.02793,0.03665,1.55509,0.00000,0.00000,0.00000,73,14,35,2,70,21,37,2,ok,2,0,0.003,11,0.17,-0.69,7.32,63,0.127,8.28
11.1428,0.02793,0.03665,1.55509,0.00000,0.00000,0.00000,73,11,36,2,70,23,39,2,ok,2,0,0.003,11,0.17,-0.69,7.32,63,0.139,8.28
11.1477,0.02793,0.03665,1.55509,0.00000,0.00000,0.00000,72,7,37,2,70,25,40,2,ok,2,0,0.003,11,0.17,-0.69,7.32,63,0.152,8.28
11.1601,0.02793,0.03665,1.55509,0.00000,0.00000,0.00000,72,5,38,2,71,26,41,2,ok,2,0,0.003,11,0.17,-0.69,7.32,63,0.164,8.28
11.1828,0.02793,0.03665,1.55509,0.00000,0.00000,0.00000,71,1,40,2,70,28,43,2,ok,2,0,0.003,11,0.17,-0.69,7.32,63,0.177,8.28
11.1860,0.02793,0.03665,1.55509,0.00000,0.00000,0.00000,70,-1,41,2,70,29,43,2,ok,2,0,0.003,11,0.17,-0.69,7.32,63,0.190,8.28
11.1989,0.06807,0.01396,1.59174,0.00000,0.00000,0.00000,68,-3,43,2,70,29,44,1,ok,2,0,0.003,11,-0.45,0.47,10.70,64,0.000,8.28
11.2188,0.06807,0.01396,1.59174,0.00000,0.00000,0.00000,66,-4,43,2,71,29,46,1,ok,2,0,0.003,11,-0.45,0.47,10.70,64,0.012,8.28
11.2236,0.06807,0.01396,1.59174,0.00000,0.00000,0.00000,65,-6,45,3,73,27,47,0,ok,2,0,0.003,11,-0.45,0.47,10.70,64,0.025,8.28
11.2361,0.06807,0.01396,1.59174,0.00000,0.00000,0.00000,64,-8,46,3,75,22,48,0,ok,2,0,0.003,11,-0.45,0.47,10.70,64,0.038,8.28
11.2588,0.06807,0.01396,1.59174,0.00000,0.00000,0.00000,62,-9,48,4,76,18,49,1,ok,2,0,0.003,11,-0.45,0.47,10.70,64,0.050,8.28
11.2619,0.06807,0.01396,1.59174,0.00000,0.00000,0.00000,60,-10,49,3,78,15,50,1,ok,2,0,0.003,11,-0.45,0.47,10.70,64,0.063,8.28
11.2745,0.06807,0.01396,1.59174,0.00000,0.00000,0.00000,58,-10,49,3,78,14,50,1,ok,2,0,0.003,11,-0.45,0.47,10.70,64,0.076,8.28
11.2948,0.06807,0.01396,1.59174,0.00000,0.00000,0.00000,55,-11,49,5,78,12,52,1,ok,2,0,0.003,11,-0.45,0.47,10.70,64,0.089,8.28
11.2995,0.06807,0.01396,1.59174,0.00000,0.00000,0.00000,53,-11,51,6,78,8,53,1,ok,2,0,0.003,11,-0.45,0.47,10.70,64,0.101,8.28
11.3121,0.06807,0.01396,1.59174,0.00000,0.00000,0.00000,50,-11,52,6,78,5,54,1,ok,2,0,0.003,11,-0.45,0.47,10.70,64,0.113,8.28
11.3348,0.06807,0.01396,1.59174,0.00000,0.00000,0.00000,48,-10,53,6,77,3,55,0,ok,2,0,0.003,11,-0.45,0.47,10.70,64,0.126,8.28
11.3382,0.06807,0.01396,1.59174,0.00000,0.00000,0.00000,45,-11,53,7,76,0,55,1,ok,2,0,0.003,11,-0.45,0.47,10.70,64,0.139,8.28
11.3506,0.06807,0.01396,1.59174,0.00000,0.00000,0.00000,43,-11,55,7,75,-2,56,0,ok,2,0,0.003,11,-0.45,0.47,10.70,64,0.152,8.28
11.3708,0.06807,0.01396,1.59174,0.00000,0.00000,0.00000,41,-10,55,7,74,-4,57,1,ok,2,0,0.003,11,-0.45,0.47,10.70,64,0.164,8.28
11.3757,0.06807,0.01396,1.59174,0.00000,0.00000,0.00000,38,-9,56,8,73,-7,58,0,ok,2,0,0.003,11,-0.45,0.47,10.70,64,0.177,8.28
11.3881,0.06807,0.01396,1.59174,0.00000,0.00000,0.00000,35,-8,57,9,70,-6,58,0,ok,2,0,0.003,11,-0.45,0.47,10.70,64,0.190,8.28
11.4108,0.06458,-0.04014,1.58999,0.00000,0.00000,0.00000,31,-6,57,9,69,-8,59,0,ok,2,0,0.003,11,-0.21,0.56,9.66,65,0.000,8.28
11.4140,0.06458,-0.04014,1.58999,0.00000,0.00000,0.00000,29,-4,58,9,68,-10,60,1,ok,2,0,0.003,11,-0.21,0.56,9.66,65,0.013,8.28
11.4265,0.06458,-0.04014,1.58999,0.00000,0.00000,0.00000,24,-1,59,11,65,-12,61,1,ok,2,0,0.003,11,-0.21,0.56,9.66,65,0.026,8.28
11.4468,0.06458,-0.04014,1.58999,0.00000,0.00000,0.00000,23,-1,60,11,63,-12,62,0,ok,2,0,0.003,11,-0.21,0.56,9.66,65,0.039,8.28
11.4516,0.06458,-0.04014,1.58999,0.00000,0.00000,0.00000,21,1,61,12,62,-13,64,-2,ok,2,0,0.003,11,-0.21,0.56,9.66,65,0.051,8.28
11.4641,0.06458,-0.04014,1.58999,0.00000,0.00000,0.00000,19,3,62,13,59,-13,64,-1,ok,2,0,0.003,11,-0.21,0.56,9.66,65,0.064,8.28
11.4868,0.06458,-0.04014,1.58999,0.00000,0.00000,0.00000,16,7,62,13,57,-14,65,-1,ok,2,0,0.003,11,-0.21,0.56,9.66,65,0.076,8.28
11.4901,0.06458,-0.04014,1.58999,0.00000,0.00000,0.00000,15,10,62,15,54,-13,66,0,ok,2,0,0.003,11,-0.21,0.56,9.66,65,0.089,8.28
11.5026,0.06458,-0.04014,1.58999,0.00000,0.00000,0.00000,13,13,63,15,51,-12,66,-1,ok,2,0,0.003,11,-0.21,0.56,9.66,65,0.102,8.28
11.5228,0.06458,-0.04014,1.58999,0.00000,0.00000,0.00000,15,13,63,16,49,-12,67,0,ok,2,0,0.003,11,-0.21,0.56,9.66,65,0.115,8.28
11.5276,0.06458,-0.04014,1.58999,0.00000,0.00000,0.00000,15,13,63,17,46,-11,68,0,ok,2,0,0.003,11,-0.21,0.56,9.66,65,0.127,8.28
11.5403,0.06458,-0.04014,1.58999,0.00000,0.00000,0.00000,16,12,64,18,43,-11,69,1,ok,2,0,0.003,11,-0.21,0.56,9.66,65,0.140,8.28
11.5628,0.06458,-0.04014,1.58999,0.00000,0.00000,0.00000,18,12,64,19,40,-10,69,1,ok,2,0,0.003,11,-0.21,0.56,9.66,65,0.152,8.28
11.5659,0.06458,-0.04014,1.58999,0.00000,0.00000,0.00000,18,11,65,19,37,-9,70,2,ok,2,0,0.003,11,-0.21,0.56,9.66,65,0.165,8.28
11.5786,0.06458,-0.04014,1.58999,0.00000,0.00000,0.00000,20,10,65,20,34,-7,70,3,ok,2,0,0.003,11,-0.21,0.56,9.66,65,0.178,8.28
11.5988,0.06458,-0.04014,1.58999,0.00000,0.00000,0.00000,21,10,65,21,32,-6,71,3,ok,2,0,0.003,11,-0.21,0.56,9.66,65,0.191,8.28
11.6039,-0.00524,0.02269,1.62316,0.00000,0.00000,0.00000,23,9,65,22,31,-5,71,5,ok,2,0,0.003,11,0.66,-0.40,9.62,66,0.000,8.28
11.6161,-0.00524,0.02269,1.62316,0.00000,0.00000,0.00000,24,8,65,23,28,-1,72,5,ok,2,0,0.003,11,0.66,-0.40,9.62,66,0.013,8.28
11.6388,-0.00524,0.02269,1.62316,0.00000,0.00000,0.00000,25,7,65,23,27,1,72,7,ok,2,0,0.003,11,0.66,-0.40,9.62,66,0.025,8.28
11.6420,-0.00524,0.02269,1.62316,0.00000,0.00000,0.00000,27,6,65,25,26,4,72,8,ok,0,0,0.003,11,0.66,-0.40,9.62,66,0.038,8.28
11.6547,-0.00524,0.02269,1.62316,0.00000,0.00000,0.00000,28,6,64,25,25,7,73,9,ok,0,0,0.003,11,0.66,-0.40,9.62,66,0.051,8.28
11.6748,-0.00524,0.02269,1.62316,0.00000,0.00000,0.00000,29,5,63,28,27,6,73,10,ok,0,0,0.003,11,0.66,-0.40,9.62,66,0.063,8.28
11.6796,-0.00524,0.02269,1.62316,0.00000,0.00000,0.00000,30,5,63,29,28,6,73,12,ok,0,0,0.003,11,0.66,-0.40,9.62,66,0.076,8.28
11.6922,-0.00524,0.02269,1.62316,0.00000,0.00000,0.00000,31,4,64,28,29,4,73,13,ok,0,0,0.003,12,0.66,-0.40,9.62,66,0.089,8.28
11.7148,-0.00524,0.02269,1.62316,0.00000,0.00000,0.00000,33,3,67,25,30,3,74,15,ok,2,0,0.003,12,0.66,-0.40,9.62,66,0.101,8.28
11.7182,-0.00524,0.02269,1.62316,0.00000,0.00000,0.00000,34,3,69,21,31,3,74,16,ok,2,0,0.003,12,0.66,-0.40,9.62,66,0.114,8.28
11.7306,-0.00524,0.02269,1.62316,0.00000,0.00000,0.00000,35,2,70,18,32,3,73,18,ok,2,0,0.003,12,0.66,-0.40,9.62,66,0.127,8.28
11.7508,-0.00524,0.02269,1.62316,0.00000,0.00000,0.00000,36,2,71,16,34,2,73,20,ok,2,0,0.003,12,0.66,-0.40,9.62,66,0.140,8.28
11.7556,-0.00524,0.02269,1.62316,0.00000,0.00000,0.00000,38,1,71,15,36,2,74,21,ok,2,0,0.003,12,0.66,-0.40,9.62,66,0.152,8.28
11.7682,-0.00524,0.02269,1.62316,0.00000,0.00000,0.00000,39,1,71,11,36,2,73,23,ok,2,0,0.003,12,0.66,-0.40,9.62,66,0.165,8.28
11.7908,-0.00524,0.02269,1.62316,0.00000,0.00000,0.00000,41,1,70,9,38,2,73,24,ok,2,0,0.003,12,0.66,-0.40,9.62,66,0.177,8.28
11.7942,-0.00524,0.02269,1.62316,0.00000,0.00000,0.00000,42,1,70,6,40,2,73,25,ok,0,0,0.003,12,0.66,-0.40,9.62,66,0.190,8.28
11.8068,-0.03142,-0.01745,1.53589,0.00000,0.00000,0.00000,44,0,69,3,40,2,73,27,ok,0,0,0.003,12,-0.44,-1.62,8.28,67,0.000,8.28
11.8268,-0.03142,-0.01745,1.53589,0.00000,0.00000,0.00000,45,0,68,1,42,1,73,28,ok,0,0,0.003,12,-0.44,-1.62,8.28,67,0.013,8.28
11.8317,-0.03142,-0.01745,1.53589,0.00000,0.00000,0.00000,46,0,67,0,43,1,72,29,ok,0,0,0.003,12,-0.44,-1.62,8.28,67,0.025,8.28
11.8442,-0.03142,-0.01745,1.53589,0.00000,0.00000,0.00000,47,0,65,-1,44,0,73,30,ok,2,0,0.003,12,-0.44,-1.62,8.28,67,0.038,8.28
11.8668,-0.03142,-0.01745,1.53589,0.00000,0.00000,0.00000,48,0,64,-3,46,0,74,29,ok,2,0,0.003,12,-0.44,-1.62,8.28,67,0.050,8.28
11.8699,-0.03142,-0.01745,1.53589,0.00000,0.00000,0.00000,49,0,63,-6,47,0,76,27,ok,2,0,0.003,12,-0.44,-1.62,8.28,67,0.063,8.28
11.8826,-0.03142,-0.01745,1.53589,0.00000,0.00000,0.00000,51,2,61,-6,47,0,78,21,ok,2,0,0.003,12,-0.44,-1.62,8.28,67,0.076,8.28
11.9028,-0.03142,-0.01745,1.53589,0.00000,0.00000,0.00000,52,1,58,-8,48,0,79,17,ok,2,0,0.003,12,-0.44,-1.62,8.28,67,0.088,8.28
11.9075,-0.03142,-0.01745,1.53589,0.00000,0.00000,0.00000,52,1,56,-8,50,0,81,14,ok,2,0,0.003,12,-0.44,-1.62,8.28,67,0.101,8.28
11.9201,-0.03142,-0.01745,1.53589,0.00000,0.00000,0.00000,52,4,54,-9,51,0,81,14,ok,2,0,0.003,12,-0.44,-1.62,8.28,67,0.113,8.28
11.9428,-0.03142,-0.01745,1.53589,0.00000,0.00000,0.00000,53,5,51,-9,52,0,81,11,ok,2,0,0.003,12,-0.44,-1.62,8.28,67,0.126,8.28
11.9462,-0.03142,-0.01745,1.53589,0.00000,0.00000,0.00000,54,4,48,-9,53,0,81,7,ok,2,0,0.003,12,-0.44,-1.62,8.28,67,0.139,8.28
11.9586,-0.03142,-0.01745,1.53589,0.00000,0.00000,0.00000,55,5,46,-8,54,1,80,4,ok,2,0,0.003,12,-0.44,-1.62,8.28,67,0.152,8.28
11.9788,-0.03142,-0.01745,1.53589,0.00000,0.00000,0.00000,55,6,43,-8,55,1,80,2,ok,2,0,0.003,12,-0.44,-1.62,8.28,67,0.165,8.28
11.9838,-0.03142,-0.01745,1.53589,0.00000,0.00000,0.00000,57,6,41,-9,56,2,79,-1,ok,2,0,0.003,12,-0.44,-1.62,8.28,67,0.177,8.28
11.9962,-0.03142,-0.01745,1.53589,0.00000,0.00000,0.00000,57,6,38,-8,57,1,79,-3,ok,2,0,0.003,12,-0.44,-1.62,8.28,67,0.190,8.28
12.0188,-0.08378,-0.04014,1.59698,0.00000,0.00000,0.00000,59,7,35,-7,57,1,77,-4,ok,2,0,0.003,12,-0.24,-0.84,10.70,68,0.000,8.28
12.0219,-0.08378,-0.04014,1.59698,0.00000,0.00000,0.00000,59,8,32,-5,58,2,75,-6,ok,2,0,0.003,12,-0.24,-0.84,10.70,68,0.013,8.28
12.0345,-0.08378,-0.04014,1.59698,0.00000,0.00000,0.00000,60,8,28,-4,59,2,73,-6,ok,2,0,0.003,12,-0.24,-0.84,10.70,68,0.026,8.28
12.0548,-0.08378,-0.04014,1.59698,0.00000,0.00000,0.00000,61,9,26,-3,60,2,71,-8,ok,2,0,0.003,12,-0.24,-0.84,10.70,68,0.038,8.28
12.0596,-0.08378,-0.04014,1.59698,0.00000,0.00000,0.00000,63,10,21,-1,61,1,70,-10,ok,2,0,0.003,12,-0.24,-0.84,10.70,68,0.051,8.28
12.0721,-0.08378,-0.04014,1.59698,0.00000,0.00000,0.00000,63,10,20,1,63,-1,68,-11,ok,2,0,0.003,12,-0.24,-0.84,10.70,68,0.063,8.28
12.0948,-0.08378,-0.04014,1.59698,0.00000,0.00000,0.00000,64,11,18,2,64,0,66,-13,ok,2,0,0.003,12,-0.24,-0.84,10.70,68,0.076,8.28
12.0980,-0.08378,-0.04014,1.59698,0.00000,0.00000,0.00000,64,12,16,4,64,0,64,-13,ok,2,0,0.003,12,-0.24,-0.84,10.70,68,0.089,8.28
12.1108,-0.08378,-0.04014,1.59698,0.00000,0.00000,0.00000,65,12,14,7,65,0,61,-13,ok,2,0,0.003,12,-0.24,-0.84,10.70,68,0.102,8.28
12.1308,-0.08378,-0.04014,1.59698,0.00000,0.00000,0.00000,65,14,12,11,65,1,59,-14,ok,2,0,0.003,12,-0.24,-0.84,10.70,68,0.114,8.28
12.1355,-0.08378,-0.04014,1.59698,0.00000,0.00000,0.00000,65,14,11,13,66,1,56,-12,ok,2,0,0.003,12,-0.24,-0.84,10.70,68,0.127,8.28
12.1482,-0.08378,-0.04014,1.59698,0.00000,0.00000,0.00000,66,15,12,13,67,1,53,-12,ok,2,0,0.003,12,-0.24,-0.84,10.70,68,0.139,8.28
12.1708,-0.08378,-0.04014,1.59698,0.00000,0.00000,0.00000,66,16,12,13,68,1,51,-12,ok,2,0,0.003,12,-0.24,-0.84,10.70,68,0.152,8.28
12.1740,-0.08378,-0.04014,1.59698,0.00000,0.00000,0.00000,67,17,13,12,68,2,48,-11,ok,2,0,0.003,12,-0.24,-0.84,10.70,68,0.165,8.28
12.1865,-0.08378,-0.04014,1.59698,0.00000,0.00000,0.00000,67,18,15,11,68,2,45,-10,ok,2,0,0.003,12,-0.24,-0.84,10.70,68,0.178,8.28
12.2068,-0.08378,-0.04014,1.59698,0.00000,0.00000,0.00000,67,18,15,11,68,3,42,-9,ok,2,0,0.003,12,-0.24,-0.84,10.70,68,0.190,8.28
