# run_gait log  cmd_fwd=0.100 hz=80.0 fw_balance=off policy_yaw_sign=-1
t,roll,pitch,yaw,gx,gy,gz,j0,j1,j2,j3,j4,j5,j6,j7,guard_state,hottest_j,hottest_tier,hottest_frac,duty_s,ax,ay,az,imu_n,imu_age_s,volt
0.0309,0.00524,0.00524,0.00000,0.00000,0.00000,0.00000,21,-1,59,7,66,-12,61,0,ok,4,0,0.000,0,0.05,-0.02,10.00,8,0.021,nan
0.0344,0.00524,0.00524,0.00000,0.00000,0.00000,0.00000,19,0,61,8,64,-12,63,-1,ok,4,0,0.000,0,0.05,-0.02,10.00,8,0.043,nan
0.0474,0.00524,0.00524,0.00000,0.00000,0.00000,0.00000,17,2,61,9,61,-13,64,0,ok,4,0,0.000,0,0.05,-0.02,10.00,8,0.055,8.38
0.0669,0.00524,0.00524,0.00000,0.00000,0.00000,0.00000,15,6,62,9,59,-13,64,0,ok,4,0,0.000,0,0.05,-0.02,10.00,8,0.068,8.38
0.0719,0.00524,0.00524,0.00000,0.00000,0.00000,0.00000,13,9,62,11,56,-13,65,1,ok,4,0,0.000,0,0.05,-0.02,10.00,8,0.080,8.38
0.0843,0.00524,0.00524,0.00000,0.00000,0.00000,0.00000,11,11,63,11,53,-12,65,1,ok,4,0,0.000,0,0.05,-0.02,10.00,8,0.093,8.38
0.1069,0.00524,0.00524,0.00000,0.00000,0.00000,0.00000,13,12,63,12,51,-12,66,2,ok,4,0,0.000,0,0.05,-0.02,10.00,8,0.105,8.38
0.1105,0.00873,0.00873,0.00000,0.00000,0.00000,0.00000,13,11,63,13,48,-12,66,2,ok,4,0,0.000,0,0.30,0.19,10.09,9,0.000,8.38
0.1228,0.00873,0.00873,0.00000,0.00000,0.00000,0.00000,14,10,64,14,45,-12,66,3,ok,4,0,0.000,0,0.30,0.19,10.09,9,0.013,8.38
0.1429,0.00873,0.00873,0.00000,0.00000,0.00000,0.00000,15,9,64,15,42,-11,67,3,ok,4,0,0.000,0,0.30,0.19,10.09,9,0.025,8.38
0.1477,0.00873,0.00873,0.00000,0.00000,0.00000,0.00000,16,9,65,15,39,-10,68,4,ok,4,0,0.000,0,0.30,0.19,10.09,9,0.038,8.38
0.1602,0.00873,0.00873,0.00000,0.00000,0.00000,0.00000,18,8,65,16,36,-8,68,4,ok,4,0,0.000,0,0.30,0.19,10.09,9,0.050,8.38
0.1829,0.00873,0.00873,0.00000,0.00000,0.00000,0.00000,19,7,65,17,34,-7,69,5,ok,4,0,0.000,0,0.30,0.19,10.09,9,0.063,8.38
0.1860,0.00873,0.00873,0.00000,0.00000,0.00000,0.00000,21,6,66,18,32,-6,69,6,ok,4,0,0.000,0,0.30,0.19,10.09,9,0.076,8.38
0.1986,0.00873,0.00873,0.00000,0.00000,0.00000,0.00000,22,6,66,19,30,-2,70,6,ok,4,0,0.000,0,0.30,0.19,10.09,9,0.089,8.38
0.2189,0.00873,0.00873,0.00000,0.00000,0.00000,0.00000,23,5,66,21,28,0,70,8,ok,4,0,0.000,0,0.30,0.19,10.09,9,0.101,8.38
0.2239,0.00873,0.00873,0.00000,0.00000,0.00000,0.00000,24,5,66,22,27,4,70,9,ok,4,0,0.000,0,0.30,0.19,10.09,9,0.114,8.38
0.2361,0.00873,0.00873,0.00000,0.00000,0.00000,0.00000,26,4,65,23,27,6,71,9,ok,4,0,0.000,0,0.30,0.19,10.09,9,0.126,8.38
0.2589,0.00873,0.00873,0.00000,0.00000,0.00000,0.00000,27,4,65,26,29,6,71,10,ok,4,0,0.000,0,0.30,0.19,10.09,9,0.139,8.38
0.2620,0.00873,0.00873,0.00000,0.00000,0.00000,0.00000,28,3,64,28,29,6,72,11,ok,4,0,0.000,0,0.30,0.19,10.09,9,0.152,8.38
0.2747,0.00873,0.00873,0.00000,0.00000,0.00000,0.00000,29,3,66,26,30,4,72,12,ok,4,0,0.000,0,0.30,0.19,10.09,9,0.165,8.38
0.2949,0.00873,0.00873,0.00000,0.00000,0.00000,0.00000,30,2,69,24,31,3,73,13,ok,4,0,0.000,0,0.30,0.19,10.09,9,0.177,8.38
0.2996,0.00873,0.00873,0.00000,0.00000,0.00000,0.00000,31,1,71,20,32,3,73,14,ok,4,0,0.000,0,0.30,0.19,10.09,9,0.190,8.38
0.3124,-0.13265,-0.09076,0.04189,0.00000,0.00000,0.00000,32,0,73,17,33,3,73,16,ok,4,0,0.000,0,-1.42,-2.20,11.06,10,0.000,8.38
0.3349,-0.13265,-0.09076,0.04189,0.00000,0.00000,0.00000,34,0,73,15,35,2,73,18,ok,4,0,0.000,0,-1.42,-2.20,11.06,10,0.013,8.38
0.3382,-0.13265,-0.09076,0.04189,0.00000,0.00000,0.00000,35,-1,73,15,37,1,74,19,ok,4,0,0.000,0,-1.42,-2.20,11.06,10,0.026,8.38
0.3507,-0.13265,-0.09076,0.04189,0.00000,0.00000,0.00000,36,-1,73,12,37,1,73,22,ok,4,0,0.000,0,-1.42,-2.20,11.06,10,0.039,8.38
0.3709,-0.13265,-0.09076,0.04189,0.00000,0.00000,0.00000,37,-1,73,9,39,2,73,23,ok,4,0,0.000,0,-1.42,-2.20,11.06,10,0.051,8.38
0.3757,-0.13265,-0.09076,0.04189,0.00000,0.00000,0.00000,38,-1,72,6,40,1,73,23,ok,4,0,0.000,0,-1.42,-2.20,11.06,10,0.064,8.38
0.3884,-0.13265,-0.09076,0.04189,0.00000,0.00000,0.00000,39,-2,72,4,41,1,72,25,ok,4,0,0.000,0,-1.42,-2.20,11.06,10,0.076,8.38
0.4109,-0.13265,-0.09076,0.04189,0.00000,0.00000,0.00000,40,-2,71,2,42,0,72,27,ok,4,0,0.000,0,-1.42,-2.20,11.06,10,0.089,8.38
0.4139,-0.13265,-0.09076,0.04189,0.00000,0.00000,0.00000,42,-2,70,0,43,0,71,28,ok,4,0,0.000,0,-1.42,-2.20,11.06,10,0.102,8.38
0.4267,-0.13265,-0.09076,0.04189,0.00000,0.00000,0.00000,42,-2,67,-1,44,-1,72,28,ok,4,0,0.000,0,-1.42,-2.20,11.06,10,0.114,8.38
0.4469,-0.13265,-0.09076,0.04189,0.00000,0.00000,0.00000,44,-1,66,-4,46,-1,73,28,ok,4,0,0.000,0,-1.42,-2.20,11.06,10,0.127,8.38
0.4517,-0.13265,-0.09076,0.04189,0.00000,0.00000,0.00000,45,-1,65,-6,47,-2,75,25,ok,4,0,0.000,0,-1.42,-2.20,11.06,10,0.139,8.38
0.4643,-0.13265,-0.09076,0.04189,0.00000,0.00000,0.00000,47,0,63,-7,48,-2,76,20,ok,4,0,0.000,0,-1.42,-2.20,11.06,10,0.152,8.38
0.4869,-0.13265,-0.09076,0.04189,0.00000,0.00000,0.00000,48,0,61,-8,49,-2,77,17,ok,4,0,0.000,0,-1.42,-2.20,11.06,10,0.164,8.38
0.4899,-0.13265,-0.09076,0.04189,0.00000,0.00000,0.00000,49,0,58,-9,51,-1,79,14,ok,4,0,0.000,0,-1.42,-2.20,11.06,10,0.178,8.38
0.5026,-0.13265,-0.09076,0.04189,0.00000,0.00000,0.00000,49,3,55,-10,52,-1,79,13,ok,4,0,0.000,0,-1.42,-2.20,11.06,10,0.190,8.38
0.5229,-0.06458,0.00873,0.08901,0.00000,0.00000,0.00000,51,4,52,-10,54,-1,79,11,ok,4,0,0.000,1,1.21,-1.03,10.66,11,0.000,8.38
0.5277,-0.06458,0.00873,0.08901,0.00000,0.00000,0.00000,51,4,49,-10,55,0,79,7,ok,4,0,0.000,1,1.21,-1.03,10.66,11,0.012,8.38
0.5401,-0.06458,0.00873,0.08901,0.00000,0.00000,0.00000,52,5,46,-10,56,1,78,4,ok,4,0,0.000,1,1.21,-1.03,10.66,11,0.025,8.38
0.5629,-0.06458,0.00873,0.08901,0.00000,0.00000,0.00000,53,6,44,-10,57,0,78,2,ok,4,0,0.000,1,1.21,-1.03,10.66,11,0.038,8.38
0.5661,-0.06458,0.00873,0.08901,0.00000,0.00000,0.00000,55,6,41,-11,58,1,77,-2,ok,4,0,0.000,1,1.21,-1.03,10.66,11,0.051,8.38
0.5788,-0.06458,0.00873,0.08901,0.00000,0.00000,0.00000,55,6,39,-10,59,0,77,-3,ok,4,0,0.000,1,1.21,-1.03,10.66,11,0.064,8.38
0.5989,-0.06458,0.00873,0.08901,0.00000,0.00000,0.00000,57,6,36,-8,59,1,76,-5,ok,4,0,0.000,1,1.21,-1.03,10.66,11,0.076,8.38
0.6037,-0.06458,0.00873,0.08901,0.00000,0.00000,0.00000,57,7,33,-7,60,2,74,-7,ok,4,0,0.000,1,1.21,-1.03,10.66,11,0.089,8.38
0.6161,-0.06458,0.00873,0.08901,0.00000,0.00000,0.00000,58,8,29,-6,60,1,71,-7,ok,2,0,0.000,1,1.21,-1.03,10.66,11,0.101,8.38
0.6389,-0.06458,0.00873,0.08901,0.00000,0.00000,0.00000,59,8,26,-4,61,1,70,-8,ok,2,0,0.000,1,1.21,-1.03,10.66,11,0.114,8.38
0.6420,-0.06458,0.00873,0.08901,0.00000,0.00000,0.00000,60,10,22,-2,62,1,69,-10,ok,2,0,0.000,1,1.21,-1.03,10.66,11,0.127,8.38
0.6546,-0.06458,0.00873,0.08901,0.00000,0.00000,0.00000,60,10,20,-1,64,-1,67,-11,ok,2,0,0.000,1,1.21,-1.03,10.66,11,0.140,8.38
0.6749,-0.06458,0.00873,0.08901,0.00000,0.00000,0.00000,61,10,19,0,65,0,65,-13,ok,2,0,0.000,1,1.21,-1.03,10.66,11,0.152,8.38
0.6796,-0.06458,0.00873,0.08901,0.00000,0.00000,0.00000,62,11,17,3,66,0,63,-13,ok,2,0,0.000,1,1.21,-1.03,10.66,11,0.165,8.38
0.6921,-0.06458,0.00873,0.08901,0.00000,0.00000,0.00000,62,12,15,6,67,0,60,-14,ok,2,0,0.000,1,1.21,-1.03,10.66,11,0.177,8.38
0.7149,-0.06458,0.00873,0.08901,0.00000,0.00000,0.00000,62,13,13,10,67,1,59,-14,ok,2,0,0.000,1,1.21,-1.03,10.66,11,0.190,8.38
0.7181,-0.06458,0.00873,0.08901,0.00000,0.00000,0.00000,63,14,11,12,68,0,55,-13,ok,2,0,0.000,1,1.21,-1.03,10.66,11,0.203,8.38
0.7309,-0.00524,-0.01571,0.11519,0.00000,0.00000,0.00000,63,15,13,13,68,1,53,-13,ok,2,0,0.000,1,-0.39,0.08,8.26,12,0.000,8.38
0.7509,-0.00524,-0.01571,0.11519,0.00000,0.00000,0.00000,63,16,13,13,69,1,50,-12,ok,2,0,0.000,1,-0.39,0.08,8.26,12,0.012,8.38
0.7558,-0.00524,-0.01571,0.11519,0.00000,0.00000,0.00000,64,16,14,12,69,1,47,-11,ok,2,0,0.000,1,-0.39,0.08,8.26,12,0.025,8.38
0.7682,-0.00524,-0.01571,0.11519,0.00000,0.00000,0.00000,64,18,16,10,69,2,45,-11,ok,2,0,0.000,1,-0.39,0.08,8.26,12,0.038,8.38
0.7909,-0.00524,-0.01571,0.11519,0.00000,0.00000,0.00000,65,18,16,10,69,3,41,-9,ok,2,0,0.000,1,-0.39,0.08,8.26,12,0.050,8.38
0.7940,-0.00524,-0.01571,0.11519,0.00000,0.00000,0.00000,66,19,18,9,70,3,39,-9,ok,2,0,0.000,1,-0.39,0.08,8.26,12,0.063,8.38
0.8067,-0.00524,-0.01571,0.11519,0.00000,0.00000,0.00000,66,20,18,8,70,4,35,-7,ok,2,0,0.000,1,-0.39,0.08,8.26,12,0.076,8.38
0.8269,-0.00524,-0.01571,0.11519,0.00000,0.00000,0.00000,67,21,20,7,71,5,34,-5,ok,2,0,0.000,1,-0.39,0.08,8.26,12,0.088,8.38
0.8319,-0.00524,-0.01571,0.11519,0.00000,0.00000,0.00000,67,22,21,7,71,6,32,-4,ok,2,0,0.000,1,-0.39,0.08,8.26,12,0.101,8.38
0.8441,-0.00524,-0.01571,0.11519,0.00000,0.00000,0.00000,66,23,22,6,71,7,30,-1,ok,2,0,0.000,1,-0.39,0.08,8.26,12,0.113,8.38
0.8669,-0.00524,-0.01571,0.11519,0.00000,0.00000,0.00000,66,24,23,6,72,8,28,2,ok,2,0,0.000,1,-0.39,0.08,8.26,12,0.126,8.38
0.8700,-0.00524,-0.01571,0.11519,0.00000,0.00000,0.00000,66,25,25,5,72,9,27,5,ok,2,0,0.000,1,-0.39,0.08,8.26,12,0.139,8.38
0.8826,-0.00524,-0.01571,0.11519,0.00000,0.00000,0.00000,65,28,26,5,72,10,27,7,ok,2,0,0.000,1,-0.39,0.08,8.26,12,0.152,8.38
0.9029,-0.00524,-0.01571,0.11519,0.00000,0.00000,0.00000,64,29,27,3,71,12,29,6,ok,2,0,0.000,1,-0.39,0.08,8.26,12,0.164,8.38
0.9076,-0.00524,-0.01571,0.11519,0.00000,0.00000,0.00000,66,28,29,3,72,13,29,6,ok,2,0,0.000,1,-0.39,0.08,8.26,12,0.177,8.38
0.9203,-0.00524,-0.01571,0.11519,0.00000,0.00000,0.00000,68,25,30,3,72,14,30,3,ok,2,0,0.000,1,-0.39,0.08,8.26,12,0.189,8.38
0.9429,0.02269,-0.01745,0.13265,0.00000,0.00000,0.00000,70,21,31,2,71,15,31,3,ok,2,0,0.000,1,0.11,-0.37,9.23,13,0.000,8.38
0.9460,0.02269,-0.01745,0.13265,0.00000,0.00000,0.00000,71,17,33,2,71,18,33,3,ok,2,0,0.000,1,0.11,-0.37,9.23,13,0.013,8.38
0.9587,0.02269,-0.01745,0.13265,0.00000,0.00000,0.00000,71,15,34,2,72,18,34,2,ok,2,0,0.000,1,0.11,-0.37,9.23,13,0.026,8.38
0.9789,0.02269,-0.01745,0.13265,0.00000,0.00000,0.00000,71,14,36,1,71,21,36,1,ok,2,0,0.000,1,0.11,-0.37,9.23,13,0.039,8.38
0.9837,0.02269,-0.01745,0.13265,0.00000,0.00000,0.00000,71,11,37,1,71,22,38,1,ok,2,0,0.000,1,0.11,-0.37,9.23,13,0.051,8.38
0.9963,0.02269,-0.01745,0.13265,0.00000,0.00000,0.00000,70,7,38,2,71,24,39,1,ok,2,0,0.000,1,0.11,-0.37,9.23,13,0.064,8.38
1.0189,0.02269,-0.01745,0.13265,0.00000,0.00000,0.00000,69,5,39,2,72,25,40,1,ok,2,0,0.000,1,0.11,-0.37,9.23,13,0.076,8.38
1.0220,0.02269,-0.01745,0.13265,0.00000,0.00000,0.00000,68,1,41,1,71,27,42,1,ok,2,0,0.000,1,0.11,-0.37,9.23,13,0.089,8.38
1.0348,0.02269,-0.01745,0.13265,0.00000,0.00000,0.00000,67,-1,42,1,71,28,42,1,ok,2,0,0.000,1,0.11,-0.37,9.23,13,0.102,8.38
1.0549,0.02269,-0.01745,0.13265,0.00000,0.00000,0.00000,66,-3,44,2,71,28,44,0,ok,2,0,0.000,1,0.11,-0.37,9.23,13,0.114,8.38
1.0596,0.02269,-0.01745,0.13265,0.00000,0.00000,0.00000,64,-4,44,2,72,28,45,0,ok,2,0,0.000,1,0.11,-0.37,9.23,13,0.127,8.38
1.0721,0.02269,-0.01745,0.13265,0.00000,0.00000,0.00000,63,-6,46,2,74,26,46,0,ok,2,0,0.000,1,0.11,-0.37,9.23,13,0.140,8.38
1.0949,0.02269,-0.01745,0.13265,0.00000,0.00000,0.00000,62,-8,47,2,76,21,47,0,ok,2,0,0.000,1,0.11,-0.37,9.23,13,0.152,8.38
1.0980,0.02269,-0.01745,0.13265,0.00000,0.00000,0.00000,60,-9,49,3,77,16,48,0,ok,2,0,0.000,1,0.11,-0.37,9.23,13,0.165,8.38
1.1106,0.02269,-0.01745,0.13265,0.00000,0.00000,0.00000,57,-10,50,3,79,14,49,0,ok,2,0,0.000,1,0.11,-0.37,9.23,13,0.178,8.38
1.1309,0.02269,-0.01745,0.13265,0.00000,0.00000,0.00000,55,-11,50,3,79,13,49,0,ok,2,0,0.000,1,0.11,-0.37,9.23,13,0.190,8.38
1.1360,0.04014,0.01047,0.17104,0.00000,0.00000,0.00000,53,-12,50,5,79,11,51,0,ok,2,0,0.000,1,-0.67,0.02,10.43,14,0.000,8.38
1.1481,0.04014,0.01047,0.17104,0.00000,0.00000,0.00000,50,-11,52,5,79,7,52,0,ok,2,0,0.000,1,-0.67,0.02,10.43,14,0.013,8.38
1.1709,0.04014,0.01047,0.17104,0.00000,0.00000,0.00000,47,-11,53,5,78,4,53,0,ok,2,0,0.000,1,-0.67,0.02,10.43,14,0.025,8.38
1.1741,0.04014,0.01047,0.17104,0.00000,0.00000,0.00000,45,-11,54,6,77,2,54,0,ok,2,0,0.000,1,-0.67,0.02,10.43,14,0.038,8.38
1.1867,0.04014,0.01047,0.17104,0.00000,0.00000,0.00000,42,-11,54,7,77,-1,54,0,ok,2,0,0.000,1,-0.67,0.02,10.43,14,0.051,8.38
1.2069,0.04014,0.01047,0.17104,0.00000,0.00000,0.00000,40,-11,56,7,76,-3,55,-1,ok,2,0,0.000,1,-0.67,0.02,10.43,14,0.064,8.38
1.2117,0.04014,0.01047,0.17104,0.00000,0.00000,0.00000,38,-10,56,7,75,-5,56,0,ok,2,0,0.000,1,-0.67,0.02,10.43,14,0.076,8.38
1.2241,0.04014,0.01047,0.17104,0.00000,0.00000,0.00000,35,-9,57,7,74,-8,57,-1,ok,2,0,0.000,1,-0.67,0.02,10.43,14,0.089,8.38
1.2469,0.04014,0.01047,0.17104,0.00000,0.00000,0.00000,32,-8,57,8,71,-7,57,0,ok,2,0,0.000,1,-0.67,0.02,10.43,14,0.101,8.38
1.2501,0.04014,0.01047,0.17104,0.00000,0.00000,0.00000,29,-6,58,8,70,-10,58,0,ok,2,0,0.000,1,-0.67,0.02,10.43,14,0.114,8.38
1.2627,0.04014,0.01047,0.17104,0.00000,0.00000,0.00000,26,-4,59,9,69,-11,59,0,ok,2,0,0.000,1,-0.67,0.02,10.43,14,0.127,8.38
1.2829,0.04014,0.01047,0.17104,0.00000,0.00000,0.00000,22,-2,60,11,66,-12,60,0,ok,2,0,0.000,1,-0.67,0.02,10.43,14,0.140,8.38
1.2877,0.04014,0.01047,0.17104,0.00000,0.00000,0.00000,20,-1,61,11,64,-13,61,0,ok,2,0,0.000,1,-0.67,0.02,10.43,14,0.152,8.38
1.3003,0.04014,0.01047,0.17104,0.00000,0.00000,0.00000,18,0,62,11,62,-13,63,-3,ok,2,0,0.000,1,-0.67,0.02,10.43,14,0.165,8.38
1.3229,0.04014,0.01047,0.17104,0.00000,0.00000,0.00000,16,3,62,12,59,-14,63,-1,ok,2,0,0.000,1,-0.67,0.02,10.43,14,0.177,8.38
1.3261,0.04014,0.01047,0.17104,0.00000,0.00000,0.00000,14,7,63,13,58,-15,64,-2,ok,2,0,0.000,1,-0.67,0.02,10.43,14,0.190,8.38
1.3390,0.04712,0.01745,0.19373,0.00000,0.00000,0.00000,12,10,63,14,55,-14,65,-1,ok,2,0,0.000,1,-0.32,0.37,9.30,15,0.000,8.38
1.3589,0.04712,0.01745,0.19373,0.00000,0.00000,0.00000,11,12,64,15,52,-13,65,-1,ok,2,0,0.000,1,-0.32,0.37,9.30,15,0.012,8.38
1.3636,0.04712,0.01745,0.19373,0.00000,0.00000,0.00000,12,13,64,16,50,-13,66,0,ok,2,0,0.000,1,-0.32,0.37,9.30,15,0.025,8.38
1.3761,0.04712,0.01745,0.19373,0.00000,0.00000,0.00000,12,13,64,17,47,-12,67,-1,ok,2,0,0.000,1,-0.32,0.37,9.30,15,0.037,8.38
1.3989,0.04712,0.01745,0.19373,0.00000,0.00000,0.00000,14,12,65,17,44,-11,68,0,ok,2,0,0.000,1,-0.32,0.37,9.30,15,0.050,8.38
1.4020,0.04712,0.01745,0.19373,0.00000,0.00000,0.00000,15,12,65,18,41,-10,69,0,ok,4,0,0.000,1,-0.32,0.37,9.30,15,0.063,8.38
1.4147,0.04712,0.01745,0.19373,0.00000,0.00000,0.00000,16,11,65,19,38,-9,69,1,ok,4,0,0.000,1,-0.32,0.37,9.30,15,0.076,8.38
1.4349,0.04712,0.01745,0.19373,0.00000,0.00000,0.00000,18,10,66,19,35,-8,69,2,ok,4,0,0.000,1,-0.32,0.37,9.30,15,0.089,8.38
1.4397,0.04712,0.01745,0.19373,0.00000,0.00000,0.00000,18,10,66,20,33,-7,70,3,ok,4,0,0.000,1,-0.32,0.37,9.30,15,0.101,8.38
1.4521,0.04712,0.01745,0.19373,0.00000,0.00000,0.00000,20,8,66,21,31,-5,71,4,ok,4,0,0.000,1,-0.32,0.37,9.30,15,0.114,8.38
1.4749,0.04712,0.01745,0.19373,0.00000,0.00000,0.00000,22,8,66,22,29,-2,72,4,ok,4,0,0.000,1,-0.32,0.37,9.30,15,0.126,8.38
1.4782,0.04712,0.01745,0.19373,0.00000,0.00000,0.00000,23,7,65,23,28,0,71,6,ok,4,0,0.000,1,-0.32,0.37,9.30,15,0.139,8.38
1.4907,0.04712,0.01745,0.19373,0.00000,0.00000,0.00000,24,6,65,24,27,4,71,7,ok,4,0,0.000,1,-0.32,0.37,9.30,15,0.152,8.38
1.5109,0.04712,0.01745,0.19373,0.00000,0.00000,0.00000,25,6,65,25,26,6,72,8,ok,4,0,0.000,1,-0.32,0.37,9.30,15,0.164,8.38
1.5156,0.04712,0.01745,0.19373,0.00000,0.00000,0.00000,27,5,64,28,28,6,72,9,ok,4,0,0.000,1,-0.32,0.37,9.30,15,0.177,8.38
1.5284,0.05411,0.04887,0.19199,0.00000,0.00000,0.00000,28,4,64,29,29,5,72,11,ok,4,0,0.000,1,1.21,0.74,10.29,16,0.000,8.38
1.5509,0.05411,0.04887,0.19199,0.00000,0.00000,0.00000,29,4,65,27,30,3,72,12,ok,4,0,0.000,2,1.21,0.74,10.29,16,0.013,8.38
1.5539,0.05411,0.04887,0.19199,0.00000,0.00000,0.00000,30,3,68,24,31,3,73,14,ok,4,0,0.000,2,1.21,0.74,10.29,16,0.026,8.38
1.5666,0.05411,0.04887,0.19199,0.00000,0.00000,0.00000,31,3,70,21,32,3,73,15,ok,4,0,0.000,2,1.21,0.74,10.29,16,0.039,8.38
1.5869,0.05411,0.04887,0.19199,0.00000,0.00000,0.00000,33,2,71,17,33,2,72,17,ok,4,0,0.000,2,1.21,0.74,10.29,16,0.051,8.38
1.5917,0.05411,0.04887,0.19199,0.00000,0.00000,0.00000,34,2,71,15,34,1,72,19,ok,4,0,0.000,2,1.21,0.74,10.29,16,0.063,8.38
1.6042,0.05411,0.04887,0.19199,0.00000,0.00000,0.00000,36,1,71,14,37,1,73,20,ok,4,0,0.000,2,1.21,0.74,10.29,16,0.076,8.38
1.6269,0.05411,0.04887,0.19199,0.00000,0.00000,0.00000,37,1,71,11,37,2,72,22,ok,4,0,0.000,2,1.21,0.74,10.29,16,0.089,8.38
1.6302,0.05411,0.04887,0.19199,0.00000,0.00000,0.00000,39,1,71,8,39,2,72,23,ok,4,0,0.000,2,1.21,0.74,10.29,16,0.102,8.38
1.6427,0.05411,0.04887,0.19199,0.00000,0.00000,0.00000,40,1,70,5,40,1,73,24,ok,4,0,0.000,2,1.21,0.74,10.29,16,0.115,8.38
1.6629,0.05411,0.04887,0.19199,0.00000,0.00000,0.00000,42,0,70,3,41,2,72,26,ok,4,0,0.000,2,1.21,0.74,10.29,16,0.127,8.38
1.6677,0.05411,0.04887,0.19199,0.00000,0.00000,0.00000,43,0,69,1,42,1,72,27,ok,4,0,0.000,2,1.21,0.74,10.29,16,0.140,8.38
1.6801,0.05411,0.04887,0.19199,0.00000,0.00000,0.00000,44,0,67,-1,44,1,72,29,ok,4,0,0.000,2,1.21,0.74,10.29,16,0.152,8.38
1.7029,0.05411,0.04887,0.19199,0.00000,0.00000,0.00000,45,0,65,-2,45,0,73,29,ok,4,0,0.001,2,1.21,0.74,10.29,16,0.165,8.38
1.7060,0.05411,0.04887,0.19199,0.00000,0.00000,0.00000,46,0,64,-4,46,0,74,28,ok,4,0,0.001,2,1.21,0.74,10.29,16,0.178,8.38
1.7186,0.05411,0.04887,0.19199,0.00000,0.00000,0.00000,47,1,63,-6,48,0,76,26,ok,4,0,0.001,2,1.21,0.74,10.29,16,0.191,8.38
1.7389,-0.08727,-0.01047,0.21817,0.00000,0.00000,0.00000,49,2,61,-7,48,0,78,20,ok,4,0,0.001,2,0.52,-0.88,10.40,17,0.000,8.38
1.7437,-0.08727,-0.01047,0.21817,0.00000,0.00000,0.00000,50,1,59,-8,49,0,79,17,ok,4,0,0.001,2,0.52,-0.88,10.40,17,0.013,8.38
1.7562,-0.08727,-0.01047,0.21817,0.00000,0.00000,0.00000,51,1,56,-8,50,0,81,14,ok,4,0,0.001,2,0.52,-0.88,10.40,17,0.025,8.38
1.7789,-0.08727,-0.01047,0.21817,0.00000,0.00000,0.00000,51,3,54,-9,52,0,81,14,ok,4,0,0.001,2,0.52,-0.88,10.40,17,0.038,8.38
1.7819,-0.08727,-0.01047,0.21817,0.00000,0.00000,0.00000,52,4,51,-9,53,0,81,11,ok,4,0,0.001,2,0.52,-0.88,10.40,17,0.051,8.38
1.7946,-0.08727,-0.01047,0.21817,0.00000,0.00000,0.00000,52,4,49,-9,54,0,81,7,ok,4,0,0.001,2,0.52,-0.88,10.40,17,0.064,8.38
1.8149,-0.08727,-0.01047,0.21817,0.00000,0.00000,0.00000,53,5,46,-9,55,1,80,4,ok,4,0,0.001,2,0.52,-0.88,10.40,17,0.076,8.38
1.8196,-0.08727,-0.01047,0.21817,0.00000,0.00000,0.00000,53,6,44,-9,56,0,80,2,ok,2,0,0.001,2,0.52,-0.88,10.40,17,0.089,8.38
1.8321,-0.08727,-0.01047,0.21817,0.00000,0.00000,0.00000,55,6,41,-9,57,1,78,-2,ok,2,0,0.001,2,0.52,-0.88,10.40,17,0.101,8.38
1.8549,-0.08727,-0.01047,0.21817,0.00000,0.00000,0.00000,55,6,39,-8,58,0,78,-3,ok,2,0,0.001,2,0.52,-0.88,10.40,17,0.114,8.38
1.8582,-0.08727,-0.01047,0.21817,0.00000,0.00000,0.00000,57,7,36,-7,58,1,76,-5,ok,2,0,0.001,2,0.52,-0.88,10.40,17,0.127,8.38
1.8707,-0.08727,-0.01047,0.21817,0.00000,0.00000,0.00000,57,8,33,-6,59,1,74,-7,ok,2,0,0.001,2,0.52,-0.88,10.40,17,0.140,8.38
1.8909,-0.08727,-0.01047,0.21817,0.00000,0.00000,0.00000,58,8,29,-5,60,1,72,-7,ok,2,0,0.001,2,0.52,-0.88,10.40,17,0.152,8.38
1.8956,-0.08727,-0.01047,0.21817,0.00000,0.00000,0.00000,59,9,26,-3,61,1,70,-9,ok,2,0,0.001,2,0.52,-0.88,10.40,17,0.165,8.38
1.9081,-0.08727,-0.01047,0.21817,0.00000,0.00000,0.00000,60,10,22,-1,62,0,69,-11,ok,2,0,0.001,2,0.52,-0.88,10.40,17,0.177,8.38
1.9309,-0.08727,-0.01047,0.21817,0.00000,0.00000,0.00000,61,10,20,0,64,-2,67,-12,ok,2,0,0.001,2,0.52,-0.88,10.40,17,0.190,8.38
1.9343,-0.10472,-0.02618,0.31940,0.00000,0.00000,0.00000,62,11,18,1,64,-1,65,-13,ok,2,0,0.001,2,-0.39,-0.77,9.74,18,0.000,8.38
1.9469,-0.10472,-0.02618,0.31940,0.00000,0.00000,0.00000,62,12,16,3,65,0,63,-14,ok,2,0,0.001,2,-0.39,-0.77,9.74,18,0.013,8.38
1.9669,-0.10472,-0.02618,0.31940,0.00000,0.00000,0.00000,63,12,15,7,66,0,60,-14,ok,2,0,0.001,2,-0.39,-0.77,9.74,18,0.025,8.38
1.9717,-0.10472,-0.02618,0.31940,0.00000,0.00000,0.00000,63,13,13,10,66,0,58,-15,ok,2,0,0.001,2,-0.39,-0.77,9.74,18,0.038,8.38
1.9842,-0.10472,-0.02618,0.31940,0.00000,0.00000,0.00000,64,14,11,12,67,0,55,-13,ok,2,0,0.001,2,-0.39,-0.77,9.74,18,0.050,8.38
2.0069,-0.10472,-0.02618,0.31940,0.00000,0.00000,0.00000,64,15,13,13,67,0,53,-13,ok,2,0,0.001,2,-0.39,-0.77,9.74,18,0.063,8.38
2.0099,-0.10472,-0.02618,0.31940,0.00000,0.00000,0.00000,64,16,13,13,68,1,50,-12,ok,2,0,0.001,2,-0.39,-0.77,9.74,18,0.076,8.38
2.0226,-0.10472,-0.02618,0.31940,0.00000,0.00000,0.00000,65,17,14,11,69,1,47,-11,ok,2,0,0.001,2,-0.39,-0.77,9.74,18,0.089,8.38
2.0429,-0.10472,-0.02618,0.31940,0.00000,0.00000,0.00000,65,17,15,11,69,2,45,-11,ok,2,0,0.001,2,-0.39,-0.77,9.74,18,0.101,8.38
2.0477,-0.10472,-0.02618,0.31940,0.00000,0.00000,0.00000,66,18,16,10,69,2,41,-10,ok,2,0,0.001,2,-0.39,-0.77,9.74,18,0.114,8.38
2.0601,-0.10472,-0.02618,0.31940,0.00000,0.00000,0.00000,66,18,17,9,70,3,39,-9,ok,2,0,0.001,2,-0.39,-0.77,9.74,18,0.126,8.38
2.0829,-0.10472,-0.02618,0.31940,0.00000,0.00000,0.00000,66,20,18,9,70,4,35,-7,ok,2,0,0.001,2,-0.39,-0.77,9.74,18,0.139,8.38
2.0859,-0.10472,-0.02618,0.31940,0.00000,0.00000,0.00000,67,21,20,8,71,5,34,-6,ok,2,0,0.001,2,-0.39,-0.77,9.74,18,0.152,8.38
2.0989,-0.10472,-0.02618,0.31940,0.00000,0.00000,0.00000,67,22,21,7,71,6,32,-4,ok,2,0,0.001,2,-0.39,-0.77,9.74,18,0.165,8.38
2.1189,-0.10472,-0.02618,0.31940,0.00000,0.00000,0.00000,66,23,22,6,71,7,29,-1,ok,2,0,0.001,2,-0.39,-0.77,9.74,18,0.177,8.38
2.1236,-0.10472,-0.02618,0.31940,0.00000,0.00000,0.00000,66,24,24,6,71,8,28,1,ok,2,0,0.001,2,-0.39,-0.77,9.74,18,0.190,8.38
2.1364,-0.02094,0.02618,0.32463,0.00000,0.00000,0.00000,66,25,25,5,71,8,27,5,ok,2,0,0.001,2,-0.15,-0.80,10.68,19,0.000,8.38
2.1589,-0.02094,0.02618,0.32463,0.00000,0.00000,0.00000,65,28,26,5,71,10,27,7,ok,2,0,0.001,2,-0.15,-0.80,10.68,19,0.013,8.38
2.1620,-0.02094,0.02618,0.32463,0.00000,0.00000,0.00000,64,29,27,4,71,12,29,6,ok,2,0,0.001,2,-0.15,-0.80,10.68,19,0.026,8.38
2.1747,-0.02094,0.02618,0.32463,0.00000,0.00000,0.00000,65,28,29,3,71,13,29,5,ok,2,0,0.001,2,-0.15,-0.80,10.68,19,0.039,8.38
2.1949,-0.02094,0.02618,0.32463,0.00000,0.00000,0.00000,68,25,30,3,72,14,30,3,ok,2,0,0.001,2,-0.15,-0.80,10.68,19,0.051,8.38
2.1997,-0.02094,0.02618,0.32463,0.00000,0.00000,0.00000,70,21,31,2,71,16,31,3,ok,2,0,0.001,2,-0.15,-0.80,10.68,19,0.063,8.38
2.2121,-0.02094,0.02618,0.32463,0.00000,0.00000,0.00000,71,17,33,2,71,18,33,3,ok,2,0,0.001,2,-0.15,-0.80,10.68,19,0.076,8.38
2.2349,-0.02094,0.02618,0.32463,0.00000,0.00000,0.00000,71,15,34,2,72,18,34,2,ok,2,0,0.001,2,-0.15,-0.80,10.68,19,0.089,8.38
2.2380,-0.02094,0.02618,0.32463,0.00000,0.00000,0.00000,71,14,35,1,71,21,36,1,ok,2,0,0.001,2,-0.15,-0.80,10.68,19,0.102,8.38
2.2507,-0.02094,0.02618,0.32463,0.00000,0.00000,0.00000,71,11,36,1,71,22,38,1,ok,2,0,0.001,2,-0.15,-0.80,10.68,19,0.115,8.38
2.2709,-0.02094,0.02618,0.32463,0.00000,0.00000,0.00000,70,8,38,2,71,24,38,2,ok,2,0,0.001,2,-0.15,-0.80,10.68,19,0.127,8.38
2.2757,-0.02094,0.02618,0.32463,0.00000,0.00000,0.00000,70,5,39,2,71,25,40,1,ok,2,0,0.001,2,-0.15,-0.80,10.68,19,0.140,8.38
2.2881,-0.02094,0.02618,0.32463,0.00000,0.00000,0.00000,69,1,41,1,71,27,42,1,ok,2,0,0.001,2,-0.15,-0.80,10.68,19,0.152,8.38
2.3109,-0.02094,0.02618,0.32463,0.00000,0.00000,0.00000,68,-1,42,1,71,28,42,1,ok,2,0,0.001,2,-0.15,-0.80,10.68,19,0.165,8.38
2.3142,-0.02094,0.02618,0.32463,0.00000,0.00000,0.00000,66,-3,44,2,71,29,44,1,ok,2,0,0.001,2,-0.15,-0.80,10.68,19,0.178,8.38
2.3267,-0.02094,0.02618,0.32463,0.00000,0.00000,0.00000,64,-4,44,2,72,28,45,1,ok,2,0,0.001,2,-0.15,-0.80,10.68,19,0.191,8.38
2.3469,-0.02094,0.02618,0.32463,0.00000,0.00000,0.00000,63,-6,46,2,74,26,46,0,ok,2,0,0.001,2,-0.15,-0.80,10.68,19,0.203,8.38
2.3519,0.06632,-0.00349,0.37874,0.00000,0.00000,0.00000,62,-8,47,2,76,21,47,0,ok,2,0,0.001,2,0.20,0.26,9.57,20,0.000,8.38
2.3641,0.06632,-0.00349,0.37874,0.00000,0.00000,0.00000,60,-9,48,3,77,17,49,0,ok,2,0,0.001,2,0.20,0.26,9.57,20,0.013,8.38
2.3869,0.06632,-0.00349,0.37874,0.00000,0.00000,0.00000,58,-10,49,3,79,14,49,0,ok,2,0,0.001,2,0.20,0.26,9.57,20,0.025,8.38
2.3901,0.06632,-0.00349,0.37874,0.00000,0.00000,0.00000,55,-11,50,3,79,14,50,0,ok,2,0,0.001,2,0.20,0.26,9.57,20,0.038,8.38
2.4029,0.06632,-0.00349,0.37874,0.00000,0.00000,0.00000,53,-12,51,5,79,11,51,0,ok,2,0,0.001,2,0.20,0.26,9.57,20,0.051,8.38
2.4229,0.06632,-0.00349,0.37874,0.00000,0.00000,0.00000,50,-11,52,6,79,8,52,0,ok,2,0,0.001,2,0.20,0.26,9.57,20,0.063,8.38
2.4276,0.06632,-0.00349,0.37874,0.00000,0.00000,0.00000,48,-11,53,5,78,5,53,0,ok,2,0,0.001,2,0.20,0.26,9.57,20,0.076,8.38
2.4401,0.06632,-0.00349,0.37874,0.00000,0.00000,0.00000,46,-11,53,6,77,2,54,0,ok,2,0,0.001,2,0.20,0.26,9.57,20,0.089,8.38
2.4629,0.06632,-0.00349,0.37874,0.00000,0.00000,0.00000,43,-11,54,7,77,-1,54,0,ok,2,0,0.001,2,0.20,0.26,9.57,20,0.101,8.38
2.4660,0.06632,-0.00349,0.37874,0.00000,0.00000,0.00000,41,-11,56,7,76,-3,55,-1,ok,2,0,0.001,2,0.20,0.26,9.57,20,0.114,8.38
2.4786,0.06632,-0.00349,0.37874,0.00000,0.00000,0.00000,39,-10,56,7,75,-5,56,0,ok,2,0,0.001,2,0.20,0.26,9.57,20,0.127,8.38
2.4989,0.06632,-0.00349,0.37874,0.00000,0.00000,0.00000,35,-9,57,7,73,-8,57,-1,ok,2,0,0.001,2,0.20,0.26,9.57,20,0.140,8.38
2.5036,0.06632,-0.00349,0.37874,0.00000,0.00000,0.00000,33,-8,57,8,71,-7,57,0,ok,2,0,0.001,2,0.20,0.26,9.57,20,0.152,8.38
2.5161,0.06632,-0.00349,0.37874,0.00000,0.00000,0.00000,29,-6,58,8,69,-9,58,0,ok,2,0,0.001,2,0.20,0.26,9.57,20,0.164,8.38
2.5389,0.06632,-0.00349,0.37874,0.00000,0.00000,0.00000,27,-4,59,9,68,-11,59,0,ok,2,0,0.001,2,0.20,0.26,9.57,20,0.177,8.38
2.5421,0.06632,-0.00349,0.37874,0.00000,0.00000,0.00000,22,-2,60,11,66,-12,60,0,ok,2,0,0.001,3,0.20,0.26,9.57,20,0.190,8.38
2.5550,0.08552,-0.02443,0.41364,0.00000,0.00000,0.00000,21,-1,61,11,64,-13,61,0,ok,2,0,0.001,3,-1.11,1.27,10.45,21,0.000,8.38
2.5749,0.08552,-0.02443,0.41364,0.00000,0.00000,0.00000,19,1,62,11,62,-13,63,-3,ok,2,0,0.001,3,-1.11,1.27,10.45,21,0.012,8.38
2.5797,0.08552,-0.02443,0.41364,0.00000,0.00000,0.00000,17,3,62,12,59,-14,64,-2,ok,2,0,0.001,3,-1.11,1.27,10.45,21,0.025,8.38
2.5921,0.08552,-0.02443,0.41364,0.00000,0.00000,0.00000,15,7,63,13,57,-15,64,-2,ok,2,0,0.001,3,-1.11,1.27,10.45,21,0.038,8.38
2.6149,0.08552,-0.02443,0.41364,0.00000,0.00000,0.00000,13,10,63,14,54,-14,65,-1,ok,2,0,0.001,3,-1.11,1.27,10.45,21,0.050,8.38
2.6180,0.08552,-0.02443,0.41364,0.00000,0.00000,0.00000,11,13,64,15,52,-13,66,-1,ok,2,0,0.001,3,-1.11,1.27,10.45,21,0.063,8.38
2.6307,0.08552,-0.02443,0.41364,0.00000,0.00000,0.00000,13,13,64,16,49,-13,67,0,ok,2,0,0.001,3,-1.11,1.27,10.45,21,0.076,8.38
2.6509,0.08552,-0.02443,0.41364,0.00000,0.00000,0.00000,13,13,64,17,46,-12,67,-1,ok,2,0,0.001,3,-1.11,1.27,10.45,21,0.089,8.38
2.6557,0.08552,-0.02443,0.41364,0.00000,0.00000,0.00000,14,12,65,17,44,-12,68,0,ok,2,0,0.001,3,-1.11,1.27,10.45,21,0.101,8.38
2.6681,0.08552,-0.02443,0.41364,0.00000,0.00000,0.00000,16,12,65,18,41,-10,69,0,ok,2,0,0.001,3,-1.11,1.27,10.45,21,0.113,8.38
2.6909,0.08552,-0.02443,0.41364,0.00000,0.00000,0.00000,16,11,65,19,38,-10,69,2,ok,2,0,0.001,3,-1.11,1.27,10.45,21,0.126,8.38
2.6939,0.08552,-0.02443,0.41364,0.00000,0.00000,0.00000,18,10,66,19,35,-8,70,2,ok,0,0,0.001,3,-1.11,1.27,10.45,21,0.139,8.38
2.7066,0.08552,-0.02443,0.41364,0.00000,0.00000,0.00000,19,10,65,21,33,-7,71,3,ok,0,0,0.001,3,-1.11,1.27,10.45,21,0.152,8.38
2.7269,0.08552,-0.02443,0.41364,0.00000,0.00000,0.00000,21,8,66,21,31,-5,71,4,ok,0,0,0.001,3,-1.11,1.27,10.45,21,0.164,8.38
2.7316,0.08552,-0.02443,0.41364,0.00000,0.00000,0.00000,22,8,66,22,29,-2,72,4,ok,0,0,0.001,3,-1.11,1.27,10.45,21,0.177,8.38
2.7442,0.08552,-0.02443,0.41364,0.00000,0.00000,0.00000,24,7,65,23,28,0,72,6,ok,0,0,0.001,3,-1.11,1.27,10.45,21,0.190,8.38
2.7669,-0.03491,-0.02793,0.44331,0.00000,0.00000,0.00000,25,6,65,24,26,4,72,7,ok,0,0,0.001,3,0.10,0.02,9.46,22,0.000,8.38
2.7701,-0.03491,-0.02793,0.44331,0.00000,0.00000,0.00000,26,6,65,25,26,6,72,8,ok,0,0,0.001,3,0.10,0.02,9.46,22,0.013,8.38
2.7826,-0.03491,-0.02793,0.44331,0.00000,0.00000,0.00000,27,5,64,28,28,5,72,9,ok,0,0,0.001,3,0.10,0.02,9.46,22,0.026,8.38
2.8029,-0.03491,-0.02793,0.44331,0.00000,0.00000,0.00000,29,4,64,29,28,5,73,11,ok,0,0,0.001,3,0.10,0.02,9.46,22,0.039,8.38
2.8076,-0.03491,-0.02793,0.44331,0.00000,0.00000,0.00000,30,4,65,28,29,3,73,12,ok,0,0,0.001,3,0.10,0.02,9.46,22,0.051,8.38
2.8201,-0.03491,-0.02793,0.44331,0.00000,0.00000,0.00000,31,3,68,25,30,2,73,14,ok,0,0,0.001,3,0.10,0.02,9.46,22,0.064,8.38
2.8429,-0.03491,-0.02793,0.44331,0.00000,0.00000,0.00000,32,2,70,21,32,2,73,15,ok,0,0,0.001,3,0.10,0.02,9.46,22,0.076,8.38
2.8459,-0.03491,-0.02793,0.44331,0.00000,0.00000,0.00000,34,2,71,17,33,2,73,17,ok,0,0,0.001,3,0.10,0.02,9.46,22,0.089,8.38
2.8586,-0.03491,-0.02793,0.44331,0.00000,0.00000,0.00000,35,2,72,15,34,1,73,19,ok,0,0,0.001,3,0.10,0.02,9.46,22,0.102,8.38
2.8789,-0.03491,-0.02793,0.44331,0.00000,0.00000,0.00000,36,1,72,15,37,1,73,20,ok,0,0,0.001,3,0.10,0.02,9.46,22,0.114,8.38
2.8838,-0.03491,-0.02793,0.44331,0.00000,0.00000,0.00000,37,1,72,11,37,1,72,22,ok,0,0,0.001,3,0.10,0.02,9.46,22,0.127,8.38
2.8961,-0.03491,-0.02793,0.44331,0.00000,0.00000,0.00000,39,1,71,8,39,1,72,23,ok,0,0,0.001,3,0.10,0.02,9.46,22,0.140,8.38
2.9189,-0.03491,-0.02793,0.44331,0.00000,0.00000,0.00000,40,1,70,5,40,1,72,24,ok,0,0,0.001,3,0.10,0.02,9.46,22,0.152,8.38
2.9220,-0.03491,-0.02793,0.44331,0.00000,0.00000,0.00000,42,0,70,3,41,1,72,26,ok,0,0,0.001,3,0.10,0.02,9.46,22,0.165,8.38
2.9349,-0.03491,-0.02793,0.44331,0.00000,0.00000,0.00000,43,0,69,1,42,0,72,28,ok,0,0,0.001,3,0.10,0.02,9.46,22,0.178,8.38
2.9549,-0.03491,-0.02793,0.44331,0.00000,0.00000,0.00000,45,0,68,-1,44,0,71,29,ok,0,0,0.001,3,0.10,0.02,9.46,22,0.191,8.38
2.9598,-0.03491,-0.02793,0.44331,0.00000,0.00000,0.00000,45,0,65,-2,45,-1,73,29,ok,0,0,0.001,3,0.10,0.02,9.46,22,0.203,8.38
2.9724,-0.03491,0.02094,0.43808,0.00000,0.00000,0.00000,47,0,64,-4,46,-1,74,28,ok,0,0,0.001,3,0.32,-0.93,9.44,23,0.000,8.38
2.9949,-0.03491,0.02094,0.43808,0.00000,0.00000,0.00000,48,1,63,-6,47,0,75,26,ok,0,0,0.001,3,0.32,-0.93,9.44,23,0.013,8.38
2.9979,-0.03491,0.02094,0.43808,0.00000,0.00000,0.00000,49,2,61,-7,48,0,77,20,ok,0,0,0.001,3,0.32,-0.93,9.44,23,0.026,8.38
3.0106,-0.03491,0.02094,0.43808,0.00000,0.00000,0.00000,50,1,59,-8,49,0,78,17,ok,0,0,0.001,3,0.32,-0.93,9.44,23,0.039,8.38
3.0309,-0.03491,0.02094,0.43808,0.00000,0.00000,0.00000,51,2,56,-9,50,0,80,14,ok,2,0,0.001,3,0.32,-0.93,9.44,23,0.051,8.38
3.0356,-0.03491,0.02094,0.43808,0.00000,0.00000,0.00000,51,4,54,-10,52,0,80,13,ok,2,0,0.001,3,0.32,-0.93,9.44,23,0.064,8.38
3.0483,-0.03491,0.02094,0.43808,0.00000,0.00000,0.00000,52,5,51,-9,53,0,80,10,ok,2,0,0.001,3,0.32,-0.93,9.44,23,0.076,8.38
3.0709,-0.03491,0.02094,0.43808,0.00000,0.00000,0.00000,53,4,48,-9,54,0,80,7,ok,2,0,0.001,3,0.32,-0.93,9.44,23,0.089,8.38
3.0740,-0.03491,0.02094,0.43808,0.00000,0.00000,0.00000,53,5,46,-9,55,1,80,4,ok,2,0,0.001,3,0.32,-0.93,9.44,23,0.102,8.38
3.0869,-0.03491,0.02094,0.43808,0.00000,0.00000,0.00000,54,6,43,-9,56,1,79,2,ok,2,0,0.001,3,0.32,-0.93,9.44,23,0.114,8.38
3.1069,-0.03491,0.02094,0.43808,0.00000,0.00000,0.00000,56,6,41,-9,57,1,78,-2,ok,2,0,0.001,3,0.32,-0.93,9.44,23,0.127,8.38
3.1116,-0.03491,0.02094,0.43808,0.00000,0.00000,0.00000,56,6,39,-8,58,0,78,-3,ok,2,0,0.001,3,0.32,-0.93,9.44,23,0.139,8.38
3.1241,-0.03491,0.02094,0.43808,0.00000,0.00000,0.00000,57,7,35,-7,58,1,77,-5,ok,2,0,0.001,3,0.32,-0.93,9.44,23,0.152,8.38
3.1469,-0.03491,0.02094,0.43808,0.00000,0.00000,0.00000,58,8,33,-6,59,1,75,-7,ok,2,0,0.001,3,0.32,-0.93,9.44,23,0.165,8.38
3.1500,-0.03491,0.02094,0.43808,0.00000,0.00000,0.00000,59,8,29,-5,60,2,72,-7,ok,2,0,0.001,3,0.32,-0.93,9.44,23,0.178,8.38
3.1627,-0.03491,0.02094,0.43808,0.00000,0.00000,0.00000,59,9,26,-3,61,2,71,-9,ok,2,0,0.001,3,0.32,-0.93,9.44,23,0.191,8.38
3.1829,-0.06283,0.00175,0.49742,0.00000,0.00000,0.00000,61,10,22,-1,62,1,69,-11,ok,2,0,0.001,3,-0.54,-0.88,9.58,24,0.000,8.38
3.1877,-0.06283,0.00175,0.49742,0.00000,0.00000,0.00000,61,10,20,0,64,-1,67,-12,ok,2,0,0.001,3,-0.54,-0.88,9.58,24,0.012,8.38
3.2004,-0.06283,0.00175,0.49742,0.00000,0.00000,0.00000,62,11,18,1,64,-1,65,-13,ok,2,0,0.001,3,-0.54,-0.88,9.58,24,0.025,8.38
3.2229,-0.06283,0.00175,0.49742,0.00000,0.00000,0.00000,63,12,16,3,65,0,63,-13,ok,2,0,0.001,3,-0.54,-0.88,9.58,24,0.038,8.38
3.2260,-0.06283,0.00175,0.49742,0.00000,0.00000,0.00000,63,12,14,7,66,0,61,-14,ok,2,0,0.001,3,-0.54,-0.88,9.58,24,0.051,8.38
3.2387,-0.06283,0.00175,0.49742,0.00000,0.00000,0.00000,63,13,13,10,66,0,59,-14,ok,2,0,0.001,3,-0.54,-0.88,9.58,24,0.064,8.38
3.2589,-0.06283,0.00175,0.49742,0.00000,0.00000,0.00000,64,14,11,12,67,0,56,-13,ok,2,0,0.001,3,-0.54,-0.88,9.58,24,0.076,8.38
3.2636,-0.06283,0.00175,0.49742,0.00000,0.00000,0.00000,64,15,13,13,67,1,53,-12,ok,2,0,0.001,3,-0.54,-0.88,9.58,24,0.088,8.38
3.2761,-0.06283,0.00175,0.49742,0.00000,0.00000,0.00000,65,16,12,12,68,1,50,-12,ok,2,0,0.001,3,-0.54,-0.88,9.58,24,0.101,8.38
3.2989,-0.06283,0.00175,0.49742,0.00000,0.00000,0.00000,65,16,14,11,68,1,47,-11,ok,2,0,0.001,3,-0.54,-0.88,9.58,24,0.114,8.38
3.3020,-0.06283,0.00175,0.49742,0.00000,0.00000,0.00000,65,17,15,11,69,2,45,-11,ok,2,0,0.001,3,-0.54,-0.88,9.58,24,0.127,8.38
3.3147,-0.06283,0.00175,0.49742,0.00000,0.00000,0.00000,66,18,16,10,69,3,42,-9,ok,2,0,0.001,3,-0.54,-0.88,9.58,24,0.140,8.38
3.3349,-0.06283,0.00175,0.49742,0.00000,0.00000,0.00000,66,18,17,9,70,3,39,-9,ok,2,0,0.001,3,-0.54,-0.88,9.58,24,0.152,8.38
3.3396,-0.06283,0.00175,0.49742,0.00000,0.00000,0.00000,66,20,18,9,70,4,35,-7,ok,2,0,0.001,3,-0.54,-0.88,9.58,24,0.164,8.38
3.3521,-0.06283,0.00175,0.49742,0.00000,0.00000,0.00000,67,21,20,8,71,5,34,-5,ok,2,0,0.001,3,-0.54,-0.88,9.58,24,0.177,8.38
3.3749,-0.06283,0.00175,0.49742,0.00000,0.00000,0.00000,67,22,21,7,71,6,32,-4,ok,2,0,0.001,3,-0.54,-0.88,9.58,24,0.189,8.38
3.3783,-0.02094,0.04712,0.53407,0.00000,0.00000,0.00000,67,23,22,6,71,7,30,-1,ok,2,0,0.001,3,0.49,-0.99,9.14,25,0.000,8.38
3.3907,-0.02094,0.04712,0.53407,0.00000,0.00000,0.00000,67,24,23,6,71,8,29,2,ok,2,0,0.001,3,0.49,-0.99,9.14,25,0.013,8.38
3.4109,-0.02094,0.04712,0.53407,0.00000,0.00000,0.00000,66,25,25,5,71,9,27,5,ok,2,0,0.001,3,0.49,-0.99,9.14,25,0.025,8.38
3.4157,-0.02094,0.04712,0.53407,0.00000,0.00000,0.00000,65,28,26,5,71,10,27,7,ok,2,0,0.001,3,0.49,-0.99,9.14,25,0.038,8.38
3.4283,-0.02094,0.04712,0.53407,0.00000,0.00000,0.00000,65,29,27,4,71,12,29,6,ok,2,0,0.001,3,0.49,-0.99,9.14,25,0.050,8.38
3.4509,-0.02094,0.04712,0.53407,0.00000,0.00000,0.00000,66,28,28,3,71,13,29,6,ok,2,0,0.001,3,0.49,-0.99,9.14,25,0.063,8.38
3.4539,-0.02094,0.04712,0.53407,0.00000,0.00000,0.00000,68,25,30,3,72,15,30,4,ok,2,0,0.001,3,0.49,-0.99,9.14,25,0.076,8.38
3.4666,-0.02094,0.04712,0.53407,0.00000,0.00000,0.00000,71,21,31,2,71,16,31,3,ok,2,0,0.001,3,0.49,-0.99,9.14,25,0.089,8.38
3.4869,-0.02094,0.04712,0.53407,0.00000,0.00000,0.00000,72,17,32,2,71,18,33,3,ok,2,0,0.001,3,0.49,-0.99,9.14,25,0.101,8.38
3.4916,-0.02094,0.04712,0.53407,0.00000,0.00000,0.00000,72,15,34,2,72,19,34,2,ok,2,0,0.001,3,0.49,-0.99,9.14,25,0.114,8.38
3.5041,-0.02094,0.04712,0.53407,0.00000,0.00000,0.00000,71,14,35,1,71,21,36,1,ok,2,0,0.001,3,0.49,-0.99,9.14,25,0.126,8.38
3.5269,-0.02094,0.04712,0.53407,0.00000,0.00000,0.00000,71,11,36,1,71,22,38,1,ok,2,0,0.001,3,0.49,-0.99,9.14,25,0.139,8.38
3.5300,-0.02094,0.04712,0.53407,0.00000,0.00000,0.00000,71,7,38,2,71,24,39,2,ok,2,0,0.001,3,0.49,-0.99,9.14,25,0.152,8.38
3.5428,-0.02094,0.04712,0.53407,0.00000,0.00000,0.00000,70,5,39,2,71,26,40,1,ok,2,0,0.001,3,0.49,-0.99,9.14,25,0.165,8.38
3.5629,-0.02094,0.04712,0.53407,0.00000,0.00000,0.00000,69,1,40,1,71,28,42,2,ok,2,0,0.001,4,0.49,-0.99,9.14,25,0.177,8.38
3.5681,-0.02094,0.04712,0.53407,0.00000,0.00000,0.00000,68,-1,42,1,71,29,43,2,ok,2,0,0.001,4,0.49,-0.99,9.14,25,0.190,8.38
3.5804,0.01745,0.00873,0.58119,0.00000,0.00000,0.00000,67,-3,43,2,71,29,44,1,ok,2,0,0.001,4,-0.59,0.63,11.48,26,0.000,8.38
3.6029,0.01745,0.00873,0.58119,0.00000,0.00000,0.00000,65,-4,44,2,72,29,45,1,ok,2,0,0.001,4,-0.59,0.63,11.48,26,0.013,8.38
3.6060,0.01745,0.00873,0.58119,0.00000,0.00000,0.00000,64,-6,45,2,74,26,46,0,ok,2,0,0.001,4,-0.59,0.63,11.48,26,0.026,8.38
3.6186,0.01745,0.00873,0.58119,0.00000,0.00000,0.00000,63,-8,47,2,76,22,47,0,ok,2,0,0.001,4,-0.59,0.63,11.48,26,0.039,8.38
3.6389,0.01745,0.00873,0.58119,0.00000,0.00000,0.00000,60,-9,48,3,77,17,49,0,ok,2,0,0.001,4,-0.59,0.63,11.48,26,0.051,8.38
3.6437,0.01745,0.00873,0.58119,0.00000,0.00000,0.00000,58,-10,49,3,79,14,49,0,ok,2,0,0.001,4,-0.59,0.63,11.48,26,0.064,8.38
3.6561,0.01745,0.00873,0.58119,0.00000,0.00000,0.00000,56,-11,50,3,79,14,50,0,ok,2,0,0.001,4,-0.59,0.63,11.48,26,0.076,8.38
3.6789,0.01745,0.00873,0.58119,0.00000,0.00000,0.00000,54,-12,50,5,79,11,51,0,ok,2,0,0.001,4,-0.59,0.63,11.48,26,0.089,8.38
3.6819,0.01745,0.00873,0.58119,0.00000,0.00000,0.00000,51,-11,52,6,79,8,52,0,ok,2,0,0.001,4,-0.59,0.63,11.48,26,0.102,8.38
3.6946,0.01745,0.00873,0.58119,0.00000,0.00000,0.00000,48,-11,52,5,78,5,53,0,ok,2,0,0.001,4,-0.59,0.63,11.48,26,0.115,8.38
3.7149,0.01745,0.00873,0.58119,0.00000,0.00000,0.00000,46,-11,53,6,77,2,54,0,ok,2,0,0.001,4,-0.59,0.63,11.48,26,0.127,8.38
3.7198,0.01745,0.00873,0.58119,0.00000,0.00000,0.00000,43,-11,54,7,77,-1,54,1,ok,2,0,0.001,4,-0.59,0.63,11.48,26,0.140,8.38
3.7321,0.01745,0.00873,0.58119,0.00000,0.00000,0.00000,41,-11,56,7,76,-3,55,0,ok,2,0,0.001,4,-0.59,0.63,11.48,26,0.152,8.38
3.7549,0.01745,0.00873,0.58119,0.00000,0.00000,0.00000,39,-10,56,7,75,-5,56,0,ok,2,0,0.001,4,-0.59,0.63,11.48,26,0.165,8.38
3.7582,0.01745,0.00873,0.58119,0.00000,0.00000,0.00000,36,-9,57,7,73,-8,57,-1,ok,2,0,0.001,4,-0.59,0.63,11.48,26,0.178,8.38
3.7710,0.05934,-0.02618,0.57596,0.00000,0.00000,0.00000,33,-8,57,8,70,-7,57,0,ok,2,0,0.001,4,-0.48,-0.05,9.29,27,0.000,8.38
3.7909,0.05934,-0.02618,0.57596,0.00000,0.00000,0.00000,30,-6,58,8,69,-9,58,0,ok,2,0,0.001,4,-0.48,-0.05,9.29,27,0.013,8.38
3.7957,0.05934,-0.02618,0.57596,0.00000,0.00000,0.00000,27,-4,59,9,68,-11,59,0,ok,2,0,0.001,4,-0.48,-0.05,9.29,27,0.025,8.38
3.8081,0.05934,-0.02618,0.57596,0.00000,0.00000,0.00000,23,-2,60,11,66,-12,60,0,ok,2,0,0.001,4,-0.48,-0.05,9.29,27,0.038,8.38
3.8309,0.05934,-0.02618,0.57596,0.00000,0.00000,0.00000,21,-1,61,11,64,-13,61,0,ok,2,0,0.001,4,-0.48,-0.05,9.29,27,0.050,8.38
3.8340,0.05934,-0.02618,0.57596,0.00000,0.00000,0.00000,19,1,62,11,62,-13,63,-3,ok,2,0,0.001,4,-0.48,-0.05,9.29,27,0.063,8.38
3.8466,0.05934,-0.02618,0.57596,0.00000,0.00000,0.00000,17,3,62,12,59,-14,64,-1,ok,2,0,0.001,4,-0.48,-0.05,9.29,27,0.076,8.38
3.8669,0.05934,-0.02618,0.57596,0.00000,0.00000,0.00000,15,7,63,13,57,-14,64,-2,ok,2,0,0.001,4,-0.48,-0.05,9.29,27,0.088,8.38
3.8716,0.05934,-0.02618,0.57596,0.00000,0.00000,0.00000,13,10,63,14,55,-14,65,-1,ok,2,0,0.001,4,-0.48,-0.05,9.29,27,0.101,8.38
3.8841,0.05934,-0.02618,0.57596,0.00000,0.00000,0.00000,11,13,64,15,52,-13,66,-1,ok,2,0,0.001,4,-0.48,-0.05,9.29,27,0.113,8.38
3.9069,0.05934,-0.02618,0.57596,0.00000,0.00000,0.00000,13,13,64,16,49,-13,67,0,ok,2,0,0.001,4,-0.48,-0.05,9.29,27,0.126,8.38
3.9100,0.05934,-0.02618,0.57596,0.00000,0.00000,0.00000,13,13,64,17,46,-12,67,0,ok,2,0,0.001,4,-0.48,-0.05,9.29,27,0.139,8.38
3.9230,0.05934,-0.02618,0.57596,0.00000,0.00000,0.00000,15,12,65,17,44,-11,68,0,ok,2,0,0.001,4,-0.48,-0.05,9.29,27,0.152,8.38
3.9429,0.05934,-0.02618,0.57596,0.00000,0.00000,0.00000,16,12,65,18,41,-10,69,0,ok,2,0,0.001,4,-0.48,-0.05,9.29,27,0.164,8.38
3.9477,0.05934,-0.02618,0.57596,0.00000,0.00000,0.00000,17,11,65,19,38,-10,69,2,ok,2,0,0.001,4,-0.48,-0.05,9.29,27,0.177,8.38
3.9601,0.05934,-0.02618,0.57596,0.00000,0.00000,0.00000,18,10,65,20,35,-8,70,2,ok,2,0,0.001,4,-0.48,-0.05,9.29,27,0.190,8.38
3.9829,-0.00873,-0.01571,0.60214,0.00000,0.00000,0.00000,19,10,65,21,33,-7,71,3,ok,2,0,0.001,4,0.21,-0.80,8.12,28,0.000,8.38
3.9860,-0.00873,-0.01571,0.60214,0.00000,0.00000,0.00000,21,8,66,21,31,-5,71,5,ok,2,0,0.001,4,0.21,-0.80,8.12,28,0.013,8.38
3.9986,-0.00873,-0.01571,0.60214,0.00000,0.00000,0.00000,22,8,66,23,29,-2,72,5,ok,2,0,0.001,4,0.21,-0.80,8.12,28,0.026,8.38
4.0189,-0.00873,-0.01571,0.60214,0.00000,0.00000,0.00000,24,7,65,23,28,0,72,7,ok,2,0,0.001,4,0.21,-0.80,8.12,28,0.039,8.38
4.0237,-0.00873,-0.01571,0.60214,0.00000,0.00000,0.00000,25,6,65,24,26,4,72,8,ok,0,0,0.001,4,0.21,-0.80,8.12,28,0.051,8.38
4.0362,-0.00873,-0.01571,0.60214,0.00000,0.00000,0.00000,26,6,65,25,26,6,72,8,ok,0,0,0.001,4,0.21,-0.80,8.12,28,0.063,8.38
4.0589,-0.00873,-0.01571,0.60214,0.00000,0.00000,0.00000,27,5,64,28,28,5,73,9,ok,0,0,0.001,4,0.21,-0.80,8.12,28,0.076,8.38
4.0619,-0.00873,-0.01571,0.60214,0.00000,0.00000,0.00000,29,4,64,29,28,5,73,11,ok,0,0,0.001,4,0.21,-0.80,8.12,28,0.089,8.38
4.0745,-0.00873,-0.01571,0.60214,0.00000,0.00000,0.00000,30,4,65,28,29,3,73,12,ok,0,0,0.001,4,0.21,-0.80,8.12,28,0.102,8.38
4.0949,-0.00873,-0.01571,0.60214,0.00000,0.00000,0.00000,31,3,68,25,30,2,73,14,ok,2,0,0.001,4,0.21,-0.80,8.12,28,0.114,8.38
4.0998,-0.00873,-0.01571,0.60214,0.00000,0.00000,0.00000,32,3,70,21,32,2,73,15,ok,2,0,0.001,4,0.21,-0.80,8.12,28,0.127,8.38
4.1121,-0.00873,-0.01571,0.60214,0.00000,0.00000,0.00000,34,2,71,17,33,2,72,17,ok,2,0,0.001,4,0.21,-0.80,8.12,28,0.139,8.38
4.1349,-0.00873,-0.01571,0.60214,0.00000,0.00000,0.00000,35,2,71,15,34,1,72,19,ok,2,0,0.001,4,0.21,-0.80,8.12,28,0.152,8.38
4.1379,-0.00873,-0.01571,0.60214,0.00000,0.00000,0.00000,37,1,71,14,37,1,73,20,ok,0,0,0.001,4,0.21,-0.80,8.12,28,0.165,8.38
4.1509,-0.00873,-0.01571,0.60214,0.00000,0.00000,0.00000,38,1,71,11,37,1,72,22,ok,0,0,0.001,4,0.21,-0.80,8.12,28,0.178,8.38
4.1709,-0.00873,-0.01571,0.60214,0.00000,0.00000,0.00000,40,1,71,8,39,1,72,23,ok,0,0,0.001,4,0.21,-0.80,8.12,28,0.190,8.38
4.1760,-0.00873,-0.01571,0.60214,0.00000,0.00000,0.00000,41,1,70,5,40,1,73,25,ok,0,0,0.001,4,0.21,-0.80,8.12,28,0.203,8.38
4.1884,-0.05760,-0.01222,0.57945,0.00000,0.00000,0.00000,42,0,70,3,41,1,72,26,ok,0,0,0.001,4,0.71,-0.80,9.11,29,0.000,8.38
4.2109,-0.05760,-0.01222,0.57945,0.00000,0.00000,0.00000,44,0,68,1,42,0,72,28,ok,0,0,0.001,4,0.71,-0.80,9.11,29,0.013,8.38
4.2140,-0.05760,-0.01222,0.57945,0.00000,0.00000,0.00000,45,0,67,-1,44,0,72,29,ok,0,0,0.001,4,0.71,-0.80,9.11,29,0.026,8.38
4.2269,-0.05760,-0.01222,0.57945,0.00000,0.00000,0.00000,45,0,65,-2,45,-1,73,29,ok,0,0,0.001,4,0.71,-0.80,9.11,29,0.039,8.38
4.2469,-0.05760,-0.01222,0.57945,0.00000,0.00000,0.00000,47,0,64,-4,46,0,74,28,ok,0,0,0.001,4,0.71,-0.80,9.11,29,0.051,8.38
4.2517,-0.05760,-0.01222,0.57945,0.00000,0.00000,0.00000,48,0,63,-6,47,0,76,26,ok,0,0,0.001,4,0.71,-0.80,9.11,29,0.064,8.38
4.2641,-0.05760,-0.01222,0.57945,0.00000,0.00000,0.00000,50,2,61,-7,48,0,78,21,ok,0,0,0.001,4,0.71,-0.80,9.11,29,0.076,8.38
4.2869,-0.05760,-0.01222,0.57945,0.00000,0.00000,0.00000,51,1,59,-8,49,0,79,17,ok,0,0,0.001,4,0.71,-0.80,9.11,29,0.089,8.38
4.2900,-0.05760,-0.01222,0.57945,0.00000,0.00000,0.00000,51,1,56,-8,50,0,80,14,ok,2,0,0.001,4,0.71,-0.80,9.11,29,0.102,8.38
4.3027,-0.05760,-0.01222,0.57945,0.00000,0.00000,0.00000,51,3,54,-9,51,0,81,13,ok,2,0,0.001,4,0.71,-0.80,9.11,29,0.115,8.38
4.3229,-0.05760,-0.01222,0.57945,0.00000,0.00000,0.00000,52,5,51,-9,53,0,80,10,ok,2,0,0.001,4,0.71,-0.80,9.11,29,0.127,8.38
4.3276,-0.05760,-0.01222,0.57945,0.00000,0.00000,0.00000,53,4,49,-9,54,0,80,7,ok,2,0,0.001,4,0.71,-0.80,9.11,29,0.139,8.38
4.3403,-0.05760,-0.01222,0.57945,0.00000,0.00000,0.00000,53,5,46,-9,55,1,80,4,ok,2,0,0.001,4,0.71,-0.80,9.11,29,0.152,8.38
4.3629,-0.05760,-0.01222,0.57945,0.00000,0.00000,0.00000,54,6,43,-9,56,1,79,2,ok,2,0,0.001,4,0.71,-0.80,9.11,29,0.165,8.38
4.3659,-0.05760,-0.01222,0.57945,0.00000,0.00000,0.00000,56,6,41,-9,57,1,78,-2,ok,2,0,0.001,4,0.71,-0.80,9.11,29,0.178,8.38
4.3789,-0.05760,-0.01222,0.57945,0.00000,0.00000,0.00000,56,6,39,-8,58,0,78,-3,ok,2,0,0.001,4,0.71,-0.80,9.11,29,0.191,8.38
4.3989,-0.13614,-0.00698,0.71209,0.00000,0.00000,0.00000,57,7,35,-7,58,1,77,-5,ok,2,0,0.001,4,-0.59,-1.65,9.58,30,0.000,8.38
4.4039,-0.13614,-0.00698,0.71209,0.00000,0.00000,0.00000,58,8,33,-6,59,1,75,-7,ok,2,0,0.001,4,-0.59,-1.65,9.58,30,0.013,8.38
4.4161,-0.13614,-0.00698,0.71209,0.00000,0.00000,0.00000,59,8,29,-5,60,1,72,-7,ok,2,0,0.001,4,-0.59,-1.65,9.58,30,0.025,8.38
4.4389,-0.13614,-0.00698,0.71209,0.00000,0.00000,0.00000,60,9,26,-3,61,1,71,-9,ok,2,0,0.001,4,-0.59,-1.65,9.58,30,0.038,8.38
4.4420,-0.13614,-0.00698,0.71209,0.00000,0.00000,0.00000,61,10,21,-1,62,0,69,-11,ok,2,0,0.001,4,-0.59,-1.65,9.58,30,0.051,8.38
4.4546,-0.13614,-0.00698,0.71209,0.00000,0.00000,0.00000,62,10,20,0,64,-2,67,-12,ok,2,0,0.001,4,-0.59,-1.65,9.58,30,0.064,8.38
4.4749,-0.13614,-0.00698,0.71209,0.00000,0.00000,0.00000,63,11,18,1,64,-1,65,-13,ok,2,0,0.001,4,-0.59,-1.65,9.58,30,0.076,8.38
4.4799,-0.13614,-0.00698,0.71209,0.00000,0.00000,0.00000,63,11,16,4,65,0,63,-13,ok,2,0,0.001,4,-0.59,-1.65,9.58,30,0.089,8.38
4.4921,-0.13614,-0.00698,0.71209,0.00000,0.00000,0.00000,64,12,14,7,66,0,60,-14,ok,2,0,0.001,4,-0.59,-1.65,9.58,30,0.101,8.38
4.5189,-0.13614,-0.00698,0.71209,0.00000,0.00000,0.00000,63,13,13,10,66,0,59,-14,ok,2,0,0.001,4,-0.59,-1.65,9.58,30,0.114,8.38
4.5219,-0.13614,-0.00698,0.71209,0.00000,0.00000,0.00000,64,14,11,13,67,0,55,-13,ok,2,0,0.001,4,-0.59,-1.65,9.58,30,0.131,8.38
4.5347,-0.13614,-0.00698,0.71209,0.00000,0.00000,0.00000,64,15,13,13,67,0,53,-12,ok,2,0,0.001,4,-0.59,-1.65,9.58,30,0.144,8.38
4.5549,-0.13614,-0.00698,0.71209,0.00000,0.00000,0.00000,65,16,12,13,68,1,50,-12,ok,2,0,0.001,4,-0.59,-1.65,9.58,30,0.156,8.38
4.5596,-0.13614,-0.00698,0.71209,0.00000,0.00000,0.00000,66,16,14,12,68,1,47,-11,ok,2,0,0.001,4,-0.59,-1.65,9.58,30,0.169,8.38
4.5723,-0.13614,-0.00698,0.71209,0.00000,0.00000,0.00000,66,17,15,11,69,2,45,-10,ok,2,0,0.001,5,-0.59,-1.65,9.58,30,0.181,8.38
4.5949,-0.13614,-0.00698,0.71209,0.00000,0.00000,0.00000,66,18,16,10,69,2,41,-9,ok,2,0,0.001,5,-0.59,-1.65,9.58,30,0.194,8.38
4.5982,-0.03665,-0.01222,0.71384,0.00000,0.00000,0.00000,67,18,17,9,70,3,39,-8,ok,2,0,0.001,5,-1.80,-0.69,10.09,31,0.000,8.38
4.6106,-0.03665,-0.01222,0.71384,0.00000,0.00000,0.00000,67,20,18,9,70,4,35,-7,ok,2,0,0.001,5,-1.80,-0.69,10.09,31,0.013,8.38
4.6311,-0.03665,-0.01222,0.71384,0.00000,0.00000,0.00000,67,20,20,8,71,5,34,-5,ok,2,0,0.001,5,-1.80,-0.69,10.09,31,0.025,8.38
4.6366,-0.03665,-0.01222,0.71384,0.00000,0.00000,0.00000,67,22,21,7,71,6,32,-4,ok,2,0,0.001,5,-1.80,-0.69,10.09,31,0.038,8.38
4.6483,-0.03665,-0.01222,0.71384,0.00000,0.00000,0.00000,67,23,22,7,71,7,30,-1,ok,2,0,0.001,5,-1.80,-0.69,10.09,31,0.050,8.38
4.6709,-0.03665,-0.01222,0.71384,0.00000,0.00000,0.00000,67,24,23,6,71,8,28,2,ok,2,0,0.001,5,-1.80,-0.69,10.09,31,0.063,8.38
4.6739,-0.03665,-0.01222,0.71384,0.00000,0.00000,0.00000,66,25,25,5,71,9,27,5,ok,2,0,0.001,5,-1.80,-0.69,10.09,31,0.076,8.38
4.6866,-0.03665,-0.01222,0.71384,0.00000,0.00000,0.00000,66,28,26,5,71,10,26,7,ok,2,0,0.001,5,-1.80,-0.69,10.09,31,0.089,8.38
4.7069,-0.03665,-0.01222,0.71384,0.00000,0.00000,0.00000,65,29,27,4,71,12,29,6,ok,2,0,0.001,5,-1.80,-0.69,10.09,31,0.101,8.38
4.7117,-0.03665,-0.01222,0.71384,0.00000,0.00000,0.00000,66,28,28,4,71,13,29,6,ok,2,0,0.001,5,-1.80,-0.69,10.09,31,0.114,8.38
4.7241,-0.03665,-0.01222,0.71384,0.00000,0.00000,0.00000,69,25,30,3,72,14,30,4,ok,2,0,0.001,5,-1.80,-0.69,10.09,31,0.126,8.38
4.7469,-0.03665,-0.01222,0.71384,0.00000,0.00000,0.00000,71,21,31,2,71,15,32,3,ok,2,0,0.001,5,-1.80,-0.69,10.09,31,0.139,8.38
4.7499,-0.03665,-0.01222,0.71384,0.00000,0.00000,0.00000,72,17,33,2,71,18,33,3,ok,2,0,0.001,5,-1.80,-0.69,10.09,31,0.152,8.38
4.7627,-0.03665,-0.01222,0.71384,0.00000,0.00000,0.00000,72,15,34,2,72,18,34,2,ok,2,0,0.001,5,-1.80,-0.69,10.09,31,0.165,8.38
4.7829,-0.03665,-0.01222,0.71384,0.00000,0.00000,0.00000,72,14,35,2,71,21,36,1,ok,2,0,0.001,5,-1.80,-0.69,10.09,31,0.177,8.38
4.7879,0.01571,0.02967,0.81158,0.00000,0.00000,0.00000,72,11,36,2,71,22,38,1,ok,2,0,0.001,5,-0.12,0.82,10.17,32,0.000,8.38
4.8003,0.01571,0.02967,0.81158,0.00000,0.00000,0.00000,71,8,38,2,71,24,39,2,ok,2,0,0.001,5,-0.12,0.82,10.17,32,0.013,8.38
4.8229,0.01571,0.02967,0.81158,0.00000,0.00000,0.00000,70,5,39,2,71,25,40,1,ok,2,0,0.001,5,-0.12,0.82,10.17,32,0.025,8.38
4.8259,0.01571,0.02967,0.81158,0.00000,0.00000,0.00000,70,1,40,2,70,27,42,1,ok,2,0,0.001,5,-0.12,0.82,10.17,32,0.038,8.38
4.8386,0.01571,0.02967,0.81158,0.00000,0.00000,0.00000,68,0,42,1,70,29,43,1,ok,2,0,0.001,5,-0.12,0.82,10.17,32,0.051,8.38
4.8589,0.01571,0.02967,0.81158,0.00000,0.00000,0.00000,67,-3,43,2,71,29,44,1,ok,2,0,0.001,5,-0.12,0.82,10.17,32,0.063,8.38
4.8636,0.01571,0.02967,0.81158,0.00000,0.00000,0.00000,65,-4,43,2,72,29,45,1,ok,2,0,0.001,5,-0.12,0.82,10.17,32,0.076,8.38
4.8761,0.01571,0.02967,0.81158,0.00000,0.00000,0.00000,64,-6,45,2,74,26,46,0,ok,2,0,0.001,5,-0.12,0.82,10.17,32,0.089,8.38
4.8989,0.01571,0.02967,0.81158,0.00000,0.00000,0.00000,63,-8,46,2,76,22,47,0,ok,2,0,0.001,5,-0.12,0.82,10.17,32,0.101,8.38
4.9020,0.01571,0.02967,0.81158,0.00000,0.00000,0.00000,61,-9,48,3,77,17,49,0,ok,2,0,0.001,5,-0.12,0.82,10.17,32,0.114,8.38
4.9146,0.01571,0.02967,0.81158,0.00000,0.00000,0.00000,59,-10,49,3,78,14,49,0,ok,2,0,0.001,5,-0.12,0.82,10.17,32,0.127,8.38
4.9349,0.01571,0.02967,0.81158,0.00000,0.00000,0.00000,56,-11,50,3,78,14,50,1,ok,2,0,0.001,5,-0.12,0.82,10.17,32,0.140,8.38
4.9397,0.01571,0.02967,0.81158,0.00000,0.00000,0.00000,54,-12,50,5,78,11,51,1,ok,2,0,0.001,5,-0.12,0.82,10.17,32,0.152,8.38
4.9521,0.01571,0.02967,0.81158,0.00000,0.00000,0.00000,51,-11,51,6,79,8,52,1,ok,2,0,0.001,5,-0.12,0.82,10.17,32,0.165,8.38
4.9749,0.01571,0.02967,0.81158,0.00000,0.00000,0.00000,49,-11,52,5,78,5,53,1,ok,2,0,0.001,5,-0.12,0.82,10.17,32,0.177,8.38
4.9781,0.01571,0.02967,0.81158,0.00000,0.00000,0.00000,47,-11,53,6,77,3,54,0,ok,2,0,0.001,5,-0.12,0.82,10.17,32,0.190,8.38
4.9910,0.09076,-0.01920,0.81158,0.00000,0.00000,0.00000,44,-11,53,7,77,-1,54,1,ok,2,0,0.001,5,-0.11,1.19,10.22,33,0.000,8.38
5.0109,0.09076,-0.01920,0.81158,0.00000,0.00000,0.00000,42,-11,55,7,76,-3,55,0,ok,2,0,0.001,5,-0.11,1.19,10.22,33,0.012,8.38
5.0227,0.09076,-0.01920,0.81158,0.00000,0.00000,0.00000,39,-10,56,7,75,-4,56,0,ok,2,0,0.001,5,-0.11,1.19,10.22,33,0.025,8.38
5.0281,0.09076,-0.01920,0.81158,0.00000,0.00000,0.00000,36,-9,57,8,73,-7,57,-1,ok,2,0,0.001,5,-0.11,1.19,10.22,33,0.038,8.38
5.0509,0.09076,-0.01920,0.81158,0.00000,0.00000,0.00000,33,-8,57,8,70,-7,57,0,ok,2,0,0.001,5,-0.11,1.19,10.22,33,0.050,8.38
5.0542,0.09076,-0.01920,0.81158,0.00000,0.00000,0.00000,30,-6,58,8,69,-9,58,0,ok,2,0,0.001,5,-0.11,1.19,10.22,33,0.063,8.38
5.0667,0.09076,-0.01920,0.81158,0.00000,0.00000,0.00000,27,-4,59,9,68,-11,59,0,ok,2,0,0.001,5,-0.11,1.19,10.22,33,0.076,8.38
5.0869,0.09076,-0.01920,0.81158,0.00000,0.00000,0.00000,23,-2,60,11,66,-12,60,0,ok,2,0,0.001,5,-0.11,1.19,10.22,33,0.089,8.38
5.0917,0.09076,-0.01920,0.81158,0.00000,0.00000,0.00000,21,-1,61,11,64,-13,61,0,ok,2,0,0.001,5,-0.11,1.19,10.22,33,0.101,8.38
5.1041,0.09076,-0.01920,0.81158,0.00000,0.00000,0.00000,20,1,62,11,62,-13,63,-2,ok,2,0,0.001,5,-0.11,1.19,10.22,33,0.114,8.38
5.1269,0.09076,-0.01920,0.81158,0.00000,0.00000,0.00000,18,3,62,12,59,-14,64,-1,ok,2,0,0.001,5,-0.11,1.19,10.22,33,0.126,8.38
5.1300,0.09076,-0.01920,0.81158,0.00000,0.00000,0.00000,15,7,62,13,57,-14,65,-1,ok,2,0,0.001,5,-0.11,1.19,10.22,33,0.139,8.38
5.1429,0.09076,-0.01920,0.81158,0.00000,0.00000,0.00000,14,10,62,14,54,-14,65,-1,ok,2,0,0.001,5,-0.11,1.19,10.22,33,0.152,8.38
5.1629,0.09076,-0.01920,0.81158,0.00000,0.00000,0.00000,12,13,63,15,52,-13,66,-1,ok,2,0,0.001,5,-0.11,1.19,10.22,33,0.164,8.38
5.1677,0.09076,-0.01920,0.81158,0.00000,0.00000,0.00000,14,13,63,16,49,-13,67,0,ok,2,0,0.001,5,-0.11,1.19,10.22,33,0.177,8.38
5.1801,0.09076,-0.01920,0.81158,0.00000,0.00000,0.00000,14,13,63,17,46,-12,67,0,ok,2,0,0.001,5,-0.11,1.19,10.22,33,0.190,8.38
5.2029,0.06283,0.02094,0.83776,0.00000,0.00000,0.00000,15,12,64,17,44,-11,68,1,ok,2,0,0.001,5,0.94,0.87,10.58,34,0.000,8.38
5.2060,0.06283,0.02094,0.83776,0.00000,0.00000,0.00000,17,12,64,18,41,-10,69,1,ok,2,0,0.001,5,0.94,0.87,10.58,34,0.013,8.38
5.2191,0.06283,0.02094,0.83776,0.00000,0.00000,0.00000,17,11,65,19,38,-9,70,2,ok,2,0,0.001,5,0.94,0.87,10.58,34,0.026,8.38
5.2389,0.06283,0.02094,0.83776,0.00000,0.00000,0.00000,19,10,65,20,35,-8,70,2,ok,2,0,0.001,5,0.94,0.87,10.58,34,0.039,8.38
5.2439,0.06283,0.02094,0.83776,0.00000,0.00000,0.00000,19,10,65,21,33,-6,71,3,ok,2,0,0.001,5,0.94,0.87,10.58,34,0.051,8.38
5.2563,0.06283,0.02094,0.83776,0.00000,0.00000,0.00000,22,8,65,21,31,-5,71,5,ok,2,0,0.001,5,0.94,0.87,10.58,34,0.064,8.38
5.2789,0.06283,0.02094,0.83776,0.00000,0.00000,0.00000,23,8,65,23,29,-2,72,5,ok,2,0,0.001,5,0.94,0.87,10.58,34,0.076,8.38
5.2820,0.06283,0.02094,0.83776,0.00000,0.00000,0.00000,24,7,65,23,27,1,72,7,ok,2,0,0.001,5,0.94,0.87,10.58,34,0.089,8.38
5.2947,0.06283,0.02094,0.83776,0.00000,0.00000,0.00000,25,6,65,24,26,4,72,8,ok,2,0,0.001,5,0.94,0.87,10.58,34,0.102,8.38
5.3149,0.06283,0.02094,0.83776,0.00000,0.00000,0.00000,27,6,65,25,26,7,73,9,ok,0,0,0.001,5,0.94,0.87,10.58,34,0.115,8.38
5.3198,0.06283,0.02094,0.83776,0.00000,0.00000,0.00000,28,5,64,28,28,6,73,10,ok,0,0,0.001,5,0.94,0.87,10.58,34,0.127,8.38
5.3321,0.06283,0.02094,0.83776,0.00000,0.00000,0.00000,29,4,63,29,28,6,73,11,ok,0,0,0.002,5,0.94,0.87,10.58,34,0.140,8.38
5.3549,0.06283,0.02094,0.83776,0.00000,0.00000,0.00000,30,4,65,28,29,4,73,13,ok,2,0,0.002,5,0.94,0.87,10.58,34,0.152,8.38
5.3579,0.06283,0.02094,0.83776,0.00000,0.00000,0.00000,32,3,67,25,30,3,73,15,ok,2,0,0.002,5,0.94,0.87,10.58,34,0.165,8.38
5.3705,0.06283,0.02094,0.83776,0.00000,0.00000,0.00000,33,3,70,21,31,3,74,16,ok,2,0,0.002,5,0.94,0.87,10.58,34,0.178,8.38
5.3909,0.06283,0.02094,0.83776,0.00000,0.00000,0.00000,34,2,71,17,33,2,73,18,ok,2,0,0.002,5,0.94,0.87,10.58,34,0.190,8.38
5.3959,0.05585,0.05760,0.80111,0.00000,0.00000,0.00000,35,2,71,15,34,1,73,20,ok,2,0,0.002,5,-0.08,1.02,9.23,35,0.000,8.38
5.4081,0.05585,0.05760,0.80111,0.00000,0.00000,0.00000,37,1,71,14,36,2,74,20,ok,2,0,0.002,5,-0.08,1.02,9.23,35,0.012,8.38
5.4309,0.05585,0.05760,0.80111,0.00000,0.00000,0.00000,38,1,71,11,37,2,73,22,ok,2,0,0.002,5,-0.08,1.02,9.23,35,0.025,8.38
5.4342,0.05585,0.05760,0.80111,0.00000,0.00000,0.00000,40,1,71,8,39,2,72,24,ok,2,0,0.002,5,-0.08,1.02,9.23,35,0.038,8.38
5.4467,0.05585,0.05760,0.80111,0.00000,0.00000,0.00000,41,1,70,5,40,1,73,25,ok,2,0,0.002,5,-0.08,1.02,9.23,35,0.051,8.38
5.4669,0.05585,0.05760,0.80111,0.00000,0.00000,0.00000,43,0,69,3,41,2,73,26,ok,0,0,0.002,5,-0.08,1.02,9.23,35,0.064,8.38
5.4716,0.05585,0.05760,0.80111,0.00000,0.00000,0.00000,44,0,68,1,42,1,72,28,ok,0,0,0.002,5,-0.08,1.02,9.23,35,0.076,8.38
5.4843,0.05585,0.05760,0.80111,0.00000,0.00000,0.00000,46,0,67,-1,43,1,72,29,ok,0,0,0.002,5,-0.08,1.02,9.23,35,0.089,8.38
5.5069,0.05585,0.05760,0.80111,0.00000,0.00000,0.00000,46,0,65,-2,45,0,73,29,ok,2,0,0.002,5,-0.08,1.02,9.23,35,0.101,8.38
5.5099,0.05585,0.05760,0.80111,0.00000,0.00000,0.00000,48,1,64,-4,46,1,74,28,ok,0,0,0.002,5,-0.08,1.02,9.23,35,0.114,8.38
5.5226,0.05585,0.05760,0.80111,0.00000,0.00000,0.00000,49,1,63,-6,47,1,76,26,ok,0,0,0.002,5,-0.08,1.02,9.23,35,0.127,8.38
5.5429,0.05585,0.05760,0.80111,0.00000,0.00000,0.00000,50,2,61,-7,48,1,78,21,ok,2,0,0.002,5,-0.08,1.02,9.23,35,0.139,8.38
5.5476,0.05585,0.05760,0.80111,0.00000,0.00000,0.00000,51,1,58,-8,49,1,79,17,ok,2,0,0.002,5,-0.08,1.02,9.23,35,0.152,8.38
5.5601,0.05585,0.05760,0.80111,0.00000,0.00000,0.00000,52,1,56,-8,50,1,81,14,ok,2,0,0.002,5,-0.08,1.02,9.23,35,0.164,8.38
5.5829,0.05585,0.05760,0.80111,0.00000,0.00000,0.00000,52,4,54,-9,51,1,81,14,ok,2,0,0.002,5,-0.08,1.02,9.23,35,0.177,8.38
5.5862,-0.10821,-0.00000,0.86045,0.00000,0.00000,0.00000,53,5,51,-9,53,1,81,11,ok,2,0,0.002,6,-0.44,-0.52,8.92,36,0.000,8.38
5.5988,-0.10821,-0.00000,0.86045,0.00000,0.00000,0.00000,54,4,48,-9,54,0,81,7,ok,2,0,0.002,6,-0.44,-0.52,8.92,36,0.013,8.38
5.6189,-0.10821,-0.00000,0.86045,0.00000,0.00000,0.00000,54,5,46,-8,54,1,80,4,ok,2,0,0.002,6,-0.44,-0.52,8.92,36,0.025,8.38
5.6236,-0.10821,-0.00000,0.86045,0.00000,0.00000,0.00000,55,5,43,-9,55,1,80,3,ok,2,0,0.002,6,-0.44,-0.52,8.92,36,0.038,8.38
5.6362,-0.10821,-0.00000,0.86045,0.00000,0.00000,0.00000,57,6,41,-9,56,1,79,-1,ok,2,0,0.002,6,-0.44,-0.52,8.92,36,0.050,8.38
5.6589,-0.10821,-0.00000,0.86045,0.00000,0.00000,0.00000,57,6,39,-8,57,0,79,-3,ok,2,0,0.002,6,-0.44,-0.52,8.92,36,0.063,8.38
5.6620,-0.10821,-0.00000,0.86045,0.00000,0.00000,0.00000,58,7,35,-7,58,1,77,-4,ok,2,0,0.002,6,-0.44,-0.52,8.92,36,0.076,8.38
5.6747,-0.10821,-0.00000,0.86045,0.00000,0.00000,0.00000,58,7,33,-6,59,1,75,-6,ok,2,0,0.002,6,-0.44,-0.52,8.92,36,0.089,8.38
5.6949,-0.10821,-0.00000,0.86045,0.00000,0.00000,0.00000,59,8,29,-5,60,2,72,-7,ok,2,0,0.002,6,-0.44,-0.52,8.92,36,0.101,8.38
5.6996,-0.10821,-0.00000,0.86045,0.00000,0.00000,0.00000,60,8,26,-3,61,2,71,-9,ok,2,0,0.002,6,-0.44,-0.52,8.92,36,0.114,8.38
5.7121,-0.10821,-0.00000,0.86045,0.00000,0.00000,0.00000,62,10,22,-1,62,1,70,-11,ok,2,0,0.002,6,-0.44,-0.52,8.92,36,0.126,8.38
5.7349,-0.10821,-0.00000,0.86045,0.00000,0.00000,0.00000,62,10,20,0,64,-1,67,-12,ok,2,0,0.002,6,-0.44,-0.52,8.92,36,0.139,8.38
5.7380,-0.10821,-0.00000,0.86045,0.00000,0.00000,0.00000,63,11,18,1,64,-1,65,-13,ok,2,0,0.002,6,-0.44,-0.52,8.92,36,0.152,8.38
5.7507,-0.10821,-0.00000,0.86045,0.00000,0.00000,0.00000,63,12,16,4,65,0,63,-13,ok,2,0,0.002,6,-0.44,-0.52,8.92,36,0.165,8.38
5.7709,-0.10821,-0.00000,0.86045,0.00000,0.00000,0.00000,64,12,14,7,66,0,61,-14,ok,2,0,0.002,6,-0.44,-0.52,8.92,36,0.177,8.38
5.7757,-0.10821,-0.00000,0.86045,0.00000,0.00000,0.00000,64,13,12,10,66,0,59,-14,ok,2,0,0.002,6,-0.44,-0.52,8.92,36,0.190,8.38
5.7884,-0.01571,-0.01396,0.87092,0.00000,0.00000,0.00000,64,14,11,12,67,0,55,-12,ok,2,0,0.002,6,-0.38,-0.55,9.39,37,0.000,8.38
5.8109,-0.01571,-0.01396,0.87092,0.00000,0.00000,0.00000,65,15,12,13,67,1,53,-12,ok,2,0,0.002,6,-0.38,-0.55,9.39,37,0.013,8.38
5.8141,-0.01571,-0.01396,0.87092,0.00000,0.00000,0.00000,65,16,12,13,68,1,51,-12,ok,2,0,0.002,6,-0.38,-0.55,9.39,37,0.026,8.38
5.8266,-0.01571,-0.01396,0.87092,0.00000,0.00000,0.00000,66,17,14,12,68,1,47,-11,ok,2,0,0.002,6,-0.38,-0.55,9.39,37,0.038,8.38
5.8469,-0.01571,-0.01396,0.87092,0.00000,0.00000,0.00000,66,18,15,11,69,2,45,-11,ok,2,0,0.002,6,-0.38,-0.55,9.39,37,0.051,8.38
5.8516,-0.01571,-0.01396,0.87092,0.00000,0.00000,0.00000,66,18,16,10,69,3,42,-9,ok,2,0,0.002,6,-0.38,-0.55,9.39,37,0.063,8.38
5.8641,-0.01571,-0.01396,0.87092,0.00000,0.00000,0.00000,67,19,17,9,70,4,39,-9,ok,2,0,0.002,6,-0.38,-0.55,9.39,37,0.076,8.38
5.8869,-0.01571,-0.01396,0.87092,0.00000,0.00000,0.00000,67,20,18,9,70,5,35,-7,ok,2,0,0.002,6,-0.38,-0.55,9.39,37,0.088,8.38
5.8899,-0.01571,-0.01396,0.87092,0.00000,0.00000,0.00000,68,21,20,8,71,5,34,-5,ok,2,0,0.002,6,-0.38,-0.55,9.39,37,0.102,8.38
5.9026,-0.01571,-0.01396,0.87092,0.00000,0.00000,0.00000,68,22,21,7,71,6,32,-4,ok,2,0,0.002,6,-0.38,-0.55,9.39,37,0.114,8.38
5.9229,-0.01571,-0.01396,0.87092,0.00000,0.00000,0.00000,68,23,22,7,70,7,30,-1,ok,2,0,0.002,6,-0.38,-0.55,9.39,37,0.127,8.38
5.9278,-0.01571,-0.01396,0.87092,0.00000,0.00000,0.00000,68,24,23,6,71,8,29,2,ok,2,0,0.002,6,-0.38,-0.55,9.39,37,0.139,8.38
5.9401,-0.01571,-0.01396,0.87092,0.00000,0.00000,0.00000,67,25,25,5,71,9,28,5,ok,2,0,0.002,6,-0.38,-0.55,9.39,37,0.152,8.38
5.9629,-0.01571,-0.01396,0.87092,0.00000,0.00000,0.00000,66,28,26,5,71,10,27,7,ok,2,0,0.002,6,-0.38,-0.55,9.39,37,0.164,8.38
5.9659,-0.01571,-0.01396,0.87092,0.00000,0.00000,0.00000,65,29,27,4,71,12,29,6,ok,2,0,0.002,6,-0.38,-0.55,9.39,37,0.178,8.38
5.9788,-0.01571,-0.01396,0.87092,0.00000,0.00000,0.00000,67,28,28,4,71,13,29,6,ok,2,0,0.002,6,-0.38,-0.55,9.39,37,0.190,8.38
5.9989,-0.01571,-0.01396,0.87092,0.00000,0.00000,0.00000,69,25,30,3,71,14,31,4,ok,2,0,0.002,6,-0.38,-0.55,9.39,37,0.203,8.38
6.0039,0.02269,-0.01047,0.96691,0.00000,0.00000,0.00000,71,21,31,3,71,16,32,3,ok,2,0,0.002,6,1.40,0.47,10.81,38,0.000,8.38
6.0161,0.02269,-0.01047,0.96691,0.00000,0.00000,0.00000,72,17,32,2,71,18,33,3,ok,2,0,0.002,6,1.40,0.47,10.81,38,0.013,8.38
6.0389,0.02269,-0.01047,0.96691,0.00000,0.00000,0.00000,73,15,34,2,72,19,35,2,ok,2,0,0.002,6,1.40,0.47,10.81,38,0.025,8.38
6.0419,0.02269,-0.01047,0.96691,0.00000,0.00000,0.00000,72,14,35,2,71,21,36,1,ok,2,0,0.002,6,1.40,0.47,10.81,38,0.038,8.38
6.0546,0.02269,-0.01047,0.96691,0.00000,0.00000,0.00000,72,11,36,2,71,22,38,1,ok,2,0,0.002,6,1.40,0.47,10.81,38,0.051,8.38
6.0749,0.02269,-0.01047,0.96691,0.00000,0.00000,0.00000,71,8,38,2,71,24,39,2,ok,2,0,0.002,6,1.40,0.47,10.81,38,0.064,8.38
6.0797,0.02269,-0.01047,0.96691,0.00000,0.00000,0.00000,71,5,39,2,71,25,41,1,ok,2,0,0.002,6,1.40,0.47,10.81,38,0.076,8.38
6.0921,0.02269,-0.01047,0.96691,0.00000,0.00000,0.00000,70,1,40,2,70,27,42,2,ok,2,0,0.002,6,1.40,0.47,10.81,38,0.089,8.38
6.1149,0.02269,-0.01047,0.96691,0.00000,0.00000,0.00000,69,-1,42,2,70,29,43,2,ok,2,0,0.002,6,1.40,0.47,10.81,38,0.101,8.38
6.1179,0.02269,-0.01047,0.96691,0.00000,0.00000,0.00000,68,-3,43,2,70,29,44,1,ok,2,0,0.002,6,1.40,0.47,10.81,38,0.114,8.38
6.1309,0.02269,-0.01047,0.96691,0.00000,0.00000,0.00000,65,-4,43,2,72,28,45,1,ok,2,0,0.002,6,1.40,0.47,10.81,38,0.127,8.38
6.1509,0.02269,-0.01047,0.96691,0.00000,0.00000,0.00000,64,-6,45,2,73,26,46,0,ok,2,0,0.002,6,1.40,0.47,10.81,38,0.140,8.38
6.1557,0.02269,-0.01047,0.96691,0.00000,0.00000,0.00000,63,-8,46,2,75,21,48,0,ok,2,0,0.002,6,1.40,0.47,10.81,38,0.152,8.38
6.1681,0.02269,-0.01047,0.96691,0.00000,0.00000,0.00000,61,-9,48,4,77,17,49,0,ok,2,0,0.002,6,1.40,0.47,10.81,38,0.165,8.38
6.1909,0.02269,-0.01047,0.96691,0.00000,0.00000,0.00000,59,-10,49,3,78,14,49,0,ok,2,0,0.002,6,1.40,0.47,10.81,38,0.177,8.38
6.1940,0.02269,-0.01047,0.96691,0.00000,0.00000,0.00000,57,-11,50,3,78,13,50,0,ok,2,0,0.002,6,1.40,0.47,10.81,38,0.190,8.38
6.2070,0.04887,0.03840,0.97215,0.00000,0.00000,0.00000,54,-12,50,5,78,11,51,0,ok,2,0,0.002,6,-0.64,0.54,10.39,39,0.000,8.38
6.2269,0.04887,0.03840,0.97215,0.00000,0.00000,0.00000,52,-11,51,6,78,8,52,0,ok,2,0,0.002,6,-0.64,0.54,10.39,39,0.012,8.38
6.2317,0.04887,0.03840,0.97215,0.00000,0.00000,0.00000,49,-11,52,5,78,5,53,0,ok,2,0,0.002,6,-0.64,0.54,10.39,39,0.025,8.38
6.2443,0.04887,0.03840,0.97215,0.00000,0.00000,0.00000,47,-11,53,6,77,3,54,0,ok,2,0,0.002,6,-0.64,0.54,10.39,39,0.038,8.38
6.2669,0.04887,0.03840,0.97215,0.00000,0.00000,0.00000,44,-11,53,7,76,-1,55,1,ok,2,0,0.002,6,-0.64,0.54,10.39,39,0.050,8.38
6.2700,0.04887,0.03840,0.97215,0.00000,0.00000,0.00000,42,-11,55,7,76,-3,55,0,ok,2,0,0.002,6,-0.64,0.54,10.39,39,0.063,8.38
6.2827,0.04887,0.03840,0.97215,0.00000,0.00000,0.00000,40,-10,55,7,75,-4,56,1,ok,2,0,0.002,6,-0.64,0.54,10.39,39,0.076,8.38
6.3029,0.04887,0.03840,0.97215,0.00000,0.00000,0.00000,36,-9,57,8,73,-7,57,-1,ok,2,0,0.002,6,-0.64,0.54,10.39,39,0.088,8.38
6.3076,0.04887,0.03840,0.97215,0.00000,0.00000,0.00000,34,-8,57,8,70,-7,57,0,ok,2,0,0.002,6,-0.64,0.54,10.39,39,0.101,8.38
6.3201,0.04887,0.03840,0.97215,0.00000,0.00000,0.00000,30,-6,58,9,69,-9,58,0,ok,2,0,0.002,6,-0.64,0.54,10.39,39,0.113,8.38
6.3429,0.04887,0.03840,0.97215,0.00000,0.00000,0.00000,28,-4,58,9,68,-10,59,1,ok,2,0,0.002,6,-0.64,0.54,10.39,39,0.126,8.38
6.3459,0.04887,0.03840,0.97215,0.00000,0.00000,0.00000,23,-2,60,11,66,-12,60,0,ok,2,0,0.002,6,-0.64,0.54,10.39,39,0.139,8.38
6.3587,0.04887,0.03840,0.97215,0.00000,0.00000,0.00000,22,-1,61,11,64,-12,61,0,ok,2,0,0.002,6,-0.64,0.54,10.39,39,0.152,8.38
6.3789,0.04887,0.03840,0.97215,0.00000,0.00000,0.00000,20,0,61,11,62,-13,64,-2,ok,2,0,0.002,6,-0.64,0.54,10.39,39,0.164,8.38
6.3836,0.04887,0.03840,0.97215,0.00000,0.00000,0.00000,18,3,62,12,59,-14,64,-1,ok,2,0,0.002,6,-0.64,0.54,10.39,39,0.177,8.38
6.3960,0.04887,0.03840,0.97215,0.00000,0.00000,0.00000,15,6,62,13,57,-14,65,-1,ok,2,0,0.002,6,-0.64,0.54,10.39,39,0.189,8.38
6.4189,0.01571,0.03142,1.00182,0.00000,0.00000,0.00000,14,10,62,14,54,-13,65,0,ok,2,0,0.002,6,-0.70,0.53,9.84,40,0.000,8.38
6.4222,0.01571,0.03142,1.00182,0.00000,0.00000,0.00000,12,12,63,15,52,-12,66,-1,ok,2,0,0.002,6,-0.70,0.53,9.84,40,0.013,8.38
6.4347,0.01571,0.03142,1.00182,0.00000,0.00000,0.00000,14,13,63,16,49,-12,67,0,ok,2,0,0.002,6,-0.70,0.53,9.84,40,0.026,8.38
6.4549,0.01571,0.03142,1.00182,0.00000,0.00000,0.00000,14,13,63,17,46,-11,67,0,ok,2,0,0.002,6,-0.70,0.53,9.84,40,0.039,8.38
6.4598,0.01571,0.03142,1.00182,0.00000,0.00000,0.00000,15,12,64,17,44,-11,68,1,ok,2,0,0.002,6,-0.70,0.53,9.84,40,0.051,8.38
6.4721,0.01571,0.03142,1.00182,0.00000,0.00000,0.00000,17,11,64,18,41,-10,69,1,ok,2,0,0.002,6,-0.70,0.53,9.84,40,0.063,8.38
6.4949,0.01571,0.03142,1.00182,0.00000,0.00000,0.00000,17,11,65,19,38,-9,70,2,ok,2,0,0.002,6,-0.70,0.53,9.84,40,0.076,8.38
6.4980,0.01571,0.03142,1.00182,0.00000,0.00000,0.00000,19,10,65,20,35,-7,70,2,ok,0,0,0.002,6,-0.70,0.53,9.84,40,0.089,8.38
6.5107,0.01571,0.03142,1.00182,0.00000,0.00000,0.00000,20,10,65,21,33,-6,71,3,ok,0,0,0.002,6,-0.70,0.53,9.84,40,0.102,8.38
6.5309,0.01571,0.03142,1.00182,0.00000,0.00000,0.00000,22,8,65,21,31,-5,71,5,ok,0,0,0.002,6,-0.70,0.53,9.84,40,0.115,8.38
6.5357,0.01571,0.03142,1.00182,0.00000,0.00000,0.00000,23,7,65,23,29,-1,72,5,ok,0,0,0.002,6,-0.70,0.53,9.84,40,0.127,8.38
6.5481,0.01571,0.03142,1.00182,0.00000,0.00000,0.00000,24,7,65,23,28,1,72,7,ok,0,0,0.002,6,-0.70,0.53,9.84,40,0.140,8.38
6.5709,0.01571,0.03142,1.00182,0.00000,0.00000,0.00000,26,6,65,24,26,4,72,8,ok,0,0,0.002,6,-0.70,0.53,9.84,40,0.152,8.38
6.5741,0.01571,0.03142,1.00182,0.00000,0.00000,0.00000,27,6,65,25,26,7,72,9,ok,0,0,0.002,6,-0.70,0.53,9.84,40,0.165,8.38
6.5867,0.01571,0.03142,1.00182,0.00000,0.00000,0.00000,28,5,64,28,28,6,73,10,ok,0,0,0.002,6,-0.70,0.53,9.84,40,0.178,8.38
6.6069,0.01571,0.03142,1.00182,0.00000,0.00000,0.00000,29,4,63,29,28,6,73,12,ok,0,0,0.002,7,-0.70,0.53,9.84,40,0.191,8.38
6.6120,0.05061,0.03665,0.97738,0.00000,0.00000,0.00000,30,4,65,28,29,4,73,13,ok,0,0,0.002,7,0.38,0.98,9.66,41,0.000,8.38
6.6241,0.05061,0.03665,0.97738,0.00000,0.00000,0.00000,32,3,67,25,30,3,73,15,ok,0,0,0.002,7,0.38,0.98,9.66,41,0.013,8.38
6.6469,0.05061,0.03665,0.97738,0.00000,0.00000,0.00000,33,3,70,21,31,3,73,16,ok,2,0,0.002,7,0.38,0.98,9.66,41,0.025,8.38
6.6501,0.05061,0.03665,0.97738,0.00000,0.00000,0.00000,34,2,71,17,33,3,73,18,ok,2,0,0.002,7,0.38,0.98,9.66,41,0.038,8.38
6.6628,0.05061,0.03665,0.97738,0.00000,0.00000,0.00000,36,2,71,15,34,1,73,20,ok,0,0,0.002,7,0.38,0.98,9.66,41,0.051,8.38
6.6829,0.05061,0.03665,0.97738,0.00000,0.00000,0.00000,37,1,71,14,36,2,74,20,ok,0,0,0.002,7,0.38,0.98,9.66,41,0.064,8.38
6.6876,0.05061,0.03665,0.97738,0.00000,0.00000,0.00000,39,1,71,11,37,2,73,23,ok,0,0,0.002,7,0.38,0.98,9.66,41,0.076,8.38
6.7001,0.05061,0.03665,0.97738,0.00000,0.00000,0.00000,40,1,71,8,38,2,72,24,ok,0,0,0.002,7,0.38,0.98,9.66,41,0.089,8.38
6.7229,0.05061,0.03665,0.97738,0.00000,0.00000,0.00000,42,1,70,5,40,1,73,25,ok,0,0,0.002,7,0.38,0.98,9.66,41,0.101,8.38
6.7261,0.05061,0.03665,0.97738,0.00000,0.00000,0.00000,43,0,69,3,41,2,73,26,ok,0,0,0.002,7,0.38,0.98,9.66,41,0.114,8.38
6.7385,0.05061,0.03665,0.97738,0.00000,0.00000,0.00000,44,0,68,1,42,1,73,28,ok,0,0,0.002,7,0.38,0.98,9.66,41,0.127,8.38
6.7589,0.05061,0.03665,0.97738,0.00000,0.00000,0.00000,46,0,67,-1,43,1,72,29,ok,0,0,0.002,7,0.38,0.98,9.66,41,0.140,8.38
6.7637,0.05061,0.03665,0.97738,0.00000,0.00000,0.00000,46,0,65,-2,44,0,73,29,ok,0,0,0.002,7,0.38,0.98,9.66,41,0.152,8.38
6.7761,0.05061,0.03665,0.97738,0.00000,0.00000,0.00000,48,0,64,-4,46,0,74,29,ok,0,0,0.002,7,0.38,0.98,9.66,41,0.164,8.38
6.7989,0.05061,0.03665,0.97738,0.00000,0.00000,0.00000,49,0,63,-6,47,0,76,26,ok,0,0,0.002,7,0.38,0.98,9.66,41,0.177,8.38
6.8020,0.05061,0.03665,0.97738,0.00000,0.00000,0.00000,50,2,61,-7,48,1,78,21,ok,0,0,0.002,7,0.38,0.98,9.66,41,0.190,8.38
6.8149,-0.08901,-0.03840,1.02451,0.00000,0.00000,0.00000,51,1,58,-8,49,1,79,17,ok,0,0,0.002,7,-0.91,-0.79,10.48,42,0.000,8.38
6.8349,-0.08901,-0.03840,1.02451,0.00000,0.00000,0.00000,52,1,56,-8,50,0,81,14,ok,2,0,0.002,7,-0.91,-0.79,10.48,42,0.013,8.38
6.8399,-0.08901,-0.03840,1.02451,0.00000,0.00000,0.00000,52,3,54,-9,51,0,81,14,ok,2,0,0.002,7,-0.91,-0.79,10.48,42,0.025,8.38
6.8521,-0.08901,-0.03840,1.02451,0.00000,0.00000,0.00000,53,4,51,-9,52,0,81,11,ok,2,0,0.002,7,-0.91,-0.79,10.48,42,0.038,8.38
6.8749,-0.08901,-0.03840,1.02451,0.00000,0.00000,0.00000,54,4,48,-9,53,0,81,8,ok,2,0,0.002,7,-0.91,-0.79,10.48,42,0.050,8.38
6.8780,-0.08901,-0.03840,1.02451,0.00000,0.00000,0.00000,54,5,46,-8,54,1,81,4,ok,2,0,0.002,7,-0.91,-0.79,10.48,42,0.063,8.38
6.8906,-0.08901,-0.03840,1.02451,0.00000,0.00000,0.00000,55,6,43,-9,55,1,80,3,ok,2,0,0.002,7,-0.91,-0.79,10.48,42,0.076,8.38
6.9109,-0.08901,-0.03840,1.02451,0.00000,0.00000,0.00000,57,6,41,-9,56,1,79,-1,ok,2,0,0.002,7,-0.91,-0.79,10.48,42,0.088,8.38
6.9156,-0.08901,-0.03840,1.02451,0.00000,0.00000,0.00000,57,6,39,-8,57,0,79,-3,ok,2,0,0.002,7,-0.91,-0.79,10.48,42,0.101,8.38
6.9280,-0.08901,-0.03840,1.02451,0.00000,0.00000,0.00000,58,7,35,-7,58,1,77,-5,ok,2,0,0.002,7,-0.91,-0.79,10.48,42,0.113,8.38
6.9509,-0.08901,-0.03840,1.02451,0.00000,0.00000,0.00000,58,8,33,-6,59,2,75,-7,ok,2,0,0.002,7,-0.91,-0.79,10.48,42,0.126,8.38
6.9540,-0.08901,-0.03840,1.02451,0.00000,0.00000,0.00000,59,8,29,-5,60,1,72,-7,ok,2,0,0.002,7,-0.91,-0.79,10.48,42,0.139,8.38
6.9667,-0.08901,-0.03840,1.02451,0.00000,0.00000,0.00000,60,9,26,-3,61,1,71,-9,ok,2,0,0.002,7,-0.91,-0.79,10.48,42,0.152,8.38
6.9869,-0.08901,-0.03840,1.02451,0.00000,0.00000,0.00000,62,10,21,-1,62,1,69,-11,ok,2,0,0.002,7,-0.91,-0.79,10.48,42,0.165,8.38
6.9919,-0.08901,-0.03840,1.02451,0.00000,0.00000,0.00000,62,10,20,0,64,-1,67,-12,ok,2,0,0.002,7,-0.91,-0.79,10.48,42,0.177,8.38
7.0041,-0.08901,-0.03840,1.02451,0.00000,0.00000,0.00000,63,11,18,1,64,-1,65,-13,ok,2,0,0.002,7,-0.91,-0.79,10.48,42,0.190,8.38
7.0269,-0.08901,-0.03840,1.02451,0.00000,0.00000,0.00000,63,12,16,4,65,0,63,-13,ok,2,0,0.002,7,-0.91,-0.79,10.48,42,0.202,8.38
7.0302,-0.05760,-0.01745,1.04894,0.00000,0.00000,0.00000,64,12,14,7,65,0,61,-14,ok,2,0,0.002,7,0.37,-0.79,10.65,43,0.000,8.38
7.0428,-0.05760,-0.01745,1.04894,0.00000,0.00000,0.00000,64,13,12,10,66,1,59,-14,ok,2,0,0.002,7,0.37,-0.79,10.65,43,0.013,8.38
7.0629,-0.05760,-0.01745,1.04894,0.00000,0.00000,0.00000,65,14,11,13,67,1,56,-13,ok,2,0,0.002,7,0.37,-0.79,10.65,43,0.025,8.38
7.0676,-0.05760,-0.01745,1.04894,0.00000,0.00000,0.00000,65,15,12,13,67,1,53,-12,ok,2,0,0.002,7,0.37,-0.79,10.65,43,0.038,8.38
7.0801,-0.05760,-0.01745,1.04894,0.00000,0.00000,0.00000,65,16,12,13,68,1,51,-12,ok,2,0,0.002,7,0.37,-0.79,10.65,43,0.050,8.38
7.1029,-0.05760,-0.01745,1.04894,0.00000,0.00000,0.00000,66,17,14,12,68,1,47,-11,ok,2,0,0.002,7,0.37,-0.79,10.65,43,0.063,8.38
7.1059,-0.05760,-0.01745,1.04894,0.00000,0.00000,0.00000,66,18,15,11,69,2,45,-10,ok,2,0,0.002,7,0.37,-0.79,10.65,43,0.076,8.38
7.1187,-0.05760,-0.01745,1.04894,0.00000,0.00000,0.00000,67,18,15,10,69,3,42,-9,ok,2,0,0.002,7,0.37,-0.79,10.65,43,0.089,8.38
7.1389,-0.05760,-0.01745,1.04894,0.00000,0.00000,0.00000,67,19,17,9,69,4,39,-8,ok,2,0,0.002,7,0.37,-0.79,10.65,43,0.101,8.38
7.1436,-0.05760,-0.01745,1.04894,0.00000,0.00000,0.00000,67,20,17,9,70,5,36,-7,ok,2,0,0.002,7,0.37,-0.79,10.65,43,0.114,8.38
7.1561,-0.05760,-0.01745,1.04894,0.00000,0.00000,0.00000,68,21,19,8,71,5,34,-5,ok,2,0,0.002,7,0.37,-0.79,10.65,43,0.126,8.38
7.1789,-0.05760,-0.01745,1.04894,0.00000,0.00000,0.00000,68,22,21,7,71,6,32,-4,ok,2,0,0.002,7,0.37,-0.79,10.65,43,0.139,8.38
7.1819,-0.05760,-0.01745,1.04894,0.00000,0.00000,0.00000,68,23,22,7,70,8,30,0,ok,2,0,0.002,7,0.37,-0.79,10.65,43,0.152,8.38
7.1947,-0.05760,-0.01745,1.04894,0.00000,0.00000,0.00000,68,24,23,6,71,8,29,2,ok,2,0,0.002,7,0.37,-0.79,10.65,43,0.165,8.38
7.2149,-0.05760,-0.01745,1.04894,0.00000,0.00000,0.00000,67,25,25,5,71,9,28,5,ok,2,0,0.002,7,0.37,-0.79,10.65,43,0.177,8.38
7.2199,-0.05760,-0.01745,1.04894,0.00000,0.00000,0.00000,66,28,26,5,71,10,27,7,ok,2,0,0.002,7,0.37,-0.79,10.65,43,0.190,8.38
7.2323,-0.00873,0.04363,1.11352,0.00000,0.00000,0.00000,66,29,27,4,71,12,29,6,ok,2,0,0.002,7,1.29,-0.60,10.41,44,0.000,8.38
7.2549,-0.00873,0.04363,1.11352,0.00000,0.00000,0.00000,67,28,28,4,71,13,29,6,ok,2,0,0.002,7,1.29,-0.60,10.41,44,0.013,8.38
7.2580,-0.00873,0.04363,1.11352,0.00000,0.00000,0.00000,69,25,30,3,71,15,31,4,ok,2,0,0.002,7,1.29,-0.60,10.41,44,0.026,8.38
7.2707,-0.00873,0.04363,1.11352,0.00000,0.00000,0.00000,72,21,31,2,71,16,32,3,ok,2,0,0.002,7,1.29,-0.60,10.41,44,0.039,8.38
7.2910,-0.00873,0.04363,1.11352,0.00000,0.00000,0.00000,72,17,32,2,71,18,33,3,ok,2,0,0.002,7,1.29,-0.60,10.41,44,0.051,8.38
7.2956,-0.00873,0.04363,1.11352,0.00000,0.00000,0.00000,73,15,33,2,72,19,34,2,ok,2,0,0.002,7,1.29,-0.60,10.41,44,0.064,8.38
7.3081,-0.00873,0.04363,1.11352,0.00000,0.00000,0.00000,72,14,35,2,71,21,36,1,ok,2,0,0.002,7,1.29,-0.60,10.41,44,0.076,8.38
7.3309,-0.00873,0.04363,1.11352,0.00000,0.00000,0.00000,72,11,36,2,71,22,38,1,ok,2,0,0.002,7,1.29,-0.60,10.41,44,0.089,8.38
7.3341,-0.00873,0.04363,1.11352,0.00000,0.00000,0.00000,72,8,37,2,71,24,39,2,ok,2,0,0.002,7,1.29,-0.60,10.41,44,0.102,8.38
7.3466,-0.00873,0.04363,1.11352,0.00000,0.00000,0.00000,71,5,38,2,71,26,41,2,ok,2,0,0.002,7,1.29,-0.60,10.41,44,0.115,8.38
7.3669,-0.00873,0.04363,1.11352,0.00000,0.00000,0.00000,70,1,40,2,70,28,42,2,ok,2,0,0.002,7,1.29,-0.60,10.41,44,0.127,8.38
7.3717,-0.00873,0.04363,1.11352,0.00000,0.00000,0.00000,69,-1,41,1,70,29,43,2,ok,2,0,0.002,7,1.29,-0.60,10.41,44,0.139,8.38
7.3841,-0.00873,0.04363,1.11352,0.00000,0.00000,0.00000,68,-3,43,2,71,29,44,1,ok,2,0,0.002,7,1.29,-0.60,10.41,44,0.152,8.38
7.4069,-0.00873,0.04363,1.11352,0.00000,0.00000,0.00000,66,-4,43,2,72,29,45,1,ok,2,0,0.002,7,1.29,-0.60,10.41,44,0.165,8.38
7.4099,-0.00873,0.04363,1.11352,0.00000,0.00000,0.00000,65,-6,45,2,73,26,46,0,ok,2,0,0.002,7,1.29,-0.60,10.41,44,0.178,8.38
7.4228,-0.00873,0.04363,1.11352,0.00000,0.00000,0.00000,64,-8,46,2,75,22,48,0,ok,2,0,0.002,7,1.29,-0.60,10.41,44,0.191,8.38
7.4429,0.08378,0.03491,1.15192,0.00000,0.00000,0.00000,61,-9,48,4,77,17,49,1,ok,2,0,0.002,7,0.79,1.06,10.06,45,0.000,8.38
7.4477,0.08378,0.03491,1.15192,0.00000,0.00000,0.00000,59,-10,49,3,78,15,49,0,ok,2,0,0.002,7,0.79,1.06,10.06,45,0.012,8.38
7.4601,0.08378,0.03491,1.15192,0.00000,0.00000,0.00000,57,-11,50,3,78,14,50,0,ok,2,0,0.002,7,0.79,1.06,10.06,45,0.025,8.38
7.4829,0.08378,0.03491,1.15192,0.00000,0.00000,0.00000,54,-12,50,5,78,12,51,0,ok,2,0,0.002,7,0.79,1.06,10.06,45,0.038,8.38
7.4860,0.08378,0.03491,1.15192,0.00000,0.00000,0.00000,52,-11,51,6,78,8,52,0,ok,2,0,0.002,7,0.79,1.06,10.06,45,0.051,8.38
7.4986,0.08378,0.03491,1.15192,0.00000,0.00000,0.00000,49,-11,52,5,78,5,53,0,ok,2,0,0.002,7,0.79,1.06,10.06,45,0.064,8.38
7.5189,0.08378,0.03491,1.15192,0.00000,0.00000,0.00000,47,-11,53,6,77,3,54,0,ok,2,0,0.002,7,0.79,1.06,10.06,45,0.076,8.38
7.5239,0.08378,0.03491,1.15192,0.00000,0.00000,0.00000,44,-11,53,7,76,0,55,1,ok,2,0,0.002,7,0.79,1.06,10.06,45,0.088,8.38
7.5361,0.08378,0.03491,1.15192,0.00000,0.00000,0.00000,42,-11,55,7,76,-3,55,0,ok,2,0,0.002,7,0.79,1.06,10.06,45,0.101,8.38
7.5589,0.08378,0.03491,1.15192,0.00000,0.00000,0.00000,40,-10,55,7,75,-4,57,1,ok,2,0,0.002,7,0.79,1.06,10.06,45,0.114,8.38
7.5621,0.08378,0.03491,1.15192,0.00000,0.00000,0.00000,37,-9,56,8,73,-7,57,-1,ok,2,0,0.002,7,0.79,1.06,10.06,45,0.127,8.38
7.5747,0.08378,0.03491,1.15192,0.00000,0.00000,0.00000,34,-8,57,8,70,-7,58,0,ok,2,0,0.002,7,0.79,1.06,10.06,45,0.140,8.38
7.5949,0.08378,0.03491,1.15192,0.00000,0.00000,0.00000,31,-6,58,9,69,-9,58,0,ok,2,0,0.002,7,0.79,1.06,10.06,45,0.152,8.38
7.5997,0.08378,0.03491,1.15192,0.00000,0.00000,0.00000,28,-4,58,9,68,-10,60,1,ok,2,0,0.002,7,0.79,1.06,10.06,45,0.164,8.38
7.6121,0.08378,0.03491,1.15192,0.00000,0.00000,0.00000,24,-2,60,11,66,-12,60,0,ok,2,0,0.002,8,0.79,1.06,10.06,45,0.177,8.38
7.6349,0.08378,0.03491,1.15192,0.00000,0.00000,0.00000,22,-1,61,11,64,-12,61,0,ok,2,0,0.002,8,0.79,1.06,10.06,45,0.190,8.38
7.6383,0.03142,-0.00873,1.17112,0.00000,0.00000,0.00000,20,1,61,11,62,-13,64,-2,ok,2,0,0.002,8,-0.14,0.26,9.78,46,0.000,8.38
7.6507,0.03142,-0.00873,1.17112,0.00000,0.00000,0.00000,18,3,62,12,59,-14,64,-1,ok,2,0,0.002,8,-0.14,0.26,9.78,46,0.013,8.38
7.6709,0.03142,-0.00873,1.17112,0.00000,0.00000,0.00000,16,7,62,13,57,-14,65,-1,ok,2,0,0.002,8,-0.14,0.26,9.78,46,0.025,8.38
7.6759,0.03142,-0.00873,1.17112,0.00000,0.00000,0.00000,14,10,62,14,54,-13,66,0,ok,2,0,0.002,8,-0.14,0.26,9.78,46,0.038,8.38
7.6882,0.03142,-0.00873,1.17112,0.00000,0.00000,0.00000,13,12,63,15,51,-12,66,-1,ok,2,0,0.002,8,-0.14,0.26,9.78,46,0.050,8.38
7.7109,0.03142,-0.00873,1.17112,0.00000,0.00000,0.00000,14,13,63,16,49,-12,67,0,ok,2,0,0.002,8,-0.14,0.26,9.78,46,0.063,8.38
7.7139,0.03142,-0.00873,1.17112,0.00000,0.00000,0.00000,14,13,63,17,46,-11,68,0,ok,2,0,0.002,8,-0.14,0.26,9.78,46,0.076,8.38
7.7269,0.03142,-0.00873,1.17112,0.00000,0.00000,0.00000,16,12,64,17,44,-11,69,1,ok,2,0,0.002,8,-0.14,0.26,9.78,46,0.089,8.38
7.7469,0.03142,-0.00873,1.17112,0.00000,0.00000,0.00000,17,11,64,18,41,-10,69,1,ok,2,0,0.002,8,-0.14,0.26,9.78,46,0.101,8.38
7.7516,0.03142,-0.00873,1.17112,0.00000,0.00000,0.00000,18,11,65,19,38,-9,70,2,ok,2,0,0.002,8,-0.14,0.26,9.78,46,0.114,8.38
7.7641,0.03142,-0.00873,1.17112,0.00000,0.00000,0.00000,19,10,65,20,35,-7,70,2,ok,2,0,0.002,8,-0.14,0.26,9.78,46,0.126,8.38
7.7869,0.03142,-0.00873,1.17112,0.00000,0.00000,0.00000,20,10,65,21,33,-6,71,3,ok,2,0,0.002,8,-0.14,0.26,9.78,46,0.139,8.38
7.7899,0.03142,-0.00873,1.17112,0.00000,0.00000,0.00000,22,8,65,21,31,-5,71,5,ok,2,0,0.002,8,-0.14,0.26,9.78,46,0.152,8.38
7.8025,0.03142,-0.00873,1.17112,0.00000,0.00000,0.00000,23,8,65,23,29,-2,72,5,ok,2,0,0.002,8,-0.14,0.26,9.78,46,0.165,8.38
7.8229,0.03142,-0.00873,1.17112,0.00000,0.00000,0.00000,25,7,65,23,27,1,72,7,ok,2,0,0.002,8,-0.14,0.26,9.78,46,0.177,8.38
7.8276,0.03142,-0.00873,1.17112,0.00000,0.00000,0.00000,26,6,65,24,26,4,72,8,ok,2,0,0.002,8,-0.14,0.26,9.78,46,0.190,8.38
7.8404,-0.06807,-0.00349,1.20079,0.00000,0.00000,0.00000,27,6,65,25,26,7,72,9,ok,2,0,0.002,8,-0.69,-0.29,8.46,47,0.000,8.38
7.8629,-0.06807,-0.00349,1.20079,0.00000,0.00000,0.00000,28,5,64,28,27,6,73,10,ok,2,0,0.002,8,-0.69,-0.29,8.46,47,0.013,8.38
7.8659,-0.06807,-0.00349,1.20079,0.00000,0.00000,0.00000,30,4,63,29,28,5,73,12,ok,2,0,0.002,8,-0.69,-0.29,8.46,47,0.026,8.38
7.8787,-0.06807,-0.00349,1.20079,0.00000,0.00000,0.00000,31,4,64,28,29,3,73,13,ok,2,0,0.002,8,-0.69,-0.29,8.46,47,0.039,8.38
7.8989,-0.06807,-0.00349,1.20079,0.00000,0.00000,0.00000,32,3,67,25,30,3,73,15,ok,2,0,0.002,8,-0.69,-0.29,8.46,47,0.051,8.38
7.9037,-0.06807,-0.00349,1.20079,0.00000,0.00000,0.00000,33,3,70,21,31,3,73,16,ok,2,0,0.002,8,-0.69,-0.29,8.46,47,0.063,8.38
7.9161,-0.06807,-0.00349,1.20079,0.00000,0.00000,0.00000,35,2,71,18,33,2,73,18,ok,2,0,0.002,8,-0.69,-0.29,8.46,47,0.076,8.38
7.9389,-0.06807,-0.00349,1.20079,0.00000,0.00000,0.00000,36,2,71,15,34,1,73,20,ok,2,0,0.002,8,-0.69,-0.29,8.46,47,0.089,8.38
7.9419,-0.06807,-0.00349,1.20079,0.00000,0.00000,0.00000,38,1,71,15,36,1,74,21,ok,2,0,0.002,8,-0.69,-0.29,8.46,47,0.102,8.38
7.9546,-0.06807,-0.00349,1.20079,0.00000,0.00000,0.00000,39,1,71,11,37,1,72,23,ok,2,0,0.002,8,-0.69,-0.29,8.46,47,0.115,8.38
7.9749,-0.06807,-0.00349,1.20079,0.00000,0.00000,0.00000,40,1,71,8,39,2,72,24,ok,2,0,0.002,8,-0.69,-0.29,8.46,47,0.127,8.38
7.9797,-0.06807,-0.00349,1.20079,0.00000,0.00000,0.00000,42,1,70,6,40,1,73,25,ok,2,0,0.002,8,-0.69,-0.29,8.46,47,0.139,8.38
7.9922,-0.06807,-0.00349,1.20079,0.00000,0.00000,0.00000,43,0,69,3,41,2,72,27,ok,2,0,0.002,8,-0.69,-0.29,8.46,47,0.152,8.38
8.0149,-0.06807,-0.00349,1.20079,0.00000,0.00000,0.00000,44,0,68,1,42,1,72,28,ok,2,0,0.002,8,-0.69,-0.29,8.46,47,0.165,8.38
8.0181,-0.06807,-0.00349,1.20079,0.00000,0.00000,0.00000,46,0,67,0,43,1,72,29,ok,2,0,0.002,8,-0.69,-0.29,8.46,47,0.178,8.38
8.0306,-0.06807,-0.00349,1.20079,0.00000,0.00000,0.00000,46,0,65,-2,44,0,73,29,ok,2,0,0.002,8,-0.69,-0.29,8.46,47,0.191,8.38
8.0509,-0.03665,0.00873,1.23569,0.00000,0.00000,0.00000,48,1,64,-4,46,0,74,29,ok,2,0,0.002,8,0.30,-0.51,10.35,48,0.000,8.38
8.0556,-0.03665,0.00873,1.23569,0.00000,0.00000,0.00000,49,1,63,-6,47,0,76,26,ok,2,0,0.002,8,0.30,-0.51,10.35,48,0.013,8.38
8.0681,-0.03665,0.00873,1.23569,0.00000,0.00000,0.00000,50,2,61,-7,48,0,78,21,ok,2,0,0.002,8,0.30,-0.51,10.35,48,0.025,8.38
8.0909,-0.03665,0.00873,1.23569,0.00000,0.00000,0.00000,52,2,58,-8,49,0,79,17,ok,2,0,0.002,8,0.30,-0.51,10.35,48,0.038,8.38
8.0941,-0.03665,0.00873,1.23569,0.00000,0.00000,0.00000,52,2,56,-8,50,0,81,14,ok,2,0,0.002,8,0.30,-0.51,10.35,48,0.051,8.38
8.1066,-0.03665,0.00873,1.23569,0.00000,0.00000,0.00000,52,4,54,-9,51,0,81,14,ok,2,0,0.002,8,0.30,-0.51,10.35,48,0.064,8.38
8.1269,-0.03665,0.00873,1.23569,0.00000,0.00000,0.00000,53,5,51,-9,52,1,81,11,ok,2,0,0.002,8,0.30,-0.51,10.35,48,0.076,8.38
8.1316,-0.03665,0.00873,1.23569,0.00000,0.00000,0.00000,54,4,48,-9,54,1,81,7,ok,2,0,0.002,8,0.30,-0.51,10.35,48,0.089,8.38
8.1443,-0.03665,0.00873,1.23569,0.00000,0.00000,0.00000,54,5,46,-9,54,1,80,4,ok,2,0,0.002,8,0.30,-0.51,10.35,48,0.101,8.38
8.1669,-0.03665,0.00873,1.23569,0.00000,0.00000,0.00000,55,6,43,-9,55,1,80,2,ok,2,0,0.002,8,0.30,-0.51,10.35,48,0.114,8.38
8.1700,-0.03665,0.00873,1.23569,0.00000,0.00000,0.00000,57,6,41,-9,56,2,78,-1,ok,2,0,0.002,8,0.30,-0.51,10.35,48,0.127,8.38
8.1826,-0.03665,0.00873,1.23569,0.00000,0.00000,0.00000,57,6,38,-8,57,1,78,-3,ok,2,0,0.002,8,0.30,-0.51,10.35,48,0.140,8.38
8.2029,-0.03665,0.00873,1.23569,0.00000,0.00000,0.00000,59,7,35,-7,58,1,77,-4,ok,2,0,0.002,8,0.30,-0.51,10.35,48,0.152,8.38
8.2077,-0.03665,0.00873,1.23569,0.00000,0.00000,0.00000,59,8,32,-6,59,2,75,-7,ok,2,0,0.002,8,0.30,-0.51,10.35,48,0.165,8.38
8.2201,-0.03665,0.00873,1.23569,0.00000,0.00000,0.00000,60,8,28,-5,60,2,72,-7,ok,2,0,0.002,8,0.30,-0.51,10.35,48,0.177,8.38
8.2429,-0.03665,0.00873,1.23569,0.00000,0.00000,0.00000,60,9,26,-3,61,2,71,-9,ok,2,0,0.002,8,0.30,-0.51,10.35,48,0.190,8.38
8.2462,-0.03665,0.00873,1.23569,0.00000,0.00000,0.00000,62,10,21,-1,62,1,70,-10,ok,2,0,0.002,8,0.30,-0.51,10.35,48,0.203,8.38
8.2589,-0.03491,-0.03491,1.23569,0.00000,0.00000,0.00000,62,10,20,0,64,-1,68,-12,ok,2,0,0.002,8,-0.53,-0.92,10.96,49,0.000,8.38
8.2789,-0.03491,-0.03491,1.23569,0.00000,0.00000,0.00000,64,11,18,1,64,0,65,-13,ok,2,0,0.002,8,-0.53,-0.92,10.96,49,0.013,8.38
8.2837,-0.03491,-0.03491,1.23569,0.00000,0.00000,0.00000,64,12,16,4,65,0,64,-13,ok,2,0,0.002,8,-0.53,-0.92,10.96,49,0.025,8.38
8.2963,-0.03491,-0.03491,1.23569,0.00000,0.00000,0.00000,64,12,14,7,65,0,61,-14,ok,2,0,0.002,8,-0.53,-0.92,10.96,49,0.037,8.38
8.3189,-0.03491,-0.03491,1.23569,0.00000,0.00000,0.00000,64,14,12,10,66,1,59,-14,ok,2,0,0.002,8,-0.53,-0.92,10.96,49,0.050,8.38
8.3219,-0.03491,-0.03491,1.23569,0.00000,0.00000,0.00000,65,14,11,13,67,1,56,-13,ok,2,0,0.002,8,-0.53,-0.92,10.96,49,0.063,8.38
8.3347,-0.03491,-0.03491,1.23569,0.00000,0.00000,0.00000,65,15,12,13,67,1,53,-12,ok,2,0,0.002,8,-0.53,-0.92,10.96,49,0.076,8.38
8.3549,-0.03491,-0.03491,1.23569,0.00000,0.00000,0.00000,66,16,12,13,68,1,51,-12,ok,2,0,0.002,8,-0.53,-0.92,10.96,49,0.088,8.38
8.3596,-0.03491,-0.03491,1.23569,0.00000,0.00000,0.00000,67,17,14,12,68,1,48,-11,ok,2,0,0.002,8,-0.53,-0.92,10.96,49,0.101,8.38
8.3722,-0.03491,-0.03491,1.23569,0.00000,0.00000,0.00000,67,18,15,11,69,2,45,-10,ok,2,0,0.002,8,-0.53,-0.92,10.96,49,0.113,8.38
8.3949,-0.03491,-0.03491,1.23569,0.00000,0.00000,0.00000,67,18,15,10,69,3,42,-9,ok,2,0,0.002,8,-0.53,-0.92,10.96,49,0.126,8.38
8.3979,-0.03491,-0.03491,1.23569,0.00000,0.00000,0.00000,68,19,17,9,69,4,40,-8,ok,2,0,0.002,8,-0.53,-0.92,10.96,49,0.139,8.38
8.4106,-0.03491,-0.03491,1.23569,0.00000,0.00000,0.00000,68,20,17,9,69,5,36,-7,ok,2,0,0.002,8,-0.53,-0.92,10.96,49,0.152,8.38
8.4309,-0.03491,-0.03491,1.23569,0.00000,0.00000,0.00000,69,21,19,8,70,5,35,-5,ok,2,0,0.002,8,-0.53,-0.92,10.96,49,0.165,8.38
8.4357,-0.03491,-0.03491,1.23569,0.00000,0.00000,0.00000,69,22,21,7,70,6,32,-4,ok,2,0,0.002,8,-0.53,-0.92,10.96,49,0.177,8.38
8.4483,-0.03491,-0.03491,1.23569,0.00000,0.00000,0.00000,68,23,22,7,70,8,30,0,ok,2,0,0.002,8,-0.53,-0.92,10.96,49,0.189,8.38
8.4709,0.10297,-0.01222,1.27933,0.00000,0.00000,0.00000,68,24,23,6,71,8,29,2,ok,2,0,0.002,8,-1.37,1.22,9.50,50,0.000,8.38
8.4739,0.10297,-0.01222,1.27933,0.00000,0.00000,0.00000,67,25,25,5,71,9,28,5,ok,2,0,0.002,8,-1.37,1.22,9.50,50,0.013,8.38
8.4866,0.10297,-0.01222,1.27933,0.00000,0.00000,0.00000,66,28,26,5,71,11,27,7,ok,2,0,0.002,8,-1.37,1.22,9.50,50,0.026,8.38
8.5069,0.10297,-0.01222,1.27933,0.00000,0.00000,0.00000,66,29,27,4,70,12,29,6,ok,2,0,0.002,8,-1.37,1.22,9.50,50,0.038,8.38
8.5116,0.10297,-0.01222,1.27933,0.00000,0.00000,0.00000,67,28,28,4,71,14,29,5,ok,2,0,0.002,8,-1.37,1.22,9.50,50,0.051,8.38
8.5241,0.10297,-0.01222,1.27933,0.00000,0.00000,0.00000,70,25,29,3,71,15,31,4,ok,2,0,0.002,8,-1.37,1.22,9.50,50,0.063,8.38
8.5469,0.10297,-0.01222,1.27933,0.00000,0.00000,0.00000,72,21,31,3,71,16,32,3,ok,2,0,0.002,8,-1.37,1.22,9.50,50,0.076,8.38
8.5499,0.10297,-0.01222,1.27933,0.00000,0.00000,0.00000,73,17,32,2,70,18,34,3,ok,2,0,0.002,8,-1.37,1.22,9.50,50,0.089,8.38
8.5626,0.10297,-0.01222,1.27933,0.00000,0.00000,0.00000,73,15,33,2,71,19,35,2,ok,2,0,0.002,8,-1.37,1.22,9.50,50,0.102,8.38
8.5829,0.10297,-0.01222,1.27933,0.00000,0.00000,0.00000,73,14,35,2,70,21,37,1,ok,2,0,0.002,8,-1.37,1.22,9.50,50,0.114,8.38
8.5877,0.10297,-0.01222,1.27933,0.00000,0.00000,0.00000,73,11,36,2,70,22,39,1,ok,2,0,0.002,8,-1.37,1.22,9.50,50,0.127,8.38
8.6001,0.10297,-0.01222,1.27933,0.00000,0.00000,0.00000,72,7,37,2,70,24,40,2,ok,2,0,0.002,8,-1.37,1.22,9.50,50,0.139,8.38
8.6229,0.10297,-0.01222,1.27933,0.00000,0.00000,0.00000,71,5,39,2,70,26,41,1,ok,2,0,0.003,8,-1.37,1.22,9.50,50,0.152,8.38
8.6259,0.10297,-0.01222,1.27933,0.00000,0.00000,0.00000,71,1,40,2,70,28,43,2,ok,2,0,0.003,9,-1.37,1.22,9.50,50,0.165,8.38
8.6387,0.10297,-0.01222,1.27933,0.00000,0.00000,0.00000,70,-1,41,2,70,29,43,2,ok,2,0,0.003,9,-1.37,1.22,9.50,50,0.178,8.38
8.6589,0.10297,-0.01222,1.27933,0.00000,0.00000,0.00000,68,-3,43,2,70,29,45,1,ok,2,0,0.003,9,-1.37,1.22,9.50,50,0.190,8.38
8.6640,0.03491,0.04712,1.34041,0.00000,0.00000,0.00000,66,-4,43,2,71,29,46,1,ok,2,0,0.003,9,0.41,-0.22,10.15,51,0.000,8.38
8.6761,0.03491,0.04712,1.34041,0.00000,0.00000,0.00000,65,-6,45,3,73,26,47,0,ok,2,0,0.003,9,0.41,-0.22,10.15,51,0.013,8.38
8.6989,0.03491,0.04712,1.34041,0.00000,0.00000,0.00000,64,-8,46,3,75,22,48,0,ok,2,0,0.003,9,0.41,-0.22,10.15,51,0.025,8.38
8.7020,0.03491,0.04712,1.34041,0.00000,0.00000,0.00000,62,-9,47,4,76,17,49,1,ok,2,0,0.003,9,0.41,-0.22,10.15,51,0.038,8.38
8.7146,0.03491,0.04712,1.34041,0.00000,0.00000,0.00000,60,-10,48,3,78,15,50,1,ok,2,0,0.003,9,0.41,-0.22,10.15,51,0.051,8.38
8.7349,0.03491,0.04712,1.34041,0.00000,0.00000,0.00000,58,-10,49,3,78,14,50,1,ok,2,0,0.003,9,0.41,-0.22,10.15,51,0.063,8.38
8.7398,0.03491,0.04712,1.34041,0.00000,0.00000,0.00000,55,-11,49,5,78,12,52,1,ok,2,0,0.003,9,0.41,-0.22,10.15,51,0.076,8.38
8.7521,0.03491,0.04712,1.34041,0.00000,0.00000,0.00000,52,-11,51,6,78,8,53,1,ok,2,0,0.003,9,0.41,-0.22,10.15,51,0.088,8.38
8.7749,0.03491,0.04712,1.34041,0.00000,0.00000,0.00000,50,-11,52,6,78,5,54,1,ok,2,0,0.003,9,0.41,-0.22,10.15,51,0.101,8.38
8.7780,0.03491,0.04712,1.34041,0.00000,0.00000,0.00000,47,-11,53,6,77,3,55,0,ok,2,0,0.003,9,0.41,-0.22,10.15,51,0.114,8.38
8.7909,0.03491,0.04712,1.34041,0.00000,0.00000,0.00000,45,-11,53,7,76,0,55,1,ok,2,0,0.003,9,0.41,-0.22,10.15,51,0.127,8.38
8.8109,0.03491,0.04712,1.34041,0.00000,0.00000,0.00000,43,-11,55,7,76,-2,56,0,ok,2,0,0.003,9,0.41,-0.22,10.15,51,0.140,8.38
8.8157,0.03491,0.04712,1.34041,0.00000,0.00000,0.00000,40,-10,55,7,75,-4,57,1,ok,2,0,0.003,9,0.41,-0.22,10.15,51,0.152,8.38
8.8281,0.03491,0.04712,1.34041,0.00000,0.00000,0.00000,37,-9,56,8,73,-7,57,0,ok,2,0,0.003,9,0.41,-0.22,10.15,51,0.165,8.38
8.8509,0.03491,0.04712,1.34041,0.00000,0.00000,0.00000,34,-8,57,8,70,-6,58,0,ok,2,0,0.003,9,0.41,-0.22,10.15,51,0.177,8.38
8.8539,0.03491,0.04712,1.34041,0.00000,0.00000,0.00000,31,-6,57,9,69,-8,58,0,ok,2,0,0.003,9,0.41,-0.22,10.15,51,0.190,8.38
8.8669,0.12915,0.00698,1.36659,0.00000,0.00000,0.00000,28,-4,58,9,68,-10,60,1,ok,2,0,0.003,9,-0.29,1.20,9.33,52,0.000,8.38
8.8869,0.12915,0.00698,1.36659,0.00000,0.00000,0.00000,24,-2,60,11,66,-11,61,0,ok,2,0,0.003,9,-0.29,1.20,9.33,52,0.013,8.38
8.8918,0.12915,0.00698,1.36659,0.00000,0.00000,0.00000,22,-1,61,11,63,-12,62,0,ok,2,0,0.003,9,-0.29,1.20,9.33,52,0.025,8.38
8.9041,0.12915,0.00698,1.36659,0.00000,0.00000,0.00000,20,1,62,12,62,-12,64,-2,ok,2,0,0.003,9,-0.29,1.20,9.33,52,0.038,8.38
8.9269,0.12915,0.00698,1.36659,0.00000,0.00000,0.00000,18,3,62,12,59,-13,64,-1,ok,2,0,0.003,9,-0.29,1.20,9.33,52,0.050,8.38
8.9299,0.12915,0.00698,1.36659,0.00000,0.00000,0.00000,16,7,62,13,57,-14,65,-1,ok,2,0,0.003,9,-0.29,1.20,9.33,52,0.063,8.38
8.9428,0.12915,0.00698,1.36659,0.00000,0.00000,0.00000,14,10,62,14,54,-13,66,-1,ok,2,0,0.003,9,-0.29,1.20,9.33,52,0.076,8.38
8.9629,0.12915,0.00698,1.36659,0.00000,0.00000,0.00000,13,13,63,15,51,-12,66,-1,ok,2,0,0.003,9,-0.29,1.20,9.33,52,0.089,8.38
8.9676,0.12915,0.00698,1.36659,0.00000,0.00000,0.00000,15,13,63,16,49,-12,67,0,ok,2,0,0.003,9,-0.29,1.20,9.33,52,0.101,8.38
8.9801,0.12915,0.00698,1.36659,0.00000,0.00000,0.00000,15,13,63,17,46,-11,68,0,ok,2,0,0.003,9,-0.29,1.20,9.33,52,0.114,8.38
9.0029,0.12915,0.00698,1.36659,0.00000,0.00000,0.00000,16,12,64,17,43,-11,69,1,ok,2,0,0.003,9,-0.29,1.20,9.33,52,0.126,8.38
9.0060,0.12915,0.00698,1.36659,0.00000,0.00000,0.00000,17,12,64,18,40,-9,70,1,ok,2,0,0.003,9,-0.29,1.20,9.33,52,0.139,8.38
9.0186,0.12915,0.00698,1.36659,0.00000,0.00000,0.00000,18,11,65,19,38,-9,70,2,ok,2,0,0.003,9,-0.29,1.20,9.33,52,0.152,8.38
9.0389,0.12915,0.00698,1.36659,0.00000,0.00000,0.00000,20,10,65,20,34,-7,70,2,ok,2,0,0.003,9,-0.29,1.20,9.33,52,0.165,8.38
9.0436,0.12915,0.00698,1.36659,0.00000,0.00000,0.00000,20,10,65,21,33,-6,71,3,ok,2,0,0.003,9,-0.29,1.20,9.33,52,0.177,8.38
9.0561,0.12915,0.00698,1.36659,0.00000,0.00000,0.00000,23,9,65,22,31,-4,72,5,ok,2,0,0.003,9,-0.29,1.20,9.33,52,0.190,8.38
9.0789,0.09425,0.10647,1.35961,0.00000,0.00000,0.00000,24,8,65,23,28,-1,73,5,ok,2,0,0.003,9,0.31,1.22,10.97,53,0.000,8.38
9.0819,0.09425,0.10647,1.35961,0.00000,0.00000,0.00000,25,7,65,23,27,1,72,7,ok,2,0,0.003,9,0.31,1.22,10.97,53,0.013,8.38
9.0946,0.09425,0.10647,1.35961,0.00000,0.00000,0.00000,26,6,65,24,26,5,72,8,ok,2,0,0.003,9,0.31,1.22,10.97,53,0.026,8.38
9.1149,0.09425,0.10647,1.35961,0.00000,0.00000,0.00000,28,6,64,25,26,7,73,9,ok,2,0,0.003,9,0.31,1.22,10.97,53,0.039,8.38
9.1198,0.09425,0.10647,1.35961,0.00000,0.00000,0.00000,29,6,63,28,27,7,73,10,ok,2,0,0.003,9,0.31,1.22,10.97,53,0.051,8.38
9.1321,0.09425,0.10647,1.35961,0.00000,0.00000,0.00000,30,5,63,29,28,6,73,12,ok,2,0,0.003,9,0.31,1.22,10.97,53,0.064,8.38
9.1549,0.09425,0.10647,1.35961,0.00000,0.00000,0.00000,31,4,64,28,29,4,73,13,ok,2,0,0.003,9,0.31,1.22,10.97,53,0.076,8.38
9.1579,0.09425,0.10647,1.35961,0.00000,0.00000,0.00000,33,3,67,25,30,4,74,15,ok,2,0,0.003,9,0.31,1.22,10.97,53,0.089,8.38
9.1707,0.09425,0.10647,1.35961,0.00000,0.00000,0.00000,34,3,69,21,31,4,74,16,ok,2,0,0.003,9,0.31,1.22,10.97,53,0.102,8.38
9.1909,0.09425,0.10647,1.35961,0.00000,0.00000,0.00000,35,2,70,17,32,3,73,18,ok,2,0,0.003,9,0.31,1.22,10.97,53,0.115,8.38
9.1956,0.09425,0.10647,1.35961,0.00000,0.00000,0.00000,36,2,70,15,34,2,73,20,ok,2,0,0.003,9,0.31,1.22,10.97,53,0.127,8.38
9.2081,0.09425,0.10647,1.35961,0.00000,0.00000,0.00000,38,1,70,15,36,3,74,21,ok,2,0,0.003,9,0.31,1.22,10.97,53,0.139,8.38
9.2309,0.09425,0.10647,1.35961,0.00000,0.00000,0.00000,39,1,70,11,36,3,73,23,ok,2,0,0.003,9,0.31,1.22,10.97,53,0.152,8.38
9.2342,0.09425,0.10647,1.35961,0.00000,0.00000,0.00000,41,1,70,8,38,3,73,24,ok,2,0,0.003,9,0.31,1.22,10.97,53,0.165,8.38
9.2467,0.09425,0.10647,1.35961,0.00000,0.00000,0.00000,42,1,69,5,40,2,74,25,ok,2,0,0.003,9,0.31,1.22,10.97,53,0.178,8.38
9.2670,0.09425,0.10647,1.35961,0.00000,0.00000,0.00000,44,0,69,3,41,3,73,27,ok,2,0,0.003,9,0.31,1.22,10.97,53,0.191,8.38
9.2720,-0.06109,-0.02443,1.38405,0.00000,0.00000,0.00000,45,0,68,1,42,2,73,28,ok,2,0,0.003,9,-0.02,-1.02,8.32,54,0.000,8.38
9.2848,-0.06109,-0.02443,1.38405,0.00000,0.00000,0.00000,47,0,67,0,43,1,73,30,ok,0,0,0.003,9,-0.02,-1.02,8.32,54,0.013,8.38
9.3069,-0.06109,-0.02443,1.38405,0.00000,0.00000,0.00000,47,0,65,-1,44,0,74,30,ok,2,0,0.003,9,-0.02,-1.02,8.32,54,0.025,8.38
9.3099,-0.06109,-0.02443,1.38405,0.00000,0.00000,0.00000,49,0,64,-3,45,0,75,29,ok,2,0,0.003,9,-0.02,-1.02,8.32,54,0.038,8.38
9.3226,-0.06109,-0.02443,1.38405,0.00000,0.00000,0.00000,50,0,63,-5,47,0,77,27,ok,2,0,0.003,9,-0.02,-1.02,8.32,54,0.051,8.38
9.3429,-0.06109,-0.02443,1.38405,0.00000,0.00000,0.00000,51,1,61,-6,47,0,79,21,ok,2,0,0.003,9,-0.02,-1.02,8.32,54,0.063,8.38
9.3476,-0.06109,-0.02443,1.38405,0.00000,0.00000,0.00000,52,1,59,-7,48,0,80,18,ok,2,0,0.003,9,-0.02,-1.02,8.32,54,0.076,8.38
9.3601,-0.06109,-0.02443,1.38405,0.00000,0.00000,0.00000,52,1,56,-8,49,0,82,14,ok,2,0,0.003,9,-0.02,-1.02,8.32,54,0.088,8.38
9.3829,-0.06109,-0.02443,1.38405,0.00000,0.00000,0.00000,52,3,54,-9,51,0,82,14,ok,2,0,0.003,9,-0.02,-1.02,8.32,54,0.101,8.38
9.3860,-0.06109,-0.02443,1.38405,0.00000,0.00000,0.00000,53,4,51,-9,52,1,81,11,ok,2,0,0.003,9,-0.02,-1.02,8.32,54,0.114,8.38
9.3989,-0.06109,-0.02443,1.38405,0.00000,0.00000,0.00000,54,4,49,-9,53,1,81,7,ok,2,0,0.003,9,-0.02,-1.02,8.32,54,0.127,8.38
9.4189,-0.06109,-0.02443,1.38405,0.00000,0.00000,0.00000,55,5,46,-8,54,1,80,4,ok,2,0,0.003,9,-0.02,-1.02,8.32,54,0.139,8.38
9.4236,-0.06109,-0.02443,1.38405,0.00000,0.00000,0.00000,55,6,43,-9,55,1,80,2,ok,2,0,0.003,9,-0.02,-1.02,8.32,54,0.152,8.38
9.4363,-0.06109,-0.02443,1.38405,0.00000,0.00000,0.00000,57,6,41,-9,56,1,79,-1,ok,2,0,0.003,9,-0.02,-1.02,8.32,54,0.164,8.38
9.4589,-0.06109,-0.02443,1.38405,0.00000,0.00000,0.00000,57,6,38,-8,57,1,78,-3,ok,2,0,0.003,9,-0.02,-1.02,8.32,54,0.177,8.38
9.4620,-0.06109,-0.02443,1.38405,0.00000,0.00000,0.00000,59,7,35,-7,57,1,77,-4,ok,2,0,0.003,9,-0.02,-1.02,8.32,54,0.190,8.38
9.4750,-0.05236,-0.02967,1.42768,0.00000,0.00000,0.00000,59,8,32,-6,58,2,75,-6,ok,2,0,0.003,9,0.32,-0.50,10.12,55,0.000,8.38
9.4949,-0.05236,-0.02967,1.42768,0.00000,0.00000,0.00000,60,8,28,-5,59,2,72,-7,ok,2,0,0.003,9,0.32,-0.50,10.12,55,0.013,8.38
9.4996,-0.05236,-0.02967,1.42768,0.00000,0.00000,0.00000,61,9,26,-3,60,2,71,-9,ok,2,0,0.003,9,0.32,-0.50,10.12,55,0.025,8.38
9.5121,-0.05236,-0.02967,1.42768,0.00000,0.00000,0.00000,62,10,21,-1,61,1,70,-10,ok,2,0,0.003,9,0.32,-0.50,10.12,55,0.037,8.38
9.5349,-0.05236,-0.02967,1.42768,0.00000,0.00000,0.00000,63,10,20,0,63,-1,68,-12,ok,2,0,0.003,9,0.32,-0.50,10.12,55,0.050,8.38
9.5380,-0.05236,-0.02967,1.42768,0.00000,0.00000,0.00000,64,11,18,2,64,0,65,-13,ok,2,0,0.003,9,0.32,-0.50,10.12,55,0.063,8.38
9.5509,-0.05236,-0.02967,1.42768,0.00000,0.00000,0.00000,64,12,16,4,64,1,64,-13,ok,2,0,0.003,9,0.32,-0.50,10.12,55,0.076,8.38
9.5709,-0.05236,-0.02967,1.42768,0.00000,0.00000,0.00000,65,12,14,7,65,0,61,-14,ok,2,0,0.003,9,0.32,-0.50,10.12,55,0.088,8.38
9.5757,-0.05236,-0.02967,1.42768,0.00000,0.00000,0.00000,65,14,12,10,66,1,59,-14,ok,2,0,0.003,9,0.32,-0.50,10.12,55,0.101,8.38
9.5881,-0.05236,-0.02967,1.42768,0.00000,0.00000,0.00000,65,14,10,13,66,1,56,-12,ok,2,0,0.003,9,0.32,-0.50,10.12,55,0.114,8.38
9.6109,-0.05236,-0.02967,1.42768,0.00000,0.00000,0.00000,66,15,12,13,67,1,53,-12,ok,2,0,0.003,9,0.32,-0.50,10.12,55,0.126,8.38
9.6140,-0.05236,-0.02967,1.42768,0.00000,0.00000,0.00000,66,16,12,13,68,1,51,-12,ok,2,0,0.003,9,0.32,-0.50,10.12,55,0.139,8.38
9.6267,-0.05236,-0.02967,1.42768,0.00000,0.00000,0.00000,67,17,13,12,68,2,48,-11,ok,2,0,0.003,9,0.32,-0.50,10.12,55,0.152,8.38
9.6469,-0.05236,-0.02967,1.42768,0.00000,0.00000,0.00000,67,18,15,11,68,3,45,-10,ok,2,0,0.003,9,0.32,-0.50,10.12,55,0.165,8.38
9.6518,-0.05236,-0.02967,1.42768,0.00000,0.00000,0.00000,67,18,15,11,68,3,42,-9,ok,2,0,0.003,10,0.32,-0.50,10.12,55,0.177,8.38
9.6641,-0.05236,-0.02967,1.42768,0.00000,0.00000,0.00000,68,19,17,9,69,4,40,-8,ok,2,0,0.003,10,0.32,-0.50,10.12,55,0.190,8.38
9.6869,0.04712,0.01920,1.43292,0.00000,0.00000,0.00000,68,20,17,9,69,5,36,-6,ok,2,0,0.003,10,0.19,0.96,9.19,56,0.000,8.38
9.6900,0.04712,0.01920,1.43292,0.00000,0.00000,0.00000,69,21,19,8,70,6,35,-5,ok,2,0,0.003,10,0.19,0.96,9.19,56,0.013,8.38
9.7027,0.04712,0.01920,1.43292,0.00000,0.00000,0.00000,69,22,21,7,70,7,32,-4,ok,2,0,0.003,10,0.19,0.96,9.19,56,0.026,8.38
9.7229,0.04712,0.01920,1.43292,0.00000,0.00000,0.00000,68,23,22,7,70,8,30,-1,ok,2,0,0.003,10,0.19,0.96,9.19,56,0.038,8.38
9.7277,0.04712,0.01920,1.43292,0.00000,0.00000,0.00000,68,24,23,6,70,9,29,2,ok,2,0,0.003,10,0.19,0.96,9.19,56,0.051,8.38
9.7401,0.04712,0.01920,1.43292,0.00000,0.00000,0.00000,68,25,24,5,71,10,28,5,ok,2,0,0.003,10,0.19,0.96,9.19,56,0.064,8.38
9.7629,0.04712,0.01920,1.43292,0.00000,0.00000,0.00000,67,28,25,5,71,11,27,7,ok,2,0,0.003,10,0.19,0.96,9.19,56,0.076,8.38
9.7661,0.04712,0.01920,1.43292,0.00000,0.00000,0.00000,66,29,27,4,70,13,29,6,ok,2,0,0.003,10,0.19,0.96,9.19,56,0.089,8.38
9.7787,0.04712,0.01920,1.43292,0.00000,0.00000,0.00000,68,28,28,4,71,14,30,6,ok,2,0,0.003,10,0.19,0.96,9.19,56,0.102,8.38
9.7989,0.04712,0.01920,1.43292,0.00000,0.00000,0.00000,70,25,29,3,71,15,31,4,ok,2,0,0.003,10,0.19,0.96,9.19,56,0.114,8.38
9.8037,0.04712,0.01920,1.43292,0.00000,0.00000,0.00000,72,21,30,3,70,16,32,3,ok,2,0,0.003,10,0.19,0.96,9.19,56,0.127,8.38
9.8161,0.04712,0.01920,1.43292,0.00000,0.00000,0.00000,73,17,32,2,70,18,34,3,ok,2,0,0.003,10,0.19,0.96,9.19,56,0.139,8.38
9.8389,0.04712,0.01920,1.43292,0.00000,0.00000,0.00000,73,15,33,2,71,19,35,2,ok,2,0,0.003,10,0.19,0.96,9.19,56,0.152,8.38
9.8419,0.04712,0.01920,1.43292,0.00000,0.00000,0.00000,73,14,35,2,70,21,37,1,ok,2,0,0.003,10,0.19,0.96,9.19,56,0.165,8.38
9.8546,0.04712,0.01920,1.43292,0.00000,0.00000,0.00000,73,11,36,2,70,23,39,1,ok,2,0,0.003,10,0.19,0.96,9.19,56,0.178,8.38
9.8749,0.04712,0.01920,1.43292,0.00000,0.00000,0.00000,72,8,37,2,70,24,40,2,ok,2,0,0.003,10,0.19,0.96,9.19,56,0.190,8.38
9.8799,0.03491,0.06632,1.49226,0.00000,0.00000,0.00000,72,5,39,2,71,26,41,2,ok,2,0,0.003,10,-0.39,1.16,8.67,57,0.000,8.38
9.8921,0.03491,0.06632,1.49226,0.00000,0.00000,0.00000,71,1,40,2,70,28,43,2,ok,2,0,0.003,10,-0.39,1.16,8.67,57,0.013,8.38
9.9149,0.03491,0.06632,1.49226,0.00000,0.00000,0.00000,70,0,41,2,70,29,43,2,ok,2,0,0.003,10,-0.39,1.16,8.67,57,0.025,8.38
9.9182,0.03491,0.06632,1.49226,0.00000,0.00000,0.00000,68,-3,43,2,70,30,44,1,ok,2,0,0.003,10,-0.39,1.16,8.67,57,0.038,8.38
9.9307,0.03491,0.06632,1.49226,0.00000,0.00000,0.00000,66,-4,43,2,71,29,46,1,ok,2,0,0.003,10,-0.39,1.16,8.67,57,0.051,8.38
9.9509,0.03491,0.06632,1.49226,0.00000,0.00000,0.00000,65,-6,45,3,73,27,47,0,ok,2,0,0.003,10,-0.39,1.16,8.67,57,0.064,8.38
9.9556,0.03491,0.06632,1.49226,0.00000,0.00000,0.00000,64,-8,46,3,75,22,48,0,ok,2,0,0.003,10,-0.39,1.16,8.67,57,0.076,8.38
9.9681,0.03491,0.06632,1.49226,0.00000,0.00000,0.00000,62,-9,47,4,76,18,49,1,ok,2,0,0.003,10,-0.39,1.16,8.67,57,0.089,8.38
9.9909,0.03491,0.06632,1.49226,0.00000,0.00000,0.00000,60,-10,49,3,78,15,50,1,ok,2,0,0.003,10,-0.39,1.16,8.67,57,0.101,8.38
9.9939,0.03491,0.06632,1.49226,0.00000,0.00000,0.00000,57,-11,49,3,78,14,51,1,ok,2,0,0.003,10,-0.39,1.16,8.67,57,0.114,8.38
10.0066,0.03491,0.06632,1.49226,0.00000,0.00000,0.00000,55,-12,49,5,78,12,52,1,ok,2,0,0.003,10,-0.39,1.16,8.67,57,0.127,8.38
10.0349,0.03491,0.06632,1.49226,0.00000,0.00000,0.00000,52,-11,51,6,78,9,53,1,ok,2,0,0.003,10,-0.39,1.16,8.67,57,0.139,8.38
10.0380,0.03491,0.06632,1.49226,0.00000,0.00000,0.00000,50,-11,52,6,78,5,54,1,ok,2,0,0.003,10,-0.39,1.16,8.67,57,0.158,8.38
10.0506,0.03491,0.06632,1.49226,0.00000,0.00000,0.00000,47,-11,53,6,77,3,55,0,ok,2,0,0.003,10,-0.39,1.16,8.67,57,0.171,8.38
10.0709,0.03491,0.06632,1.49226,0.00000,0.00000,0.00000,45,-11,53,7,76,0,55,1,ok,2,0,0.003,10,-0.39,1.16,8.67,57,0.183,8.38
10.0758,0.03491,0.06632,1.49226,0.00000,0.00000,0.00000,43,-11,55,7,76,-2,56,0,ok,2,0,0.003,10,-0.39,1.16,8.67,57,0.196,8.38
10.0884,0.08727,-0.04363,1.50273,0.00000,0.00000,0.00000,40,-10,55,7,75,-3,57,1,ok,2,0,0.003,10,-0.84,0.95,10.35,58,0.000,8.38
10.1109,0.08727,-0.04363,1.50273,0.00000,0.00000,0.00000,37,-9,56,8,73,-7,58,-1,ok,2,0,0.003,10,-0.84,0.95,10.35,58,0.013,8.38
10.1142,0.08727,-0.04363,1.50273,0.00000,0.00000,0.00000,35,-8,57,9,70,-6,58,0,ok,2,0,0.003,10,-0.84,0.95,10.35,58,0.026,8.38
10.1270,0.08727,-0.04363,1.50273,0.00000,0.00000,0.00000,31,-6,58,9,69,-8,59,0,ok,2,0,0.003,10,-0.84,0.95,10.35,58,0.039,8.27
10.1469,0.08727,-0.04363,1.50273,0.00000,0.00000,0.00000,28,-4,58,10,68,-10,60,1,ok,2,0,0.003,10,-0.84,0.95,10.35,58,0.051,8.27
10.1516,0.08727,-0.04363,1.50273,0.00000,0.00000,0.00000,24,-2,60,11,65,-11,61,0,ok,2,0,0.003,10,-0.84,0.95,10.35,58,0.064,8.27
10.1642,0.08727,-0.04363,1.50273,0.00000,0.00000,0.00000,22,-1,61,11,63,-12,62,0,ok,2,0,0.003,10,-0.84,0.95,10.35,58,0.076,8.27
10.1869,0.08727,-0.04363,1.50273,0.00000,0.00000,0.00000,21,1,61,12,62,-13,64,-2,ok,2,0,0.003,10,-0.84,0.95,10.35,58,0.089,8.27
10.1900,0.08727,-0.04363,1.50273,0.00000,0.00000,0.00000,19,3,62,13,59,-13,64,-1,ok,2,0,0.003,10,-0.84,0.95,10.35,58,0.102,8.27
10.2026,0.08727,-0.04363,1.50273,0.00000,0.00000,0.00000,16,7,62,13,57,-14,65,-1,ok,2,0,0.003,10,-0.84,0.95,10.35,58,0.115,8.27
10.2229,0.08727,-0.04363,1.50273,0.00000,0.00000,0.00000,15,10,62,14,54,-13,66,0,ok,2,0,0.003,10,-0.84,0.95,10.35,58,0.127,8.27
10.2277,0.08727,-0.04363,1.50273,0.00000,0.00000,0.00000,13,13,63,15,51,-12,66,-1,ok,2,0,0.003,10,-0.84,0.95,10.35,58,0.140,8.27
10.2402,0.08727,-0.04363,1.50273,0.00000,0.00000,0.00000,15,13,63,16,49,-12,67,0,ok,2,0,0.003,10,-0.84,0.95,10.35,58,0.152,8.27
10.2629,0.08727,-0.04363,1.50273,0.00000,0.00000,0.00000,15,13,63,17,46,-11,68,0,ok,2,0,0.003,10,-0.84,0.95,10.35,58,0.165,8.27
10.2662,0.08727,-0.04363,1.50273,0.00000,0.00000,0.00000,16,12,64,17,43,-11,69,1,ok,2,0,0.003,10,-0.84,0.95,10.35,58,0.178,8.27
10.2789,0.08727,-0.04363,1.50273,0.00000,0.00000,0.00000,17,12,64,19,40,-10,70,1,ok,2,0,0.003,10,-0.84,0.95,10.35,58,0.191,8.27
10.2989,0.03665,-0.04014,1.52891,0.00000,0.00000,0.00000,18,11,65,19,37,-9,70,2,ok,2,0,0.003,10,-0.83,0.56,9.35,59,0.000,8.27
10.3036,0.03665,-0.04014,1.52891,0.00000,0.00000,0.00000,20,10,65,20,34,-7,70,3,ok,2,0,0.003,10,-0.83,0.56,9.35,59,0.012,8.27
10.3162,0.03665,-0.04014,1.52891,0.00000,0.00000,0.00000,21,10,65,21,32,-6,71,4,ok,2,0,0.003,10,-0.83,0.56,9.35,59,0.025,8.27
10.3389,0.03665,-0.04014,1.52891,0.00000,0.00000,0.00000,23,8,65,22,31,-5,71,5,ok,2,0,0.003,10,-0.83,0.56,9.35,59,0.038,8.27
10.3420,0.03665,-0.04014,1.52891,0.00000,0.00000,0.00000,24,8,65,23,28,-2,72,5,ok,2,0,0.003,10,-0.83,0.56,9.35,59,0.051,8.27
10.3546,0.03665,-0.04014,1.52891,0.00000,0.00000,0.00000,25,7,65,23,27,1,72,7,ok,2,0,0.003,10,-0.83,0.56,9.35,59,0.064,8.27
10.3750,0.03665,-0.04014,1.52891,0.00000,0.00000,0.00000,27,6,65,25,26,4,72,8,ok,2,0,0.003,10,-0.83,0.56,9.35,59,0.076,8.27
10.3797,0.03665,-0.04014,1.52891,0.00000,0.00000,0.00000,28,6,65,25,25,7,73,9,ok,2,0,0.003,10,-0.83,0.56,9.35,59,0.089,8.27
10.3922,0.03665,-0.04014,1.52891,0.00000,0.00000,0.00000,29,5,64,28,27,6,73,10,ok,2,0,0.003,10,-0.83,0.56,9.35,59,0.101,8.27
10.4149,0.03665,-0.04014,1.52891,0.00000,0.00000,0.00000,30,4,63,29,27,6,73,12,ok,2,0,0.003,10,-0.83,0.56,9.35,59,0.114,8.27
10.4180,0.03665,-0.04014,1.52891,0.00000,0.00000,0.00000,31,4,65,28,29,4,73,13,ok,2,0,0.003,10,-0.83,0.56,9.35,59,0.127,8.27
10.4305,0.03665,-0.04014,1.52891,0.00000,0.00000,0.00000,33,3,67,25,30,3,74,15,ok,2,0,0.003,10,-0.83,0.56,9.35,59,0.139,8.27
10.4509,0.03665,-0.04014,1.52891,0.00000,0.00000,0.00000,34,3,70,21,31,3,74,16,ok,2,0,0.003,10,-0.83,0.56,9.35,59,0.152,8.27
10.4556,0.03665,-0.04014,1.52891,0.00000,0.00000,0.00000,35,2,71,18,32,2,73,18,ok,2,0,0.003,10,-0.83,0.56,9.35,59,0.164,8.27
10.4683,0.03665,-0.04014,1.52891,0.00000,0.00000,0.00000,36,2,71,16,33,1,73,20,ok,2,0,0.003,10,-0.83,0.56,9.35,59,0.177,8.27
10.4909,0.02269,0.02618,1.48877,0.00000,0.00000,0.00000,38,1,71,15,36,2,74,20,ok,2,0,0.003,10,0.05,1.71,10.06,60,0.000,8.27
10.4940,0.02269,0.02618,1.48877,0.00000,0.00000,0.00000,39,1,71,12,36,2,73,23,ok,2,0,0.003,10,0.05,1.71,10.06,60,0.013,8.27
10.5068,0.02269,0.02618,1.48877,0.00000,0.00000,0.00000,41,1,70,9,38,2,73,24,ok,2,0,0.003,10,0.05,1.71,10.06,60,0.026,8.27
10.5269,0.02269,0.02618,1.48877,0.00000,0.00000,0.00000,42,1,70,6,39,1,73,25,ok,2,0,0.003,10,0.05,1.71,10.06,60,0.039,8.27
10.5316,0.02269,0.02618,1.48877,0.00000,0.00000,0.00000,44,1,69,3,40,2,73,27,ok,2,0,0.003,10,0.05,1.71,10.06,60,0.051,8.27
10.5442,0.02269,0.02618,1.48877,0.00000,0.00000,0.00000,45,0,68,1,41,1,73,28,ok,2,0,0.003,10,0.05,1.71,10.06,60,0.064,8.27
10.5669,0.02269,0.02618,1.48877,0.00000,0.00000,0.00000,47,0,67,0,43,1,72,29,ok,2,0,0.003,10,0.05,1.71,10.06,60,0.076,8.27
10.5700,0.02269,0.02618,1.48877,0.00000,0.00000,0.00000,47,0,65,-1,44,0,73,29,ok,2,0,0.003,10,0.05,1.71,10.06,60,0.089,8.27
10.5827,0.02269,0.02618,1.48877,0.00000,0.00000,0.00000,48,1,64,-4,45,0,74,29,ok,2,0,0.003,10,0.05,1.71,10.06,60,0.102,8.27
10.6029,0.02269,0.02618,1.48877,0.00000,0.00000,0.00000,49,1,63,-6,47,1,76,26,ok,2,0,0.003,10,0.05,1.71,10.06,60,0.115,8.27
10.6076,0.02269,0.02618,1.48877,0.00000,0.00000,0.00000,51,2,61,-7,47,1,78,21,ok,2,0,0.003,10,0.05,1.71,10.06,60,0.127,8.27
10.6202,0.02269,0.02618,1.48877,0.00000,0.00000,0.00000,52,1,58,-8,48,1,79,17,ok,2,0,0.003,10,0.05,1.71,10.06,60,0.139,8.27
10.6429,0.02269,0.02618,1.48877,0.00000,0.00000,0.00000,52,1,56,-8,50,1,81,14,ok,2,0,0.003,10,0.05,1.71,10.06,60,0.152,8.27
10.6462,0.02269,0.02618,1.48877,0.00000,0.00000,0.00000,52,4,53,-9,51,1,81,14,ok,2,0,0.003,10,0.05,1.71,10.06,60,0.165,8.27
10.6585,0.02269,0.02618,1.48877,0.00000,0.00000,0.00000,53,5,51,-9,52,1,81,11,ok,2,0,0.003,10,0.05,1.71,10.06,60,0.178,8.27
10.6829,0.02269,0.02618,1.48877,0.00000,0.00000,0.00000,54,4,48,-9,53,1,81,7,ok,2,0,0.003,11,0.05,1.71,10.06,60,0.191,8.27
10.6862,-0.15184,0.01920,1.57429,0.00000,0.00000,0.00000,55,5,45,-8,54,2,81,4,ok,2,0,0.003,11,0.26,-1.83,9.94,61,0.000,8.27
10.6987,-0.15184,0.01920,1.57429,0.00000,0.00000,0.00000,55,6,43,-8,55,1,80,3,ok,2,0,0.003,11,0.26,-1.83,9.94,61,0.013,8.27
10.7189,-0.15184,0.01920,1.57429,0.00000,0.00000,0.00000,57,6,40,-9,56,1,79,-1,ok,2,0,0.003,11,0.26,-1.83,9.94,61,0.025,8.27
10.7237,-0.15184,0.01920,1.57429,0.00000,0.00000,0.00000,58,6,38,-7,57,1,79,-2,ok,2,0,0.003,11,0.26,-1.83,9.94,61,0.038,8.27
10.7361,-0.15184,0.01920,1.57429,0.00000,0.00000,0.00000,59,7,35,-6,58,1,77,-4,ok,2,0,0.003,11,0.26,-1.83,9.94,61,0.050,8.27
10.7589,-0.15184,0.01920,1.57429,0.00000,0.00000,0.00000,59,8,32,-5,58,2,76,-6,ok,2,0,0.003,11,0.26,-1.83,9.94,61,0.063,8.27
10.7620,-0.15184,0.01920,1.57429,0.00000,0.00000,0.00000,60,8,28,-4,59,2,73,-6,ok,2,0,0.003,11,0.26,-1.83,9.94,61,0.076,8.27
10.7748,-0.15184,0.01920,1.57429,0.00000,0.00000,0.00000,61,9,26,-3,60,2,72,-8,ok,2,0,0.003,11,0.26,-1.83,9.94,61,0.089,8.27
10.7949,-0.15184,0.01920,1.57429,0.00000,0.00000,0.00000,62,10,21,-1,61,1,70,-10,ok,2,0,0.003,11,0.26,-1.83,9.94,61,0.101,8.27
10.7997,-0.15184,0.01920,1.57429,0.00000,0.00000,0.00000,63,10,20,1,64,-1,68,-11,ok,2,0,0.003,11,0.26,-1.83,9.94,61,0.114,8.27
10.8122,-0.15184,0.01920,1.57429,0.00000,0.00000,0.00000,63,10,18,2,64,0,65,-13,ok,2,0,0.003,11,0.26,-1.83,9.94,61,0.126,8.27
10.8349,-0.15184,0.01920,1.57429,0.00000,0.00000,0.00000,64,11,16,4,65,1,64,-13,ok,2,0,0.003,11,0.26,-1.83,9.94,61,0.139,8.27
10.8380,-0.15184,0.01920,1.57429,0.00000,0.00000,0.00000,64,12,14,7,65,1,61,-13,ok,2,0,0.003,11,0.26,-1.83,9.94,61,0.152,8.27
10.8509,-0.15184,0.01920,1.57429,0.00000,0.00000,0.00000,64,13,12,11,66,1,59,-14,ok,2,0,0.003,11,0.26,-1.83,9.94,61,0.165,8.27
10.8709,-0.15184,0.01920,1.57429,0.00000,0.00000,0.00000,65,14,10,13,67,1,56,-12,ok,2,0,0.003,11,0.26,-1.83,9.94,61,0.177,8.27
10.8757,-0.15184,0.01920,1.57429,0.00000,0.00000,0.00000,65,15,12,13,67,1,53,-12,ok,2,0,0.003,11,0.26,-1.83,9.94,61,0.190,8.27
10.8884,-0.04712,-0.02443,1.62839,0.00000,0.00000,0.00000,66,16,12,13,68,2,51,-11,ok,2,0,0.003,11,0.13,-0.58,10.42,62,0.000,8.27
10.9109,-0.04712,-0.02443,1.62839,0.00000,0.00000,0.00000,67,16,13,12,68,2,48,-11,ok,2,0,0.003,11,0.13,-0.58,10.42,62,0.013,8.27
10.9140,-0.04712,-0.02443,1.62839,0.00000,0.00000,0.00000,67,17,15,11,68,3,46,-10,ok,2,0,0.003,11,0.13,-0.58,10.42,62,0.026,8.27
10.9267,-0.04712,-0.02443,1.62839,0.00000,0.00000,0.00000,67,18,16,11,68,4,42,-9,ok,2,0,0.003,11,0.13,-0.58,10.42,62,0.038,8.27
10.9469,-0.04712,-0.02443,1.62839,0.00000,0.00000,0.00000,68,19,17,9,69,4,40,-8,ok,2,0,0.003,11,0.13,-0.58,10.42,62,0.051,8.27
10.9518,-0.04712,-0.02443,1.62839,0.00000,0.00000,0.00000,68,20,18,9,69,5,36,-6,ok,2,0,0.003,11,0.13,-0.58,10.42,62,0.063,8.27
10.9641,-0.04712,-0.02443,1.62839,0.00000,0.00000,0.00000,69,21,20,8,70,6,35,-5,ok,2,0,0.003,11,0.13,-0.58,10.42,62,0.076,8.27
10.9869,-0.04712,-0.02443,1.62839,0.00000,0.00000,0.00000,69,22,21,7,70,7,32,-3,ok,2,0,0.003,11,0.13,-0.58,10.42,62,0.088,8.27
10.9900,-0.04712,-0.02443,1.62839,0.00000,0.00000,0.00000,68,23,22,7,70,8,30,0,ok,2,0,0.003,11,0.13,-0.58,10.42,62,0.102,8.27
11.0026,-0.04712,-0.02443,1.62839,0.00000,0.00000,0.00000,68,24,23,6,71,8,29,2,ok,2,0,0.003,11,0.13,-0.58,10.42,62,0.115,8.27
11.0229,-0.04712,-0.02443,1.62839,0.00000,0.00000,0.00000,68,25,24,6,71,9,28,6,ok,2,0,0.003,11,0.13,-0.58,10.42,62,0.127,8.27
11.0277,-0.04712,-0.02443,1.62839,0.00000,0.00000,0.00000,67,28,25,5,71,11,27,8,ok,2,0,0.003,11,0.13,-0.58,10.42,62,0.140,8.27
11.0401,-0.04712,-0.02443,1.62839,0.00000,0.00000,0.00000,66,29,27,4,70,12,29,7,ok,2,0,0.003,11,0.13,-0.58,10.42,62,0.152,8.27
11.0629,-0.04712,-0.02443,1.62839,0.00000,0.00000,0.00000,68,28,28,4,71,13,30,6,ok,2,0,0.003,11,0.13,-0.58,10.42,62,0.165,8.27
11.0660,-0.04712,-0.02443,1.62839,0.00000,0.00000,0.00000,70,25,29,4,71,15,31,4,ok,2,0,0.003,11,0.13,-0.58,10.42,62,0.178,8.27
11.0789,-0.04712,-0.02443,1.62839,0.00000,0.00000,0.00000,72,21,31,3,71,16,32,3,ok,2,0,0.003,11,0.13,-0.58,10.42,62,0.190,8.27
11.0989,0.01920,0.05061,1.71391,0.00000,0.00000,0.00000,73,17,32,3,71,18,34,3,ok,2,0,0.003,11,1.82,0.03,10.37,63,0.000,8.27
11.1038,0.01920,0.05061,1.71391,0.00000,0.00000,0.00000,73,15,33,2,71,19,35,2,ok,2,0,0.003,11,1.82,0.03,10.37,63,0.012,8.27
11.1161,0.01920,0.05061,1.71391,0.00000,0.00000,0.00000,73,14,35,2,70,22,36,1,ok,2,0,0.003,11,1.82,0.03,10.37,63,0.025,8.27
11.1389,0.01920,0.05061,1.71391,0.00000,0.00000,0.00000,73,11,36,2,70,23,38,1,ok,2,0,0.003,11,1.82,0.03,10.37,63,0.037,8.27
11.1419,0.01920,0.05061,1.71391,0.00000,0.00000,0.00000,72,8,37,2,71,24,39,2,ok,2,0,0.003,11,1.82,0.03,10.37,63,0.051,8.27
11.1547,0.01920,0.05061,1.71391,0.00000,0.00000,0.00000,72,5,38,2,71,26,41,2,ok,2,0,0.003,11,1.82,0.03,10.37,63,0.064,8.27
11.1749,0.01920,0.05061,1.71391,0.00000,0.00000,0.00000,71,2,40,2,70,28,42,2,ok,2,0,0.003,11,1.82,0.03,10.37,63,0.076,8.27
11.1796,0.01920,0.05061,1.71391,0.00000,0.00000,0.00000,70,0,41,2,70,29,43,2,ok,2,0,0.003,11,1.82,0.03,10.37,63,0.088,8.27
11.1921,0.01920,0.05061,1.71391,0.00000,0.00000,0.00000,68,-3,43,2,70,30,44,1,ok,2,0,0.003,11,1.82,0.03,10.37,63,0.101,8.27
11.2149,0.01920,0.05061,1.71391,0.00000,0.00000,0.00000,66,-4,43,2,71,29,45,1,ok,2,0,0.003,11,1.82,0.03,10.37,63,0.114,8.27
11.2179,0.01920,0.05061,1.71391,0.00000,0.00000,0.00000,65,-6,45,3,73,27,47,1,ok,2,0,0.003,11,1.82,0.03,10.37,63,0.127,8.27
11.2309,0.01920,0.05061,1.71391,0.00000,0.00000,0.00000,64,-8,46,3,75,22,48,1,ok,2,0,0.003,11,1.82,0.03,10.37,63,0.139,8.27
11.2509,0.01920,0.05061,1.71391,0.00000,0.00000,0.00000,62,-9,47,4,76,18,49,1,ok,2,0,0.003,11,1.82,0.03,10.37,63,0.152,8.27
11.2557,0.01920,0.05061,1.71391,0.00000,0.00000,0.00000,60,-10,49,3,78,15,50,1,ok,2,0,0.003,11,1.82,0.03,10.37,63,0.164,8.27
11.2681,0.01920,0.05061,1.71391,0.00000,0.00000,0.00000,58,-10,49,3,78,14,50,1,ok,2,0,0.003,11,1.82,0.03,10.37,63,0.177,8.27
11.2909,0.08727,-0.01396,1.70170,0.00000,0.00000,0.00000,55,-11,49,5,78,12,52,1,ok,2,0,0.003,11,-0.59,0.84,10.08,64,0.000,8.27
11.2939,0.08727,-0.01396,1.70170,0.00000,0.00000,0.00000,53,-11,51,6,78,9,53,1,ok,2,0,0.003,11,-0.59,0.84,10.08,64,0.013,8.27
11.3068,0.08727,-0.01396,1.70170,0.00000,0.00000,0.00000,50,-11,52,6,78,5,54,1,ok,2,0,0.003,11,-0.59,0.84,10.08,64,0.026,8.27
11.3269,0.08727,-0.01396,1.70170,0.00000,0.00000,0.00000,48,-10,53,6,77,3,55,0,ok,2,0,0.003,11,-0.59,0.84,10.08,64,0.039,8.27
11.3317,0.08727,-0.01396,1.70170,0.00000,0.00000,0.00000,45,-11,53,7,76,0,55,1,ok,2,0,0.003,11,-0.59,0.84,10.08,64,0.051,8.27
11.3441,0.08727,-0.01396,1.70170,0.00000,0.00000,0.00000,43,-11,55,8,76,-2,56,0,ok,2,0,0.003,11,-0.59,0.84,10.08,64,0.064,8.27
11.3669,0.08727,-0.01396,1.70170,0.00000,0.00000,0.00000,40,-10,55,7,75,-4,57,1,ok,2,0,0.003,11,-0.59,0.84,10.08,64,0.076,8.27
11.3701,0.08727,-0.01396,1.70170,0.00000,0.00000,0.00000,37,-9,56,8,73,-7,58,-1,ok,2,0,0.003,11,-0.59,0.84,10.08,64,0.089,8.27
11.3827,0.08727,-0.01396,1.70170,0.00000,0.00000,0.00000,35,-7,57,9,70,-7,58,0,ok,2,0,0.003,11,-0.59,0.84,10.08,64,0.102,8.27
11.4029,0.08727,-0.01396,1.70170,0.00000,0.00000,0.00000,31,-6,57,9,69,-9,59,1,ok,2,0,0.003,11,-0.59,0.84,10.08,64,0.115,8.27
11.4077,0.08727,-0.01396,1.70170,0.00000,0.00000,0.00000,29,-4,58,10,68,-10,60,1,ok,2,0,0.003,11,-0.59,0.84,10.08,64,0.127,8.27
11.4201,0.08727,-0.01396,1.70170,0.00000,0.00000,0.00000,25,-1,59,11,65,-12,61,1,ok,2,0,0.003,11,-0.59,0.84,10.08,64,0.140,8.27
11.4429,0.08727,-0.01396,1.70170,0.00000,0.00000,0.00000,23,-1,60,11,63,-12,62,0,ok,2,0,0.003,11,-0.59,0.84,10.08,64,0.152,8.27
11.4462,0.08727,-0.01396,1.70170,0.00000,0.00000,0.00000,21,1,61,12,61,-13,64,-2,ok,2,0,0.003,11,-0.59,0.84,10.08,64,0.165,8.27
11.4587,0.08727,-0.01396,1.70170,0.00000,0.00000,0.00000,19,3,61,13,59,-13,64,-1,ok,2,0,0.003,11,-0.59,0.84,10.08,64,0.178,8.27
11.4789,0.08727,-0.01396,1.70170,0.00000,0.00000,0.00000,17,7,62,13,57,-14,65,-1,ok,2,0,0.003,11,-0.59,0.84,10.08,64,0.191,8.27
11.4839,0.02269,-0.03142,1.73311,0.00000,0.00000,0.00000,15,10,62,15,54,-13,66,0,ok,2,0,0.003,11,0.95,0.56,11.22,65,0.000,8.27
11.4961,0.02269,-0.03142,1.73311,0.00000,0.00000,0.00000,13,13,63,15,51,-12,66,0,ok,2,0,0.003,11,0.95,0.56,11.22,65,0.013,8.27
11.5189,0.02269,-0.03142,1.73311,0.00000,0.00000,0.00000,15,13,63,16,49,-12,67,1,ok,2,0,0.003,11,0.95,0.56,11.22,65,0.025,8.27
11.5220,0.02269,-0.03142,1.73311,0.00000,0.00000,0.00000,15,13,63,17,46,-11,68,0,ok,2,0,0.003,11,0.95,0.56,11.22,65,0.038,8.27
11.5349,0.02269,-0.03142,1.73311,0.00000,0.00000,0.00000,16,12,64,18,44,-11,69,1,ok,2,0,0.003,11,0.95,0.56,11.22,65,0.051,8.27
11.5549,0.02269,-0.03142,1.73311,0.00000,0.00000,0.00000,18,12,64,19,40,-9,70,1,ok,2,0,0.003,11,0.95,0.56,11.22,65,0.064,8.27
11.5597,0.02269,-0.03142,1.73311,0.00000,0.00000,0.00000,18,11,65,19,38,-9,70,2,ok,2,0,0.003,11,0.95,0.56,11.22,65,0.076,8.27
11.5722,0.02269,-0.03142,1.73311,0.00000,0.00000,0.00000,20,10,65,20,34,-7,70,3,ok,2,0,0.003,11,0.95,0.56,11.22,65,0.089,8.27
11.5949,0.02269,-0.03142,1.73311,0.00000,0.00000,0.00000,21,10,65,21,33,-6,71,4,ok,2,0,0.003,11,0.95,0.56,11.22,65,0.101,8.27
11.5980,0.02269,-0.03142,1.73311,0.00000,0.00000,0.00000,23,8,65,22,31,-5,71,5,ok,2,0,0.003,11,0.95,0.56,11.22,65,0.114,8.27
11.6109,0.02269,-0.03142,1.73311,0.00000,0.00000,0.00000,24,8,65,23,28,-1,72,5,ok,2,0,0.003,11,0.95,0.56,11.22,65,0.127,8.27
11.6309,0.02269,-0.03142,1.73311,0.00000,0.00000,0.00000,25,7,65,23,27,1,72,7,ok,2,0,0.003,11,0.95,0.56,11.22,65,0.140,8.27
11.6357,0.02269,-0.03142,1.73311,0.00000,0.00000,0.00000,27,6,65,25,26,4,72,8,ok,2,0,0.003,11,0.95,0.56,11.22,65,0.152,8.27
11.6481,0.02269,-0.03142,1.73311,0.00000,0.00000,0.00000,28,6,64,25,25,7,73,9,ok,2,0,0.003,11,0.95,0.56,11.22,65,0.165,8.27
11.6709,0.02269,-0.03142,1.73311,0.00000,0.00000,0.00000,29,6,64,28,27,6,73,10,ok,2,0,0.003,11,0.95,0.56,11.22,65,0.177,8.27
11.6740,0.02269,-0.03142,1.73311,0.00000,0.00000,0.00000,30,5,63,29,28,6,73,12,ok,2,0,0.003,11,0.95,0.56,11.22,65,0.190,8.27
11.6870,-0.00873,0.03665,1.70170,0.00000,0.00000,0.00000,31,4,64,28,29,4,73,13,ok,2,0,0.003,12,0.55,1.08,10.14,66,0.000,8.27
11.7069,-0.00873,0.03665,1.70170,0.00000,0.00000,0.00000,33,3,67,25,30,3,73,15,ok,2,0,0.003,12,0.55,1.08,10.14,66,0.013,8.27
11.7117,-0.00873,0.03665,1.70170,0.00000,0.00000,0.00000,34,3,69,21,31,3,74,16,ok,2,0,0.003,12,0.55,1.08,10.14,66,0.025,8.27
11.7241,-0.00873,0.03665,1.70170,0.00000,0.00000,0.00000,36,2,70,18,32,3,73,18,ok,2,0,0.003,12,0.55,1.08,10.14,66,0.038,8.27
11.7469,-0.00873,0.03665,1.70170,0.00000,0.00000,0.00000,37,2,70,15,34,2,73,20,ok,2,0,0.003,12,0.55,1.08,10.14,66,0.050,8.27
11.7500,-0.00873,0.03665,1.70170,0.00000,0.00000,0.00000,39,1,70,15,36,2,74,21,ok,2,0,0.003,12,0.55,1.08,10.14,66,0.063,8.27
11.7627,-0.00873,0.03665,1.70170,0.00000,0.00000,0.00000,40,1,70,11,36,2,73,23,ok,2,0,0.003,12,0.55,1.08,10.14,66,0.076,8.27
11.7829,-0.00873,0.03665,1.70170,0.00000,0.00000,0.00000,41,1,70,9,38,2,73,24,ok,2,0,0.003,12,0.55,1.08,10.14,66,0.089,8.27
11.7877,-0.00873,0.03665,1.70170,0.00000,0.00000,0.00000,42,1,69,6,40,2,73,25,ok,2,0,0.003,12,0.55,1.08,10.14,66,0.101,8.27
11.8001,-0.00873,0.03665,1.70170,0.00000,0.00000,0.00000,44,1,69,3,40,2,73,27,ok,2,0,0.003,12,0.55,1.08,10.14,66,0.114,8.27
11.8229,-0.00873,0.03665,1.70170,0.00000,0.00000,0.00000,45,0,68,1,42,2,73,28,ok,2,0,0.003,12,0.55,1.08,10.14,66,0.126,8.27
11.8261,-0.00873,0.03665,1.70170,0.00000,0.00000,0.00000,47,0,67,0,43,2,72,29,ok,2,0,0.003,12,0.55,1.08,10.14,66,0.139,8.27
11.8387,-0.00873,0.03665,1.70170,0.00000,0.00000,0.00000,47,0,65,-1,44,0,73,30,ok,2,0,0.003,12,0.55,1.08,10.14,66,0.152,8.27
11.8589,-0.00873,0.03665,1.70170,0.00000,0.00000,0.00000,48,1,64,-4,46,1,74,29,ok,2,0,0.003,12,0.55,1.08,10.14,66,0.165,8.27
11.8637,-0.00873,0.03665,1.70170,0.00000,0.00000,0.00000,50,1,63,-6,47,1,76,27,ok,2,0,0.003,12,0.55,1.08,10.14,66,0.177,8.27
11.8762,-0.00873,0.03665,1.70170,0.00000,0.00000,0.00000,51,2,60,-7,48,1,78,21,ok,2,0,0.003,12,0.55,1.08,10.14,66,0.190,8.27
11.8989,-0.09076,0.01396,1.76976,0.00000,0.00000,0.00000,52,2,58,-8,48,1,79,18,ok,2,0,0.003,12,-0.35,-0.90,10.56,67,0.000,8.27
11.9021,-0.09076,0.01396,1.76976,0.00000,0.00000,0.00000,52,2,56,-8,50,1,81,14,ok,2,0,0.003,12,-0.35,-0.90,10.56,67,0.013,8.27
11.9147,-0.09076,0.01396,1.76976,0.00000,0.00000,0.00000,53,4,53,-9,51,0,81,14,ok,2,0,0.003,12,-0.35,-0.90,10.56,67,0.026,8.27
11.9349,-0.09076,0.01396,1.76976,0.00000,0.00000,0.00000,54,5,50,-9,52,1,81,11,ok,2,0,0.003,12,-0.35,-0.90,10.56,67,0.039,8.27
11.9397,-0.09076,0.01396,1.76976,0.00000,0.00000,0.00000,54,4,48,-9,53,1,81,8,ok,2,0,0.003,12,-0.35,-0.90,10.56,67,0.051,8.27
11.9523,-0.09076,0.01396,1.76976,0.00000,0.00000,0.00000,55,5,45,-8,54,2,81,4,ok,2,0,0.003,12,-0.35,-0.90,10.56,67,0.064,8.27
11.9749,-0.09076,0.01396,1.76976,0.00000,0.00000,0.00000,55,6,43,-8,55,1,80,3,ok,2,0,0.003,12,-0.35,-0.90,10.56,67,0.076,8.27
11.9780,-0.09076,0.01396,1.76976,0.00000,0.00000,0.00000,57,6,40,-9,56,2,79,-1,ok,2,0,0.003,12,-0.35,-0.90,10.56,67,0.089,8.27
11.9907,-0.09076,0.01396,1.76976,0.00000,0.00000,0.00000,58,6,38,-8,57,1,79,-3,ok,2,0,0.003,12,-0.35,-0.90,10.56,67,0.102,8.27
12.0109,-0.09076,0.01396,1.76976,0.00000,0.00000,0.00000,59,7,35,-7,58,2,77,-4,ok,2,0,0.003,12,-0.35,-0.90,10.56,67,0.114,8.27
12.0156,-0.09076,0.01396,1.76976,0.00000,0.00000,0.00000,59,8,32,-5,58,2,75,-6,ok,2,0,0.003,12,-0.35,-0.90,10.56,67,0.127,8.27
12.0281,-0.09076,0.01396,1.76976,0.00000,0.00000,0.00000,60,8,28,-5,59,2,72,-6,ok,2,0,0.003,12,-0.35,-0.90,10.56,67,0.140,8.27
12.0509,-0.09076,0.01396,1.76976,0.00000,0.00000,0.00000,61,9,25,-3,60,2,71,-8,ok,2,0,0.003,12,-0.35,-0.90,10.56,67,0.152,8.27
12.0540,-0.09076,0.01396,1.76976,0.00000,0.00000,0.00000,63,10,21,-1,61,1,70,-10,ok,2,0,0.003,12,-0.35,-0.90,10.56,67,0.165,8.27
12.0667,-0.09076,0.01396,1.76976,0.00000,0.00000,0.00000,63,10,19,0,64,-1,68,-11,ok,2,0,0.003,12,-0.35,-0.90,10.56,67,0.178,8.27
12.0869,-0.09076,0.01396,1.76976,0.00000,0.00000,0.00000,64,11,18,2,64,0,66,-12,ok,2,0,0.003,12,-0.35,-0.90,10.56,67,0.191,8.27
12.0918,-0.09076,0.01396,1.76976,0.00000,0.00000,0.00000,64,12,16,4,65,1,64,-13,ok,2,0,0.003,12,-0.35,-0.90,10.56,67,0.203,8.27
12.1044,-0.08552,0.00873,1.80118,0.00000,0.00000,0.00000,65,12,14,7,65,1,61,-13,ok,2,0,0.003,12,-0.20,0.29,10.57,68,0.000,8.27
12.1269,-0.08552,0.00873,1.80118,0.00000,0.00000,0.00000,65,14,12,11,66,1,59,-14,ok,2,0,0.003,12,-0.20,0.29,10.57,68,0.013,8.27
12.1303,-0.08552,0.00873,1.80118,0.00000,0.00000,0.00000,66,14,10,13,66,1,56,-12,ok,2,0,0.003,12,-0.20,0.29,10.57,68,0.026,8.27
12.1428,-0.08552,0.00873,1.80118,0.00000,0.00000,0.00000,66,15,12,13,67,1,54,-12,ok,2,0,0.003,12,-0.20,0.29,10.57,68,0.039,8.27
12.1629,-0.08552,0.00873,1.80118,0.00000,0.00000,0.00000,66,16,12,13,68,2,51,-11,ok,2,0,0.003,12,-0.20,0.29,10.57,68,0.051,8.27
12.1677,-0.08552,0.00873,1.80118,0.00000,0.00000,0.00000,67,17,13,12,68,2,48,-10,ok,2,0,0.003,12,-0.20,0.29,10.57,68,0.064,8.27
12.1802,-0.08552,0.00873,1.80118,0.00000,0.00000,0.00000,67,18,15,11,68,3,46,-10,ok,2,0,0.003,12,-0.20,0.29,10.57,68,0.076,8.27
12.2029,-0.08552,0.00873,1.80118,0.00000,0.00000,0.00000,68,18,15,11,68,3,42,-9,ok,2,0,0.003,12,-0.20,0.29,10.57,68,0.089,8.27
12.2060,-0.08552,0.00873,1.80118,0.00000,0.00000,0.00000,68,19,17,9,69,4,40,-8,ok,2,0,0.003,12,-0.20,0.29,10.57,68,0.102,8.27
12.2189,-0.08552,0.00873,1.80118,0.00000,0.00000,0.00000,68,20,17,9,69,5,36,-6,ok,2,0,0.003,12,-0.20,0.29,10.57,68,0.114,8.27
