# run_gait log  cmd_fwd=0.100 hz=80.0 fw_balance=off policy_yaw_sign=-1
t,roll,pitch,yaw,gx,gy,gz,j0,j1,j2,j3,j4,j5,j6,j7,guard_state,hottest_j,hottest_tier,hottest_frac,duty_s,ax,ay,az,imu_n,imu_age_s,volt
0.0308,-0.01571,0.01047,0.00000,0.00000,0.00000,0.00000,21,-1,59,7,66,-12,61,0,ok,4,0,0.000,0,0.10,-0.10,9.99,8,0.021,nan
0.0343,-0.01571,0.01047,0.00000,0.00000,0.00000,0.00000,19,0,61,8,64,-12,63,-1,ok,4,0,0.000,0,0.10,-0.10,9.99,8,0.043,nan
0.0474,-0.01571,0.01047,0.00000,0.00000,0.00000,0.00000,17,2,61,9,61,-13,64,0,ok,4,0,0.000,0,0.10,-0.10,9.99,8,0.055,8.14
0.0668,-0.01047,0.01047,0.00000,0.00000,0.00000,0.00000,15,6,62,9,59,-13,64,0,ok,4,0,0.000,0,0.13,-0.08,10.01,9,0.000,8.14
0.0717,-0.01047,0.01047,0.00000,0.00000,0.00000,0.00000,13,9,62,11,56,-13,65,1,ok,4,0,0.000,0,0.13,-0.08,10.01,9,0.012,8.14
0.0842,-0.01047,0.01047,0.00000,0.00000,0.00000,0.00000,11,11,63,11,53,-12,65,1,ok,4,0,0.000,0,0.13,-0.08,10.01,9,0.025,8.14
0.1068,-0.01047,0.01047,0.00000,0.00000,0.00000,0.00000,13,12,63,12,51,-12,66,2,ok,4,0,0.000,0,0.13,-0.08,10.01,9,0.038,8.14
0.1101,-0.01047,0.01047,0.00000,0.00000,0.00000,0.00000,13,11,63,13,48,-12,66,2,ok,4,0,0.000,0,0.13,-0.08,10.01,9,0.051,8.14
0.1226,-0.01047,0.01047,0.00000,0.00000,0.00000,0.00000,14,10,64,14,45,-12,66,3,ok,4,0,0.000,0,0.13,-0.08,10.01,9,0.063,8.14
0.1428,-0.01047,0.01047,0.00000,0.00000,0.00000,0.00000,15,9,64,15,42,-11,67,3,ok,4,0,0.000,0,0.13,-0.08,10.01,9,0.076,8.14
0.1476,-0.01047,0.01047,0.00000,0.00000,0.00000,0.00000,16,9,65,15,39,-10,68,4,ok,4,0,0.000,0,0.13,-0.08,10.01,9,0.088,8.14
0.1601,-0.01047,0.01047,0.00000,0.00000,0.00000,0.00000,18,8,65,16,36,-8,68,4,ok,4,0,0.000,0,0.13,-0.08,10.01,9,0.101,8.14
0.1828,-0.01047,0.01047,0.00000,0.00000,0.00000,0.00000,18,7,65,17,34,-7,69,5,ok,4,0,0.000,0,0.13,-0.08,10.01,9,0.113,8.14
0.1859,-0.01047,0.01047,0.00000,0.00000,0.00000,0.00000,21,6,66,18,32,-6,69,6,ok,4,0,0.000,0,0.13,-0.08,10.01,9,0.127,8.14
0.1985,-0.01047,0.01047,0.00000,0.00000,0.00000,0.00000,22,6,66,19,30,-2,70,6,ok,4,0,0.000,0,0.13,-0.08,10.01,9,0.139,8.14
0.2188,-0.01047,0.01047,0.00000,0.00000,0.00000,0.00000,23,5,66,21,28,0,70,8,ok,4,0,0.000,0,0.13,-0.08,10.01,9,0.152,8.14
0.2237,-0.01047,0.01047,0.00000,0.00000,0.00000,0.00000,24,5,66,22,27,4,70,9,ok,4,0,0.000,0,0.13,-0.08,10.01,9,0.164,8.14
0.2360,-0.01047,0.01047,0.00000,0.00000,0.00000,0.00000,26,4,65,23,27,6,71,9,ok,4,0,0.000,0,0.13,-0.08,10.01,9,0.177,8.14
0.2588,-0.01047,0.01047,0.00000,0.00000,0.00000,0.00000,27,4,65,26,29,6,71,10,ok,4,0,0.000,0,0.13,-0.08,10.01,9,0.189,8.14
0.2621,-0.05411,-0.11868,0.01222,0.00000,0.00000,0.00000,28,3,64,28,29,6,72,11,ok,4,0,0.000,0,-1.10,-1.01,10.15,10,0.000,8.14
0.2746,-0.05411,-0.11868,0.01222,0.00000,0.00000,0.00000,29,3,66,26,30,3,72,12,ok,4,0,0.000,0,-1.10,-1.01,10.15,10,0.013,8.14
0.2947,-0.05411,-0.11868,0.01222,0.00000,0.00000,0.00000,30,2,69,24,31,3,73,13,ok,4,0,0.000,0,-1.10,-1.01,10.15,10,0.025,8.14
0.2996,-0.05411,-0.11868,0.01222,0.00000,0.00000,0.00000,31,1,72,21,32,3,73,14,ok,4,0,0.000,0,-1.10,-1.01,10.15,10,0.038,8.14
0.3120,-0.05411,-0.11868,0.01222,0.00000,0.00000,0.00000,32,0,73,17,33,3,73,16,ok,4,0,0.000,0,-1.10,-1.01,10.15,10,0.050,8.14
0.3348,-0.05411,-0.11868,0.01222,0.00000,0.00000,0.00000,33,0,74,15,35,1,73,18,ok,4,0,0.000,0,-1.10,-1.01,10.15,10,0.063,8.14
0.3380,-0.05411,-0.11868,0.01222,0.00000,0.00000,0.00000,34,-1,74,15,37,2,74,19,ok,4,0,0.000,0,-1.10,-1.01,10.15,10,0.076,8.14
0.3506,-0.05411,-0.11868,0.01222,0.00000,0.00000,0.00000,36,-1,74,12,37,1,73,21,ok,4,0,0.000,0,-1.10,-1.01,10.15,10,0.089,8.14
0.3707,-0.05411,-0.11868,0.01222,0.00000,0.00000,0.00000,37,-1,73,9,39,2,72,22,ok,4,0,0.000,0,-1.10,-1.01,10.15,10,0.101,8.14
0.3755,-0.05411,-0.11868,0.01222,0.00000,0.00000,0.00000,38,-1,73,6,40,1,73,23,ok,4,0,0.000,0,-1.10,-1.01,10.15,10,0.114,8.14
0.3882,-0.05411,-0.11868,0.01222,0.00000,0.00000,0.00000,39,-2,72,3,41,1,72,25,ok,4,0,0.000,0,-1.10,-1.01,10.15,10,0.126,8.14
0.4107,-0.05411,-0.11868,0.01222,0.00000,0.00000,0.00000,40,-2,71,1,42,0,72,26,ok,4,0,0.000,0,-1.10,-1.01,10.15,10,0.139,8.14
0.4138,-0.05411,-0.11868,0.01222,0.00000,0.00000,0.00000,42,-2,69,0,43,-1,71,28,ok,4,0,0.000,0,-1.10,-1.01,10.15,10,0.152,8.14
0.4266,-0.05411,-0.11868,0.01222,0.00000,0.00000,0.00000,42,-2,67,-2,44,-2,72,28,ok,4,0,0.000,0,-1.10,-1.01,10.15,10,0.165,8.14
0.4468,-0.05411,-0.11868,0.01222,0.00000,0.00000,0.00000,44,-1,66,-4,46,-2,73,27,ok,4,0,0.000,0,-1.10,-1.01,10.15,10,0.177,8.14
0.4519,-0.09250,0.01222,0.06458,0.00000,0.00000,0.00000,45,-1,65,-6,47,-2,75,25,ok,4,0,0.000,0,-0.79,0.32,8.94,11,0.000,8.14
0.4642,-0.09250,0.01222,0.06458,0.00000,0.00000,0.00000,47,1,63,-7,48,-2,76,20,ok,4,0,0.000,0,-0.79,0.32,8.94,11,0.013,8.14
0.4868,-0.09250,0.01222,0.06458,0.00000,0.00000,0.00000,48,0,60,-9,49,-2,77,17,ok,4,0,0.000,0,-0.79,0.32,8.94,11,0.025,8.14
0.4898,-0.09250,0.01222,0.06458,0.00000,0.00000,0.00000,49,1,57,-9,51,-1,79,14,ok,4,0,0.000,0,-0.79,0.32,8.94,11,0.038,8.14
0.5027,-0.09250,0.01222,0.06458,0.00000,0.00000,0.00000,49,3,55,-10,52,-1,79,14,ok,4,0,0.000,0,-0.79,0.32,8.94,11,0.051,8.14
0.5227,-0.09250,0.01222,0.06458,0.00000,0.00000,0.00000,51,4,51,-10,53,0,79,11,ok,4,0,0.000,1,-0.79,0.32,8.94,11,0.064,8.14
0.5275,-0.09250,0.01222,0.06458,0.00000,0.00000,0.00000,52,4,49,-10,55,0,79,7,ok,4,0,0.000,1,-0.79,0.32,8.94,11,0.076,8.14
0.5400,-0.09250,0.01222,0.06458,0.00000,0.00000,0.00000,53,5,46,-10,56,1,79,4,ok,4,0,0.000,1,-0.79,0.32,8.94,11,0.089,8.14
0.5628,-0.09250,0.01222,0.06458,0.00000,0.00000,0.00000,53,6,43,-10,57,0,78,2,ok,4,0,0.000,1,-0.79,0.32,8.94,11,0.101,8.14
0.5660,-0.09250,0.01222,0.06458,0.00000,0.00000,0.00000,55,6,41,-11,58,1,77,-1,ok,4,0,0.000,1,-0.79,0.32,8.94,11,0.114,8.14
0.5786,-0.09250,0.01222,0.06458,0.00000,0.00000,0.00000,55,6,39,-9,59,1,77,-3,ok,4,0,0.000,1,-0.79,0.32,8.94,11,0.127,8.14
0.5988,-0.09250,0.01222,0.06458,0.00000,0.00000,0.00000,57,6,36,-8,59,1,76,-4,ok,4,0,0.000,1,-0.79,0.32,8.94,11,0.140,8.14
0.6036,-0.09250,0.01222,0.06458,0.00000,0.00000,0.00000,57,7,33,-7,60,2,74,-6,ok,4,0,0.000,1,-0.79,0.32,8.94,11,0.152,8.14
0.6160,-0.09250,0.01222,0.06458,0.00000,0.00000,0.00000,58,7,29,-6,60,1,72,-7,ok,2,0,0.000,1,-0.79,0.32,8.94,11,0.165,8.14
0.6388,-0.09250,0.01222,0.06458,0.00000,0.00000,0.00000,59,8,27,-4,61,1,70,-8,ok,2,0,0.000,1,-0.79,0.32,8.94,11,0.177,8.14
0.6418,-0.09250,0.01222,0.06458,0.00000,0.00000,0.00000,60,10,22,-2,62,1,69,-10,ok,2,0,0.000,1,-0.79,0.32,8.94,11,0.190,8.14
0.6547,-0.09250,0.01222,0.06458,0.00000,0.00000,0.00000,60,10,20,-1,64,-1,67,-11,ok,2,0,0.000,1,-0.79,0.32,8.94,11,0.203,8.14
0.6748,-0.04189,0.04189,0.09599,0.00000,0.00000,0.00000,61,10,19,0,65,0,65,-13,ok,2,0,0.000,1,-0.26,0.14,9.83,12,0.000,8.14
0.6796,-0.04189,0.04189,0.09599,0.00000,0.00000,0.00000,61,11,17,3,66,1,63,-13,ok,2,0,0.000,1,-0.26,0.14,9.83,12,0.012,8.14
0.6920,-0.04189,0.04189,0.09599,0.00000,0.00000,0.00000,62,12,15,6,67,0,60,-14,ok,2,0,0.000,1,-0.26,0.14,9.83,12,0.025,8.14
0.7148,-0.04189,0.04189,0.09599,0.00000,0.00000,0.00000,62,13,13,10,67,1,58,-14,ok,2,0,0.000,1,-0.26,0.14,9.83,12,0.037,8.14
0.7179,-0.04189,0.04189,0.09599,0.00000,0.00000,0.00000,62,14,11,12,68,1,55,-13,ok,2,0,0.000,1,-0.26,0.14,9.83,12,0.051,8.14
0.7305,-0.04189,0.04189,0.09599,0.00000,0.00000,0.00000,63,15,13,13,68,1,53,-13,ok,2,0,0.000,1,-0.26,0.14,9.83,12,0.063,8.14
0.7508,-0.04189,0.04189,0.09599,0.00000,0.00000,0.00000,63,16,12,13,69,1,50,-12,ok,2,0,0.000,1,-0.26,0.14,9.83,12,0.076,8.14
0.7557,-0.04189,0.04189,0.09599,0.00000,0.00000,0.00000,64,16,14,11,69,2,47,-11,ok,2,0,0.000,1,-0.26,0.14,9.83,12,0.088,8.14
0.7680,-0.04189,0.04189,0.09599,0.00000,0.00000,0.00000,64,18,15,10,70,2,45,-10,ok,2,0,0.000,1,-0.26,0.14,9.83,12,0.101,8.14
0.7908,-0.04189,0.04189,0.09599,0.00000,0.00000,0.00000,65,18,16,10,70,3,41,-9,ok,2,0,0.000,1,-0.26,0.14,9.83,12,0.113,8.14
0.7938,-0.04189,0.04189,0.09599,0.00000,0.00000,0.00000,66,18,17,9,70,3,39,-8,ok,2,0,0.000,1,-0.26,0.14,9.83,12,0.127,8.14
0.8066,-0.04189,0.04189,0.09599,0.00000,0.00000,0.00000,66,20,18,8,71,5,35,-7,ok,2,0,0.000,1,-0.26,0.14,9.83,12,0.139,8.14
0.8267,-0.04189,0.04189,0.09599,0.00000,0.00000,0.00000,67,21,20,7,72,5,34,-5,ok,2,0,0.000,1,-0.26,0.14,9.83,12,0.152,8.14
0.8318,-0.04189,0.04189,0.09599,0.00000,0.00000,0.00000,67,22,21,6,72,6,32,-4,ok,2,0,0.000,1,-0.26,0.14,9.83,12,0.164,8.14
0.8440,-0.04189,0.04189,0.09599,0.00000,0.00000,0.00000,66,23,22,6,71,8,30,-1,ok,2,0,0.000,1,-0.26,0.14,9.83,12,0.177,8.14
0.8668,0.05585,-0.03665,0.12392,0.00000,0.00000,0.00000,66,24,23,5,72,8,28,2,ok,2,0,0.000,1,-1.15,0.08,7.17,13,0.000,8.14
0.8698,0.05585,-0.03665,0.12392,0.00000,0.00000,0.00000,66,25,25,5,72,9,27,5,ok,2,0,0.000,1,-1.15,0.08,7.17,13,0.013,8.14
0.8825,0.05585,-0.03665,0.12392,0.00000,0.00000,0.00000,65,28,26,4,72,10,27,7,ok,2,0,0.000,1,-1.15,0.08,7.17,13,0.026,8.14
0.9027,0.05585,-0.03665,0.12392,0.00000,0.00000,0.00000,64,29,28,3,72,12,29,6,ok,2,0,0.000,1,-1.15,0.08,7.17,13,0.039,8.14
0.9075,0.05585,-0.03665,0.12392,0.00000,0.00000,0.00000,66,28,29,3,72,13,29,5,ok,2,0,0.000,1,-1.15,0.08,7.17,13,0.051,8.14
0.9202,0.05585,-0.03665,0.12392,0.00000,0.00000,0.00000,68,25,30,2,72,14,30,3,ok,2,0,0.000,1,-1.15,0.08,7.17,13,0.064,8.14
0.9428,0.05585,-0.03665,0.12392,0.00000,0.00000,0.00000,70,21,31,2,72,16,31,3,ok,2,0,0.000,1,-1.15,0.08,7.17,13,0.076,8.14
0.9458,0.05585,-0.03665,0.12392,0.00000,0.00000,0.00000,71,17,33,2,71,18,33,2,ok,2,0,0.000,1,-1.15,0.08,7.17,13,0.089,8.14
0.9586,0.05585,-0.03665,0.12392,0.00000,0.00000,0.00000,71,15,34,2,72,18,34,2,ok,2,0,0.000,1,-1.15,0.08,7.17,13,0.102,8.14
0.9787,0.05585,-0.03665,0.12392,0.00000,0.00000,0.00000,71,14,36,1,71,21,36,1,ok,2,0,0.000,1,-1.15,0.08,7.17,13,0.115,8.14
0.9836,0.05585,-0.03665,0.12392,0.00000,0.00000,0.00000,71,11,37,1,71,22,38,1,ok,2,0,0.000,1,-1.15,0.08,7.17,13,0.127,8.14
0.9962,0.05585,-0.03665,0.12392,0.00000,0.00000,0.00000,70,7,38,2,71,23,39,1,ok,2,0,0.000,1,-1.15,0.08,7.17,13,0.140,8.14
1.0187,0.05585,-0.03665,0.12392,0.00000,0.00000,0.00000,69,5,39,2,71,25,40,1,ok,2,0,0.000,1,-1.15,0.08,7.17,13,0.152,8.14
1.0218,0.05585,-0.03665,0.12392,0.00000,0.00000,0.00000,68,1,41,1,70,27,42,1,ok,2,0,0.000,1,-1.15,0.08,7.17,13,0.165,8.14
1.0346,0.05585,-0.03665,0.12392,0.00000,0.00000,0.00000,67,-1,42,1,70,28,43,1,ok,2,0,0.000,1,-1.15,0.08,7.17,13,0.178,8.14
1.0547,0.05585,-0.03665,0.12392,0.00000,0.00000,0.00000,66,-3,44,2,71,28,44,0,ok,2,0,0.000,1,-1.15,0.08,7.17,13,0.191,8.14
1.0597,0.05585,-0.03665,0.12392,0.00000,0.00000,0.00000,64,-4,44,2,72,28,45,0,ok,2,0,0.000,1,-1.15,0.08,7.17,13,0.203,8.14
1.0722,0.03142,0.00349,0.18151,0.00000,0.00000,0.00000,63,-6,46,2,74,26,46,0,ok,2,0,0.000,1,0.28,0.05,10.46,14,0.000,8.14
1.0948,0.03142,0.00349,0.18151,0.00000,0.00000,0.00000,62,-8,47,2,76,21,47,0,ok,2,0,0.000,1,0.28,0.05,10.46,14,0.012,8.14
1.0979,0.03142,0.00349,0.18151,0.00000,0.00000,0.00000,60,-9,48,3,77,17,48,0,ok,2,0,0.000,1,0.28,0.05,10.46,14,0.026,8.14
1.1106,0.03142,0.00349,0.18151,0.00000,0.00000,0.00000,57,-10,49,3,79,14,49,0,ok,2,0,0.000,1,0.28,0.05,10.46,14,0.039,8.14
1.1307,0.03142,0.00349,0.18151,0.00000,0.00000,0.00000,55,-11,50,3,79,13,50,0,ok,2,0,0.000,1,0.28,0.05,10.46,14,0.051,8.14
1.1356,0.03142,0.00349,0.18151,0.00000,0.00000,0.00000,53,-12,50,5,79,11,51,0,ok,2,0,0.000,1,0.28,0.05,10.46,14,0.064,8.14
1.1480,0.03142,0.00349,0.18151,0.00000,0.00000,0.00000,50,-11,52,6,79,7,52,0,ok,2,0,0.000,1,0.28,0.05,10.46,14,0.076,8.14
1.1708,0.03142,0.00349,0.18151,0.00000,0.00000,0.00000,48,-11,53,5,78,4,53,0,ok,2,0,0.000,1,0.28,0.05,10.46,14,0.089,8.14
1.1740,0.03142,0.00349,0.18151,0.00000,0.00000,0.00000,45,-11,53,6,77,2,54,0,ok,2,0,0.000,1,0.28,0.05,10.46,14,0.102,8.14
1.1865,0.03142,0.00349,0.18151,0.00000,0.00000,0.00000,43,-11,54,7,77,-1,54,0,ok,2,0,0.000,1,0.28,0.05,10.46,14,0.115,8.14
1.2067,0.03142,0.00349,0.18151,0.00000,0.00000,0.00000,41,-11,56,7,76,-3,55,-1,ok,2,0,0.000,1,0.28,0.05,10.46,14,0.127,8.14
1.2116,0.03142,0.00349,0.18151,0.00000,0.00000,0.00000,38,-10,56,7,75,-5,56,0,ok,2,0,0.000,1,0.28,0.05,10.46,14,0.139,8.14
1.2240,0.03142,0.00349,0.18151,0.00000,0.00000,0.00000,35,-9,57,7,74,-8,57,-1,ok,2,0,0.000,1,0.28,0.05,10.46,14,0.152,8.14
1.2468,0.03142,0.00349,0.18151,0.00000,0.00000,0.00000,32,-8,57,8,71,-7,57,0,ok,2,0,0.000,1,0.28,0.05,10.46,14,0.165,8.14
1.2500,0.03142,0.00349,0.18151,0.00000,0.00000,0.00000,29,-6,58,8,70,-9,58,0,ok,2,0,0.000,1,0.28,0.05,10.46,14,0.178,8.14
1.2626,0.03142,0.00349,0.18151,0.00000,0.00000,0.00000,26,-4,59,9,69,-11,59,0,ok,2,0,0.000,1,0.28,0.05,10.46,14,0.191,8.14
1.2827,0.10297,-0.02269,0.18850,0.00000,0.00000,0.00000,22,-2,60,11,66,-12,60,0,ok,2,0,0.000,1,-0.07,1.12,9.94,15,0.000,8.14
1.2875,0.10297,-0.02269,0.18850,0.00000,0.00000,0.00000,20,-1,61,11,64,-13,61,0,ok,2,0,0.000,1,-0.07,1.12,9.94,15,0.012,8.14
1.3002,0.10297,-0.02269,0.18850,0.00000,0.00000,0.00000,18,0,62,11,62,-13,63,-3,ok,2,0,0.000,1,-0.07,1.12,9.94,15,0.025,8.14
1.3228,0.10297,-0.02269,0.18850,0.00000,0.00000,0.00000,16,3,63,12,59,-14,63,-2,ok,2,0,0.000,1,-0.07,1.12,9.94,15,0.038,8.14
1.3258,0.10297,-0.02269,0.18850,0.00000,0.00000,0.00000,14,7,63,13,58,-14,64,-2,ok,2,0,0.000,1,-0.07,1.12,9.94,15,0.051,8.14
1.3386,0.10297,-0.02269,0.18850,0.00000,0.00000,0.00000,12,10,63,14,55,-14,65,-1,ok,2,0,0.000,1,-0.07,1.12,9.94,15,0.063,8.14
1.3587,0.10297,-0.02269,0.18850,0.00000,0.00000,0.00000,11,13,64,14,52,-13,65,-2,ok,2,0,0.000,1,-0.07,1.12,9.94,15,0.076,8.14
1.3635,0.10297,-0.02269,0.18850,0.00000,0.00000,0.00000,12,13,64,15,50,-13,66,-1,ok,2,0,0.000,1,-0.07,1.12,9.94,15,0.088,8.14
1.3760,0.10297,-0.02269,0.18850,0.00000,0.00000,0.00000,12,13,64,17,46,-12,67,-1,ok,2,0,0.000,1,-0.07,1.12,9.94,15,0.101,8.14
1.3987,0.10297,-0.02269,0.18850,0.00000,0.00000,0.00000,14,12,65,17,44,-12,68,0,ok,2,0,0.000,1,-0.07,1.12,9.94,15,0.113,8.14
1.4019,0.10297,-0.02269,0.18850,0.00000,0.00000,0.00000,15,12,65,18,41,-10,69,0,ok,2,0,0.000,1,-0.07,1.12,9.94,15,0.127,8.14
1.4146,0.10297,-0.02269,0.18850,0.00000,0.00000,0.00000,16,11,65,18,38,-10,69,1,ok,4,0,0.000,1,-0.07,1.12,9.94,15,0.140,8.14
1.4348,0.10297,-0.02269,0.18850,0.00000,0.00000,0.00000,18,10,66,19,35,-8,70,2,ok,4,0,0.000,1,-0.07,1.12,9.94,15,0.152,8.14
1.4395,0.10297,-0.02269,0.18850,0.00000,0.00000,0.00000,18,10,66,20,33,-7,71,2,ok,4,0,0.000,1,-0.07,1.12,9.94,15,0.165,8.14
1.4520,0.10297,-0.02269,0.18850,0.00000,0.00000,0.00000,21,9,66,21,31,-5,71,4,ok,4,0,0.000,1,-0.07,1.12,9.94,15,0.177,8.14
1.4748,0.10297,-0.02269,0.18850,0.00000,0.00000,0.00000,22,8,66,22,29,-2,72,4,ok,4,0,0.000,1,-0.07,1.12,9.94,15,0.190,8.14
1.4781,0.06283,0.04363,0.18326,0.00000,0.00000,0.00000,23,7,66,23,28,0,72,6,ok,4,0,0.000,1,1.10,0.51,9.96,16,0.000,8.14
1.4905,0.06283,0.04363,0.18326,0.00000,0.00000,0.00000,24,6,65,24,27,4,72,7,ok,4,0,0.000,1,1.10,0.51,9.96,16,0.013,8.14
1.5107,0.06283,0.04363,0.18326,0.00000,0.00000,0.00000,26,6,65,25,26,6,72,8,ok,4,0,0.000,1,1.10,0.51,9.96,16,0.025,8.14
1.5155,0.06283,0.04363,0.18326,0.00000,0.00000,0.00000,27,6,64,28,28,6,72,9,ok,4,0,0.000,1,1.10,0.51,9.96,16,0.038,8.14
1.5280,0.06283,0.04363,0.18326,0.00000,0.00000,0.00000,28,5,64,29,29,5,72,11,ok,4,0,0.000,1,1.10,0.51,9.96,16,0.050,8.14
1.5508,0.06283,0.04363,0.18326,0.00000,0.00000,0.00000,29,4,65,27,30,3,72,12,ok,4,0,0.000,2,1.10,0.51,9.96,16,0.063,8.14
1.5538,0.06283,0.04363,0.18326,0.00000,0.00000,0.00000,30,3,67,24,31,3,73,14,ok,4,0,0.000,2,1.10,0.51,9.96,16,0.076,8.14
1.5665,0.06283,0.04363,0.18326,0.00000,0.00000,0.00000,32,3,70,21,32,3,73,15,ok,4,0,0.000,2,1.10,0.51,9.96,16,0.089,8.14
1.5908,0.06283,0.04363,0.18326,0.00000,0.00000,0.00000,33,2,71,17,33,2,73,17,ok,4,0,0.000,2,1.10,0.51,9.96,16,0.101,8.14
1.5940,0.06283,0.04363,0.18326,0.00000,0.00000,0.00000,34,2,71,15,34,1,73,19,ok,4,0,0.000,2,1.10,0.51,9.96,16,0.116,8.14
1.6065,0.06283,0.04363,0.18326,0.00000,0.00000,0.00000,36,1,71,14,37,2,73,20,ok,4,0,0.000,2,1.10,0.51,9.96,16,0.129,8.14
1.6268,0.06283,0.04363,0.18326,0.00000,0.00000,0.00000,37,1,71,11,37,2,72,22,ok,4,0,0.000,2,1.10,0.51,9.96,16,0.141,8.14
1.6315,0.06283,0.04363,0.18326,0.00000,0.00000,0.00000,39,1,71,8,39,2,72,23,ok,4,0,0.000,2,1.10,0.51,9.96,16,0.154,8.14
1.6440,0.06283,0.04363,0.18326,0.00000,0.00000,0.00000,40,1,70,5,40,1,73,24,ok,4,0,0.000,2,1.10,0.51,9.96,16,0.166,8.14
1.6667,0.06283,0.04363,0.18326,0.00000,0.00000,0.00000,42,0,70,3,41,2,73,26,ok,4,0,0.000,2,1.10,0.51,9.96,16,0.179,8.14
1.6699,0.06283,0.04363,0.18326,0.00000,0.00000,0.00000,43,0,69,1,42,1,72,27,ok,4,0,0.000,2,1.10,0.51,9.96,16,0.192,8.14
1.6827,-0.02618,-0.02443,0.19373,0.00000,0.00000,0.00000,44,0,67,-1,44,1,72,29,ok,4,0,0.001,2,-0.01,-1.59,10.72,17,0.000,8.14
1.7027,-0.02618,-0.02443,0.19373,0.00000,0.00000,0.00000,45,0,65,-2,45,0,73,29,ok,4,0,0.001,2,-0.01,-1.59,10.72,17,0.013,8.14
1.7076,-0.02618,-0.02443,0.19373,0.00000,0.00000,0.00000,46,0,64,-4,46,0,74,28,ok,4,0,0.001,2,-0.01,-1.59,10.72,17,0.025,8.14
1.7200,-0.02618,-0.02443,0.19373,0.00000,0.00000,0.00000,48,0,64,-6,47,-1,76,26,ok,4,0,0.001,2,-0.01,-1.59,10.72,17,0.038,8.14
1.7427,-0.02618,-0.02443,0.19373,0.00000,0.00000,0.00000,49,1,61,-7,48,0,78,21,ok,4,0,0.001,2,-0.01,-1.59,10.72,17,0.050,8.14
1.7459,-0.02618,-0.02443,0.19373,0.00000,0.00000,0.00000,50,1,59,-8,49,0,79,17,ok,4,0,0.001,2,-0.01,-1.59,10.72,17,0.063,8.14
1.7584,-0.02618,-0.02443,0.19373,0.00000,0.00000,0.00000,50,1,57,-8,50,0,81,14,ok,4,0,0.001,2,-0.01,-1.59,10.72,17,0.076,8.14
1.7787,-0.02618,-0.02443,0.19373,0.00000,0.00000,0.00000,50,3,54,-9,51,0,81,13,ok,4,0,0.001,2,-0.01,-1.59,10.72,17,0.089,8.14
1.7835,-0.02618,-0.02443,0.19373,0.00000,0.00000,0.00000,51,4,52,-9,53,0,81,10,ok,4,0,0.001,2,-0.01,-1.59,10.72,17,0.101,8.14
1.7961,-0.02618,-0.02443,0.19373,0.00000,0.00000,0.00000,52,4,49,-9,54,0,81,7,ok,2,0,0.001,2,-0.01,-1.59,10.72,17,0.114,8.14
1.8188,-0.02618,-0.02443,0.19373,0.00000,0.00000,0.00000,53,5,47,-9,55,1,80,3,ok,2,0,0.001,2,-0.01,-1.59,10.72,17,0.126,8.14
1.8219,-0.02618,-0.02443,0.19373,0.00000,0.00000,0.00000,53,6,44,-9,56,1,79,2,ok,2,0,0.001,2,-0.01,-1.59,10.72,17,0.139,8.14
1.8344,-0.02618,-0.02443,0.19373,0.00000,0.00000,0.00000,55,6,41,-9,57,1,78,-2,ok,2,0,0.001,2,-0.01,-1.59,10.72,17,0.152,8.14
1.8547,-0.02618,-0.02443,0.19373,0.00000,0.00000,0.00000,56,6,39,-8,58,0,78,-4,ok,2,0,0.001,2,-0.01,-1.59,10.72,17,0.165,8.14
1.8595,-0.02618,-0.02443,0.19373,0.00000,0.00000,0.00000,57,7,36,-7,58,1,76,-5,ok,2,0,0.001,2,-0.01,-1.59,10.72,17,0.177,8.14
1.8721,-0.02618,-0.02443,0.19373,0.00000,0.00000,0.00000,57,8,33,-6,59,1,75,-7,ok,2,0,0.001,2,-0.01,-1.59,10.72,17,0.190,8.14
1.8947,-0.15184,-0.05236,0.32987,0.00000,0.00000,0.00000,58,8,29,-5,60,1,72,-7,ok,2,0,0.001,2,-0.59,-1.18,10.96,18,0.000,8.14
1.8979,-0.15184,-0.05236,0.32987,0.00000,0.00000,0.00000,59,9,26,-3,61,1,71,-9,ok,2,0,0.001,2,-0.59,-1.18,10.96,18,0.013,8.14
1.9104,-0.15184,-0.05236,0.32987,0.00000,0.00000,0.00000,61,10,22,-1,62,0,69,-11,ok,2,0,0.001,2,-0.59,-1.18,10.96,18,0.026,8.14
1.9308,-0.15184,-0.05236,0.32987,0.00000,0.00000,0.00000,61,10,20,0,64,-2,67,-12,ok,2,0,0.001,2,-0.59,-1.18,10.96,18,0.038,8.14
1.9357,-0.15184,-0.05236,0.32987,0.00000,0.00000,0.00000,62,11,18,1,64,-1,65,-13,ok,2,0,0.001,2,-0.59,-1.18,10.96,18,0.051,8.14
1.9481,-0.15184,-0.05236,0.32987,0.00000,0.00000,0.00000,62,11,16,3,65,0,63,-14,ok,2,0,0.001,2,-0.59,-1.18,10.96,18,0.063,8.14
1.9708,-0.15184,-0.05236,0.32987,0.00000,0.00000,0.00000,63,12,15,7,66,-1,60,-14,ok,2,0,0.001,2,-0.59,-1.18,10.96,18,0.076,8.14
1.9739,-0.15184,-0.05236,0.32987,0.00000,0.00000,0.00000,63,13,13,10,66,0,59,-15,ok,2,0,0.001,2,-0.59,-1.18,10.96,18,0.089,8.14
1.9867,-0.15184,-0.05236,0.32987,0.00000,0.00000,0.00000,64,14,11,12,67,0,55,-13,ok,2,0,0.001,2,-0.59,-1.18,10.96,18,0.102,8.14
2.0067,-0.15184,-0.05236,0.32987,0.00000,0.00000,0.00000,64,15,13,13,67,0,53,-13,ok,2,0,0.001,2,-0.59,-1.18,10.96,18,0.115,8.14
2.0115,-0.15184,-0.05236,0.32987,0.00000,0.00000,0.00000,64,16,13,13,68,0,50,-12,ok,2,0,0.001,2,-0.59,-1.18,10.96,18,0.127,8.14
2.0240,-0.15184,-0.05236,0.32987,0.00000,0.00000,0.00000,65,16,14,12,69,1,47,-11,ok,2,0,0.001,2,-0.59,-1.18,10.96,18,0.140,8.14
2.0468,-0.15184,-0.05236,0.32987,0.00000,0.00000,0.00000,65,17,15,11,69,1,45,-11,ok,2,0,0.001,2,-0.59,-1.18,10.96,18,0.152,8.14
2.0499,-0.15184,-0.05236,0.32987,0.00000,0.00000,0.00000,66,18,16,10,69,2,41,-10,ok,2,0,0.001,2,-0.59,-1.18,10.96,18,0.165,8.14
2.0624,-0.15184,-0.05236,0.32987,0.00000,0.00000,0.00000,66,18,18,9,70,3,39,-9,ok,2,0,0.001,2,-0.59,-1.18,10.96,18,0.178,8.14
2.0828,-0.15184,-0.05236,0.32987,0.00000,0.00000,0.00000,66,20,18,9,70,4,35,-7,ok,2,0,0.001,2,-0.59,-1.18,10.96,18,0.191,8.14
2.0877,-0.15184,-0.05236,0.32987,0.00000,0.00000,0.00000,67,21,20,8,71,4,34,-6,ok,2,0,0.001,2,-0.59,-1.18,10.96,18,0.203,8.14
2.1004,-0.01047,0.02269,0.33336,0.00000,0.00000,0.00000,67,22,21,7,71,5,31,-4,ok,2,0,0.001,2,-0.30,-0.25,8.71,19,0.000,8.14
2.1228,-0.01047,0.02269,0.33336,0.00000,0.00000,0.00000,66,23,23,6,71,7,29,-1,ok,2,0,0.001,2,-0.30,-0.25,8.71,19,0.013,8.14
2.1259,-0.01047,0.02269,0.33336,0.00000,0.00000,0.00000,66,24,24,6,71,8,28,1,ok,2,0,0.001,2,-0.30,-0.25,8.71,19,0.026,8.14
2.1385,-0.01047,0.02269,0.33336,0.00000,0.00000,0.00000,65,25,25,5,71,9,27,4,ok,2,0,0.001,2,-0.30,-0.25,8.71,19,0.039,8.14
2.1587,-0.01047,0.02269,0.33336,0.00000,0.00000,0.00000,65,28,26,5,71,10,26,6,ok,2,0,0.001,2,-0.30,-0.25,8.71,19,0.051,8.14
2.1635,-0.01047,0.02269,0.33336,0.00000,0.00000,0.00000,64,29,27,4,71,12,28,6,ok,2,0,0.001,2,-0.30,-0.25,8.71,19,0.064,8.14
2.1761,-0.01047,0.02269,0.33336,0.00000,0.00000,0.00000,65,28,28,3,71,13,29,5,ok,2,0,0.001,2,-0.30,-0.25,8.71,19,0.076,8.14
2.1987,-0.01047,0.02269,0.33336,0.00000,0.00000,0.00000,68,25,30,3,72,14,30,3,ok,2,0,0.001,2,-0.30,-0.25,8.71,19,0.089,8.14
2.2019,-0.01047,0.02269,0.33336,0.00000,0.00000,0.00000,70,21,31,2,71,15,31,3,ok,2,0,0.001,2,-0.30,-0.25,8.71,19,0.102,8.14
2.2144,-0.01047,0.02269,0.33336,0.00000,0.00000,0.00000,71,17,32,2,71,18,33,3,ok,2,0,0.001,2,-0.30,-0.25,8.71,19,0.114,8.14
2.2347,-0.01047,0.02269,0.33336,0.00000,0.00000,0.00000,72,15,34,2,72,18,34,2,ok,2,0,0.001,2,-0.30,-0.25,8.71,19,0.127,8.14
2.2395,-0.01047,0.02269,0.33336,0.00000,0.00000,0.00000,71,14,35,1,71,21,36,1,ok,2,0,0.001,2,-0.30,-0.25,8.71,19,0.139,8.14
2.2521,-0.01047,0.02269,0.33336,0.00000,0.00000,0.00000,71,11,36,1,71,22,38,1,ok,2,0,0.001,2,-0.30,-0.25,8.71,19,0.152,8.14
2.2748,-0.01047,0.02269,0.33336,0.00000,0.00000,0.00000,70,7,38,2,71,24,39,2,ok,2,0,0.001,2,-0.30,-0.25,8.71,19,0.165,8.14
2.2779,-0.01047,0.02269,0.33336,0.00000,0.00000,0.00000,70,5,39,2,71,25,40,1,ok,2,0,0.001,2,-0.30,-0.25,8.71,19,0.178,8.14
2.2908,0.05760,-0.02094,0.40317,0.00000,0.00000,0.00000,69,1,41,1,71,27,42,1,ok,2,0,0.001,2,-0.33,1.19,10.26,20,0.000,8.14
2.3107,0.05760,-0.02094,0.40317,0.00000,0.00000,0.00000,68,-1,42,1,71,29,43,1,ok,2,0,0.001,2,-0.33,1.19,10.26,20,0.012,8.14
2.3155,0.05760,-0.02094,0.40317,0.00000,0.00000,0.00000,66,-3,44,2,71,29,44,0,ok,2,0,0.001,2,-0.33,1.19,10.26,20,0.025,8.14
2.3280,0.05760,-0.02094,0.40317,0.00000,0.00000,0.00000,64,-4,44,2,72,28,45,0,ok,2,0,0.001,2,-0.33,1.19,10.26,20,0.038,8.14
2.3507,0.05760,-0.02094,0.40317,0.00000,0.00000,0.00000,63,-6,46,2,74,26,46,0,ok,2,0,0.001,2,-0.33,1.19,10.26,20,0.050,8.14
2.3539,0.05760,-0.02094,0.40317,0.00000,0.00000,0.00000,62,-8,47,2,76,22,47,0,ok,2,0,0.001,2,-0.33,1.19,10.26,20,0.063,8.14
2.3664,0.05760,-0.02094,0.40317,0.00000,0.00000,0.00000,60,-9,48,3,77,17,49,0,ok,2,0,0.001,2,-0.33,1.19,10.26,20,0.076,8.14
2.3867,0.05760,-0.02094,0.40317,0.00000,0.00000,0.00000,58,-10,49,3,78,14,49,0,ok,2,0,0.001,2,-0.33,1.19,10.26,20,0.088,8.14
2.3915,0.05760,-0.02094,0.40317,0.00000,0.00000,0.00000,56,-11,50,3,79,13,50,0,ok,2,0,0.001,2,-0.33,1.19,10.26,20,0.101,8.14
2.4041,0.05760,-0.02094,0.40317,0.00000,0.00000,0.00000,53,-12,50,5,79,11,51,0,ok,2,0,0.001,2,-0.33,1.19,10.26,20,0.113,8.14
2.4268,0.05760,-0.02094,0.40317,0.00000,0.00000,0.00000,51,-11,52,6,79,7,52,0,ok,2,0,0.001,2,-0.33,1.19,10.26,20,0.126,8.14
2.4299,0.05760,-0.02094,0.40317,0.00000,0.00000,0.00000,48,-11,53,5,78,4,53,0,ok,2,0,0.001,2,-0.33,1.19,10.26,20,0.139,8.14
2.4425,0.05760,-0.02094,0.40317,0.00000,0.00000,0.00000,46,-11,53,6,77,2,54,0,ok,2,0,0.001,2,-0.33,1.19,10.26,20,0.152,8.14
2.4627,0.05760,-0.02094,0.40317,0.00000,0.00000,0.00000,43,-11,54,7,76,-1,54,0,ok,2,0,0.001,2,-0.33,1.19,10.26,20,0.164,8.14
2.4675,0.05760,-0.02094,0.40317,0.00000,0.00000,0.00000,41,-11,56,7,76,-4,55,-1,ok,2,0,0.001,2,-0.33,1.19,10.26,20,0.177,8.14
2.4800,0.05760,-0.02094,0.40317,0.00000,0.00000,0.00000,39,-10,56,7,75,-5,56,0,ok,2,0,0.001,2,-0.33,1.19,10.26,20,0.190,8.14
2.5028,0.05760,-0.02094,0.40317,0.00000,0.00000,0.00000,36,-9,57,7,73,-8,57,-1,ok,2,0,0.001,2,-0.33,1.19,10.26,20,0.202,8.14
2.5061,0.06981,-0.04363,0.43459,0.00000,0.00000,0.00000,33,-8,58,8,70,-7,57,0,ok,2,0,0.001,2,0.25,0.86,10.26,21,0.000,8.14
2.5184,0.06981,-0.04363,0.43459,0.00000,0.00000,0.00000,30,-6,58,8,69,-10,58,0,ok,2,0,0.001,2,0.25,0.86,10.26,21,0.013,8.14
2.5387,0.06981,-0.04363,0.43459,0.00000,0.00000,0.00000,27,-4,59,9,68,-11,59,0,ok,2,0,0.001,2,0.25,0.86,10.26,21,0.025,8.14
2.5435,0.06981,-0.04363,0.43459,0.00000,0.00000,0.00000,22,-2,60,11,66,-13,60,0,ok,2,0,0.001,3,0.25,0.86,10.26,21,0.038,8.14
2.5563,0.06981,-0.04363,0.43459,0.00000,0.00000,0.00000,21,-1,61,11,64,-13,61,0,ok,2,0,0.001,3,0.25,0.86,10.26,21,0.050,8.14
2.5788,0.06981,-0.04363,0.43459,0.00000,0.00000,0.00000,19,1,62,11,62,-13,63,-3,ok,2,0,0.001,3,0.25,0.86,10.26,21,0.063,8.14
2.5819,0.06981,-0.04363,0.43459,0.00000,0.00000,0.00000,17,3,62,12,59,-14,63,-2,ok,2,0,0.001,3,0.25,0.86,10.26,21,0.076,8.14
2.5945,0.06981,-0.04363,0.43459,0.00000,0.00000,0.00000,15,7,63,13,57,-15,64,-2,ok,2,0,0.001,3,0.25,0.86,10.26,21,0.089,8.14
2.6148,0.06981,-0.04363,0.43459,0.00000,0.00000,0.00000,13,10,63,14,54,-14,65,-1,ok,2,0,0.001,3,0.25,0.86,10.26,21,0.101,8.14
2.6195,0.06981,-0.04363,0.43459,0.00000,0.00000,0.00000,11,13,64,15,52,-13,66,-1,ok,2,0,0.001,3,0.25,0.86,10.26,21,0.114,8.14
2.6320,0.06981,-0.04363,0.43459,0.00000,0.00000,0.00000,13,13,64,16,49,-13,67,0,ok,2,0,0.001,3,0.25,0.86,10.26,21,0.126,8.14
2.6547,0.06981,-0.04363,0.43459,0.00000,0.00000,0.00000,13,13,64,17,46,-12,67,-1,ok,2,0,0.001,3,0.25,0.86,10.26,21,0.139,8.14
2.6579,0.06981,-0.04363,0.43459,0.00000,0.00000,0.00000,14,12,65,17,44,-12,68,0,ok,2,0,0.001,3,0.25,0.86,10.26,21,0.152,8.14
2.6704,0.06981,-0.04363,0.43459,0.00000,0.00000,0.00000,16,12,65,18,41,-10,69,0,ok,2,0,0.001,3,0.25,0.86,10.26,21,0.165,8.14
2.6908,0.06981,-0.04363,0.43459,0.00000,0.00000,0.00000,16,11,65,19,38,-10,69,1,ok,2,0,0.001,3,0.25,0.86,10.26,21,0.177,8.14
2.6957,-0.01745,0.04014,0.47124,0.00000,0.00000,0.00000,18,10,66,19,35,-8,70,2,ok,2,0,0.001,3,0.50,-1.07,9.98,22,0.000,8.14
2.7080,-0.01745,0.04014,0.47124,0.00000,0.00000,0.00000,19,10,65,21,33,-7,70,3,ok,2,0,0.001,3,0.50,-1.07,9.98,22,0.013,8.14
2.7308,-0.01745,0.04014,0.47124,0.00000,0.00000,0.00000,21,8,66,21,31,-5,71,5,ok,2,0,0.001,3,0.50,-1.07,9.98,22,0.025,8.14
2.7339,-0.01745,0.04014,0.47124,0.00000,0.00000,0.00000,22,8,66,22,29,-2,72,5,ok,2,0,0.001,3,0.50,-1.07,9.98,22,0.038,8.14
2.7466,-0.01745,0.04014,0.47124,0.00000,0.00000,0.00000,24,7,65,23,28,0,71,7,ok,2,0,0.001,3,0.50,-1.07,9.98,22,0.051,8.14
2.7667,-0.01745,0.04014,0.47124,0.00000,0.00000,0.00000,25,6,65,24,27,4,71,8,ok,2,0,0.001,3,0.50,-1.07,9.98,22,0.064,8.14
2.7717,-0.01745,0.04014,0.47124,0.00000,0.00000,0.00000,26,6,65,25,26,6,72,8,ok,0,0,0.001,3,0.50,-1.07,9.98,22,0.076,8.14
2.7841,-0.01745,0.04014,0.47124,0.00000,0.00000,0.00000,27,5,64,28,28,6,72,9,ok,0,0,0.001,3,0.50,-1.07,9.98,22,0.089,8.14
2.8067,-0.01745,0.04014,0.47124,0.00000,0.00000,0.00000,28,4,63,29,28,5,72,11,ok,0,0,0.001,3,0.50,-1.07,9.98,22,0.101,8.14
2.8099,-0.01745,0.04014,0.47124,0.00000,0.00000,0.00000,30,4,65,28,30,3,72,12,ok,0,0,0.001,3,0.50,-1.07,9.98,22,0.114,8.14
2.8225,-0.01745,0.04014,0.47124,0.00000,0.00000,0.00000,31,3,67,25,31,3,73,14,ok,2,0,0.001,3,0.50,-1.07,9.98,22,0.127,8.14
2.8427,-0.01745,0.04014,0.47124,0.00000,0.00000,0.00000,32,2,70,21,32,3,73,16,ok,2,0,0.001,3,0.50,-1.07,9.98,22,0.140,8.14
2.8475,-0.01745,0.04014,0.47124,0.00000,0.00000,0.00000,33,2,71,17,33,2,72,17,ok,2,0,0.001,3,0.50,-1.07,9.98,22,0.152,8.14
2.8600,-0.01745,0.04014,0.47124,0.00000,0.00000,0.00000,35,2,71,15,34,1,72,19,ok,2,0,0.001,3,0.50,-1.07,9.98,22,0.165,8.14
2.8828,-0.01745,0.04014,0.47124,0.00000,0.00000,0.00000,36,1,71,14,37,1,73,20,ok,2,0,0.001,3,0.50,-1.07,9.98,22,0.177,8.14
2.8860,-0.01745,0.04014,0.47124,0.00000,0.00000,0.00000,38,1,71,11,37,1,72,22,ok,2,0,0.001,3,0.50,-1.07,9.98,22,0.190,8.14
2.8988,0.05236,-0.01571,0.45553,0.00000,0.00000,0.00000,39,1,71,8,39,2,72,23,ok,2,0,0.001,3,-1.04,1.05,10.26,23,0.000,8.14
2.9187,0.05236,-0.01571,0.45553,0.00000,0.00000,0.00000,41,1,70,5,40,1,73,24,ok,2,0,0.001,3,-1.04,1.05,10.26,23,0.012,8.14
2.9235,0.05236,-0.01571,0.45553,0.00000,0.00000,0.00000,42,0,70,3,41,2,72,26,ok,0,0,0.001,3,-1.04,1.05,10.26,23,0.025,8.14
2.9360,0.05236,-0.01571,0.45553,0.00000,0.00000,0.00000,43,0,69,1,42,1,72,27,ok,0,0,0.001,3,-1.04,1.05,10.26,23,0.037,8.14
2.9587,0.05236,-0.01571,0.45553,0.00000,0.00000,0.00000,45,0,68,-1,44,1,72,29,ok,0,0,0.001,3,-1.04,1.05,10.26,23,0.050,8.14
2.9619,0.05236,-0.01571,0.45553,0.00000,0.00000,0.00000,45,0,66,-2,45,0,73,29,ok,2,0,0.001,3,-1.04,1.05,10.26,23,0.063,8.14
2.9744,0.05236,-0.01571,0.45553,0.00000,0.00000,0.00000,47,1,64,-4,46,0,74,28,ok,2,0,0.001,3,-1.04,1.05,10.26,23,0.076,8.14
2.9947,0.05236,-0.01571,0.45553,0.00000,0.00000,0.00000,48,0,64,-6,47,0,76,26,ok,2,0,0.001,3,-1.04,1.05,10.26,23,0.088,8.14
2.9994,0.05236,-0.01571,0.45553,0.00000,0.00000,0.00000,49,2,61,-7,48,0,78,20,ok,2,0,0.001,3,-1.04,1.05,10.26,23,0.101,8.14
3.0121,0.05236,-0.01571,0.45553,0.00000,0.00000,0.00000,51,1,59,-8,49,0,79,17,ok,2,0,0.001,3,-1.04,1.05,10.26,23,0.113,8.14
3.0348,0.05236,-0.01571,0.45553,0.00000,0.00000,0.00000,51,1,56,-9,50,0,81,14,ok,2,0,0.001,3,-1.04,1.05,10.26,23,0.126,8.14
3.0379,0.05236,-0.01571,0.45553,0.00000,0.00000,0.00000,51,4,54,-10,51,0,81,13,ok,2,0,0.001,3,-1.04,1.05,10.26,23,0.139,8.14
3.0507,0.05236,-0.01571,0.45553,0.00000,0.00000,0.00000,52,5,51,-9,52,0,81,10,ok,2,0,0.001,3,-1.04,1.05,10.26,23,0.152,8.14
3.0707,0.05236,-0.01571,0.45553,0.00000,0.00000,0.00000,53,4,49,-9,54,0,81,7,ok,2,0,0.001,3,-1.04,1.05,10.26,23,0.164,8.14
3.0754,0.05236,-0.01571,0.45553,0.00000,0.00000,0.00000,53,5,46,-9,55,1,80,3,ok,2,0,0.001,3,-1.04,1.05,10.26,23,0.177,8.14
3.0881,0.05236,-0.01571,0.45553,0.00000,0.00000,0.00000,54,6,43,-9,55,1,80,2,ok,2,0,0.001,3,-1.04,1.05,10.26,23,0.190,8.14
3.1108,-0.07854,-0.04014,0.51836,0.00000,0.00000,0.00000,56,6,41,-9,56,1,78,-2,ok,2,0,0.001,3,0.33,-0.94,10.30,24,0.000,8.14
3.1139,-0.07854,-0.04014,0.51836,0.00000,0.00000,0.00000,56,6,39,-8,57,0,78,-3,ok,2,0,0.001,3,0.33,-0.94,10.30,24,0.013,8.14
3.1264,-0.07854,-0.04014,0.51836,0.00000,0.00000,0.00000,58,7,35,-7,58,0,77,-5,ok,2,0,0.001,3,0.33,-0.94,10.30,24,0.026,8.14
3.1467,-0.07854,-0.04014,0.51836,0.00000,0.00000,0.00000,58,8,33,-6,59,1,75,-7,ok,2,0,0.001,3,0.33,-0.94,10.30,24,0.039,8.14
3.1515,-0.07854,-0.04014,0.51836,0.00000,0.00000,0.00000,59,8,29,-5,60,1,72,-7,ok,2,0,0.001,3,0.33,-0.94,10.30,24,0.051,8.14
3.1640,-0.07854,-0.04014,0.51836,0.00000,0.00000,0.00000,60,9,26,-3,61,1,71,-9,ok,2,0,0.001,3,0.33,-0.94,10.30,24,0.064,8.14
3.1867,-0.07854,-0.04014,0.51836,0.00000,0.00000,0.00000,61,10,22,-1,62,0,70,-11,ok,2,0,0.001,3,0.33,-0.94,10.30,24,0.076,8.14
3.1899,-0.07854,-0.04014,0.51836,0.00000,0.00000,0.00000,62,10,20,0,64,-2,68,-12,ok,2,0,0.001,3,0.33,-0.94,10.30,24,0.089,8.14
3.2027,-0.07854,-0.04014,0.51836,0.00000,0.00000,0.00000,62,11,18,1,64,-1,65,-13,ok,2,0,0.001,3,0.33,-0.94,10.30,24,0.102,8.14
3.2227,-0.07854,-0.04014,0.51836,0.00000,0.00000,0.00000,63,11,16,4,65,0,63,-14,ok,2,0,0.001,3,0.33,-0.94,10.30,24,0.114,8.14
3.2275,-0.07854,-0.04014,0.51836,0.00000,0.00000,0.00000,63,12,15,7,66,0,61,-14,ok,2,0,0.001,3,0.33,-0.94,10.30,24,0.127,8.14
3.2401,-0.07854,-0.04014,0.51836,0.00000,0.00000,0.00000,63,13,13,10,66,0,59,-15,ok,2,0,0.001,3,0.33,-0.94,10.30,24,0.140,8.14
3.2627,-0.07854,-0.04014,0.51836,0.00000,0.00000,0.00000,64,14,11,12,67,0,55,-13,ok,2,0,0.001,3,0.33,-0.94,10.30,24,0.152,8.14
3.2659,-0.07854,-0.04014,0.51836,0.00000,0.00000,0.00000,64,15,13,13,67,0,53,-12,ok,2,0,0.001,3,0.33,-0.94,10.30,24,0.165,8.14
3.2785,-0.07854,-0.04014,0.51836,0.00000,0.00000,0.00000,65,16,13,13,68,0,50,-12,ok,2,0,0.001,3,0.33,-0.94,10.30,24,0.178,8.14
3.2988,-0.07854,-0.04014,0.51836,0.00000,0.00000,0.00000,65,17,14,11,68,1,47,-11,ok,2,0,0.001,3,0.33,-0.94,10.30,24,0.191,8.14
3.3038,-0.01571,0.00175,0.52360,0.00000,0.00000,0.00000,65,18,15,11,69,2,45,-11,ok,2,0,0.001,3,1.27,0.59,11.06,25,0.000,8.14
3.3161,-0.01571,0.00175,0.52360,0.00000,0.00000,0.00000,66,18,16,10,69,3,41,-10,ok,2,0,0.001,3,1.27,0.59,11.06,25,0.013,8.14
3.3388,-0.01571,0.00175,0.52360,0.00000,0.00000,0.00000,66,19,17,9,70,3,39,-9,ok,2,0,0.001,3,1.27,0.59,11.06,25,0.025,8.14
3.3419,-0.01571,0.00175,0.52360,0.00000,0.00000,0.00000,66,20,18,9,70,5,35,-7,ok,2,0,0.001,3,1.27,0.59,11.06,25,0.038,8.14
3.3546,-0.01571,0.00175,0.52360,0.00000,0.00000,0.00000,67,21,20,8,71,5,34,-6,ok,2,0,0.001,3,1.27,0.59,11.06,25,0.051,8.14
3.3747,-0.01571,0.00175,0.52360,0.00000,0.00000,0.00000,67,22,21,7,71,6,32,-4,ok,2,0,0.001,3,1.27,0.59,11.06,25,0.064,8.14
3.3798,-0.01571,0.00175,0.52360,0.00000,0.00000,0.00000,67,23,22,6,70,7,30,-1,ok,2,0,0.001,3,1.27,0.59,11.06,25,0.076,8.14
3.3921,-0.01571,0.00175,0.52360,0.00000,0.00000,0.00000,67,24,23,6,71,8,29,1,ok,2,0,0.001,3,1.27,0.59,11.06,25,0.089,8.14
3.4148,-0.01571,0.00175,0.52360,0.00000,0.00000,0.00000,66,25,25,5,71,9,27,5,ok,2,0,0.001,3,1.27,0.59,11.06,25,0.101,8.14
3.4179,-0.01571,0.00175,0.52360,0.00000,0.00000,0.00000,65,28,26,5,71,10,27,7,ok,2,0,0.001,3,1.27,0.59,11.06,25,0.114,8.14
3.4307,-0.01571,0.00175,0.52360,0.00000,0.00000,0.00000,65,29,27,4,71,12,29,6,ok,2,0,0.001,3,1.27,0.59,11.06,25,0.127,8.14
3.4507,-0.01571,0.00175,0.52360,0.00000,0.00000,0.00000,66,28,28,3,71,13,29,6,ok,2,0,0.001,3,1.27,0.59,11.06,25,0.140,8.14
3.4555,-0.01571,0.00175,0.52360,0.00000,0.00000,0.00000,68,25,30,3,72,14,31,3,ok,2,0,0.001,3,1.27,0.59,11.06,25,0.152,8.14
3.4680,-0.01571,0.00175,0.52360,0.00000,0.00000,0.00000,71,21,31,2,71,16,32,3,ok,2,0,0.001,3,1.27,0.59,11.06,25,0.164,8.14
3.4908,-0.01571,0.00175,0.52360,0.00000,0.00000,0.00000,72,17,33,2,71,18,33,3,ok,2,0,0.001,3,1.27,0.59,11.06,25,0.177,8.14
3.4938,-0.01571,0.00175,0.52360,0.00000,0.00000,0.00000,72,15,34,2,72,18,34,2,ok,2,0,0.001,3,1.27,0.59,11.06,25,0.190,8.14
3.5068,-0.02967,0.05236,0.63705,0.00000,0.00000,0.00000,71,14,35,2,71,21,36,1,ok,2,0,0.001,3,-0.38,-0.45,9.40,26,0.000,8.14
3.5267,-0.02967,0.05236,0.63705,0.00000,0.00000,0.00000,71,11,36,2,71,22,38,1,ok,2,0,0.001,3,-0.38,-0.45,9.40,26,0.012,8.14
3.5316,-0.02967,0.05236,0.63705,0.00000,0.00000,0.00000,71,7,38,2,71,24,39,2,ok,2,0,0.001,3,-0.38,-0.45,9.40,26,0.025,8.14
3.5441,-0.02967,0.05236,0.63705,0.00000,0.00000,0.00000,70,5,39,2,71,25,40,1,ok,2,0,0.001,3,-0.38,-0.45,9.40,26,0.038,8.14
3.5668,-0.02967,0.05236,0.63705,0.00000,0.00000,0.00000,69,1,40,2,70,27,42,2,ok,2,0,0.001,4,-0.38,-0.45,9.40,26,0.050,8.14
3.5702,-0.02967,0.05236,0.63705,0.00000,0.00000,0.00000,68,-1,42,1,70,29,43,2,ok,2,0,0.001,4,-0.38,-0.45,9.40,26,0.063,8.14
3.5828,-0.02967,0.05236,0.63705,0.00000,0.00000,0.00000,67,-3,43,2,71,29,44,1,ok,2,0,0.001,4,-0.38,-0.45,9.40,26,0.076,8.14
3.6028,-0.02967,0.05236,0.63705,0.00000,0.00000,0.00000,65,-4,43,2,72,29,45,1,ok,2,0,0.001,4,-0.38,-0.45,9.40,26,0.089,8.14
3.6076,-0.02967,0.05236,0.63705,0.00000,0.00000,0.00000,64,-6,45,2,74,26,46,0,ok,2,0,0.001,4,-0.38,-0.45,9.40,26,0.101,8.14
3.6201,-0.02967,0.05236,0.63705,0.00000,0.00000,0.00000,63,-8,46,2,76,22,47,0,ok,2,0,0.001,4,-0.38,-0.45,9.40,26,0.114,8.14
3.6428,-0.02967,0.05236,0.63705,0.00000,0.00000,0.00000,60,-9,48,3,77,17,49,0,ok,2,0,0.001,4,-0.38,-0.45,9.40,26,0.126,8.14
3.6460,-0.02967,0.05236,0.63705,0.00000,0.00000,0.00000,58,-10,49,3,79,14,49,0,ok,2,0,0.001,4,-0.38,-0.45,9.40,26,0.139,8.14
3.6584,-0.02967,0.05236,0.63705,0.00000,0.00000,0.00000,56,-11,50,3,79,14,50,1,ok,2,0,0.001,4,-0.38,-0.45,9.40,26,0.152,8.14
3.6787,-0.02967,0.05236,0.63705,0.00000,0.00000,0.00000,54,-12,50,5,79,11,51,1,ok,2,0,0.001,4,-0.38,-0.45,9.40,26,0.165,8.14
3.6835,-0.02967,0.05236,0.63705,0.00000,0.00000,0.00000,51,-12,52,6,79,8,52,1,ok,2,0,0.001,4,-0.38,-0.45,9.40,26,0.177,8.14
3.6960,-0.02967,0.05236,0.63705,0.00000,0.00000,0.00000,48,-12,52,5,78,5,53,1,ok,2,0,0.001,4,-0.38,-0.45,9.40,26,0.190,8.14
3.7187,0.09425,0.01745,0.62134,0.00000,0.00000,0.00000,46,-11,53,6,77,3,54,0,ok,2,0,0.001,4,-0.44,0.72,10.02,27,0.000,8.14
3.7220,0.09425,0.01745,0.62134,0.00000,0.00000,0.00000,43,-11,54,7,77,-1,54,1,ok,2,0,0.001,4,-0.44,0.72,10.02,27,0.013,8.14
3.7344,0.09425,0.01745,0.62134,0.00000,0.00000,0.00000,41,-11,56,7,76,-3,55,-1,ok,2,0,0.001,4,-0.44,0.72,10.02,27,0.026,8.14
3.7547,0.09425,0.01745,0.62134,0.00000,0.00000,0.00000,39,-10,56,7,75,-4,56,0,ok,2,0,0.001,4,-0.44,0.72,10.02,27,0.038,8.14
3.7596,0.09425,0.01745,0.62134,0.00000,0.00000,0.00000,36,-9,57,7,73,-7,57,-1,ok,2,0,0.001,4,-0.44,0.72,10.02,27,0.051,8.14
3.7720,0.09425,0.01745,0.62134,0.00000,0.00000,0.00000,33,-8,57,8,71,-7,57,0,ok,2,0,0.001,4,-0.44,0.72,10.02,27,0.063,8.14
3.7948,0.09425,0.01745,0.62134,0.00000,0.00000,0.00000,30,-6,58,8,69,-9,58,0,ok,2,0,0.001,4,-0.44,0.72,10.02,27,0.076,8.14
3.7979,0.09425,0.01745,0.62134,0.00000,0.00000,0.00000,27,-4,59,9,68,-11,59,0,ok,2,0,0.001,4,-0.44,0.72,10.02,27,0.089,8.14
3.8105,0.09425,0.01745,0.62134,0.00000,0.00000,0.00000,23,-1,60,10,66,-12,60,0,ok,2,0,0.001,4,-0.44,0.72,10.02,27,0.102,8.14
3.8307,0.09425,0.01745,0.62134,0.00000,0.00000,0.00000,21,-1,61,11,64,-13,61,0,ok,2,0,0.001,4,-0.44,0.72,10.02,27,0.115,8.14
3.8355,0.09425,0.01745,0.62134,0.00000,0.00000,0.00000,19,1,62,11,62,-13,63,-2,ok,2,0,0.001,4,-0.44,0.72,10.02,27,0.127,8.14
3.8480,0.09425,0.01745,0.62134,0.00000,0.00000,0.00000,17,3,62,12,59,-14,64,-1,ok,2,0,0.001,4,-0.44,0.72,10.02,27,0.140,8.14
3.8707,0.09425,0.01745,0.62134,0.00000,0.00000,0.00000,15,6,63,13,57,-14,65,-1,ok,2,0,0.001,4,-0.44,0.72,10.02,27,0.152,8.14
3.8740,0.09425,0.01745,0.62134,0.00000,0.00000,0.00000,13,10,62,14,54,-13,65,-1,ok,2,0,0.001,4,-0.44,0.72,10.02,27,0.165,8.14
3.8865,0.09425,0.01745,0.62134,0.00000,0.00000,0.00000,12,12,63,15,52,-13,66,-1,ok,2,0,0.001,4,-0.44,0.72,10.02,27,0.178,8.14
3.9108,0.09425,0.01745,0.62134,0.00000,0.00000,0.00000,13,13,64,16,49,-13,67,0,ok,2,0,0.001,4,-0.44,0.72,10.02,27,0.190,8.14
3.9141,0.01745,-0.06283,0.64228,0.00000,0.00000,0.00000,13,13,64,17,46,-11,67,0,ok,2,0,0.001,4,-0.77,0.50,9.47,28,0.000,8.14
3.9268,0.01745,-0.06283,0.64228,0.00000,0.00000,0.00000,15,12,64,17,44,-11,68,1,ok,2,0,0.001,4,-0.77,0.50,9.47,28,0.013,8.14
3.9467,0.01745,-0.06283,0.64228,0.00000,0.00000,0.00000,16,11,65,18,41,-10,69,1,ok,2,0,0.001,4,-0.77,0.50,9.47,28,0.025,8.14
3.9515,0.01745,-0.06283,0.64228,0.00000,0.00000,0.00000,17,11,65,19,38,-10,70,2,ok,2,0,0.001,4,-0.77,0.50,9.47,28,0.038,8.14
3.9640,0.01745,-0.06283,0.64228,0.00000,0.00000,0.00000,19,10,65,20,35,-8,70,2,ok,2,0,0.001,4,-0.77,0.50,9.47,28,0.050,8.14
3.9868,0.01745,-0.06283,0.64228,0.00000,0.00000,0.00000,19,10,66,21,33,-7,71,3,ok,2,0,0.001,4,-0.77,0.50,9.47,28,0.063,8.14
3.9898,0.01745,-0.06283,0.64228,0.00000,0.00000,0.00000,21,8,66,21,31,-5,71,5,ok,2,0,0.001,4,-0.77,0.50,9.47,28,0.076,8.14
4.0025,0.01745,-0.06283,0.64228,0.00000,0.00000,0.00000,22,8,66,23,29,-2,72,5,ok,2,0,0.001,4,-0.77,0.50,9.47,28,0.089,8.14
4.0227,0.01745,-0.06283,0.64228,0.00000,0.00000,0.00000,24,7,66,23,27,0,72,6,ok,2,0,0.001,4,-0.77,0.50,9.47,28,0.101,8.14
4.0275,0.01745,-0.06283,0.64228,0.00000,0.00000,0.00000,25,6,66,24,26,4,72,7,ok,2,0,0.001,4,-0.77,0.50,9.47,28,0.114,8.14
4.0401,0.01745,-0.06283,0.64228,0.00000,0.00000,0.00000,26,6,65,25,26,6,72,8,ok,2,0,0.001,4,-0.77,0.50,9.47,28,0.126,8.14
4.0628,0.01745,-0.06283,0.64228,0.00000,0.00000,0.00000,27,5,64,28,28,5,72,9,ok,2,0,0.001,4,-0.77,0.50,9.47,28,0.139,8.14
4.0658,0.01745,-0.06283,0.64228,0.00000,0.00000,0.00000,29,4,64,29,28,5,72,11,ok,2,0,0.001,4,-0.77,0.50,9.47,28,0.152,8.14
4.0785,0.01745,-0.06283,0.64228,0.00000,0.00000,0.00000,30,4,65,28,29,3,72,12,ok,2,0,0.001,4,-0.77,0.50,9.47,28,0.165,8.14
4.0987,0.01745,-0.06283,0.64228,0.00000,0.00000,0.00000,31,3,68,25,30,2,73,14,ok,2,0,0.001,4,-0.77,0.50,9.47,28,0.177,8.14
4.1035,0.01745,-0.06283,0.64228,0.00000,0.00000,0.00000,32,3,70,21,31,2,73,15,ok,2,0,0.001,4,-0.77,0.50,9.47,28,0.190,8.14
4.1162,-0.11345,-0.08029,0.65973,0.00000,0.00000,0.00000,34,2,71,17,33,2,72,17,ok,2,0,0.001,4,-0.77,-0.86,9.49,29,0.000,8.14
4.1388,-0.11345,-0.08029,0.65973,0.00000,0.00000,0.00000,35,2,71,15,34,0,72,20,ok,2,0,0.001,4,-0.77,-0.86,9.49,29,0.012,8.14
4.1419,-0.11345,-0.08029,0.65973,0.00000,0.00000,0.00000,37,1,71,15,36,0,73,20,ok,2,0,0.001,4,-0.77,-0.86,9.49,29,0.026,8.14
4.1547,-0.11345,-0.08029,0.65973,0.00000,0.00000,0.00000,38,1,71,11,37,0,72,23,ok,2,0,0.001,4,-0.77,-0.86,9.49,29,0.039,8.14
4.1747,-0.11345,-0.08029,0.65973,0.00000,0.00000,0.00000,40,1,71,9,38,1,72,24,ok,2,0,0.001,4,-0.77,-0.86,9.49,29,0.051,8.14
4.1797,-0.11345,-0.08029,0.65973,0.00000,0.00000,0.00000,41,1,70,6,40,0,72,25,ok,2,0,0.001,4,-0.77,-0.86,9.49,29,0.064,8.14
4.1920,-0.11345,-0.08029,0.65973,0.00000,0.00000,0.00000,43,0,70,3,41,1,72,26,ok,2,0,0.001,4,-0.77,-0.86,9.49,29,0.076,8.14
4.2148,-0.11345,-0.08029,0.65973,0.00000,0.00000,0.00000,44,0,69,1,42,0,72,28,ok,2,0,0.001,4,-0.77,-0.86,9.49,29,0.089,8.14
4.2180,-0.11345,-0.08029,0.65973,0.00000,0.00000,0.00000,45,0,68,0,43,0,72,29,ok,2,0,0.001,4,-0.77,-0.86,9.49,29,0.102,8.14
4.2305,-0.11345,-0.08029,0.65973,0.00000,0.00000,0.00000,45,0,66,-1,45,-1,73,29,ok,2,0,0.001,4,-0.77,-0.86,9.49,29,0.115,8.14
4.2507,-0.11345,-0.08029,0.65973,0.00000,0.00000,0.00000,47,0,65,-4,46,-1,74,28,ok,2,0,0.001,4,-0.77,-0.86,9.49,29,0.127,8.14
4.2555,-0.11345,-0.08029,0.65973,0.00000,0.00000,0.00000,48,1,64,-6,47,-1,75,26,ok,2,0,0.001,4,-0.77,-0.86,9.49,29,0.140,8.14
4.2680,-0.11345,-0.08029,0.65973,0.00000,0.00000,0.00000,49,2,61,-7,48,-1,77,20,ok,2,0,0.001,4,-0.77,-0.86,9.49,29,0.152,8.14
4.2908,-0.11345,-0.08029,0.65973,0.00000,0.00000,0.00000,51,1,59,-8,49,-1,78,17,ok,2,0,0.001,4,-0.77,-0.86,9.49,29,0.165,8.14
4.2940,-0.11345,-0.08029,0.65973,0.00000,0.00000,0.00000,51,1,56,-8,50,-1,80,14,ok,2,0,0.001,4,-0.77,-0.86,9.49,29,0.178,8.14
4.3065,-0.11345,-0.08029,0.65973,0.00000,0.00000,0.00000,51,4,54,-9,51,-1,80,13,ok,2,0,0.001,4,-0.77,-0.86,9.49,29,0.191,8.14
4.3267,-0.00524,-0.00349,0.68941,0.00000,0.00000,0.00000,52,5,51,-9,53,-1,80,10,ok,2,0,0.001,4,-1.16,0.30,9.79,30,0.000,8.14
4.3315,-0.00524,-0.00349,0.68941,0.00000,0.00000,0.00000,53,4,49,-9,54,0,80,7,ok,2,0,0.001,4,-1.16,0.30,9.79,30,0.012,8.14
4.3442,-0.00524,-0.00349,0.68941,0.00000,0.00000,0.00000,53,5,46,-9,55,1,79,3,ok,2,0,0.001,4,-1.16,0.30,9.79,30,0.025,8.14
4.3667,-0.00524,-0.00349,0.68941,0.00000,0.00000,0.00000,54,6,43,-9,55,1,79,2,ok,2,0,0.001,4,-1.16,0.30,9.79,30,0.038,8.14
4.3698,-0.00524,-0.00349,0.68941,0.00000,0.00000,0.00000,56,7,41,-9,57,1,78,-2,ok,2,0,0.001,4,-1.16,0.30,9.79,30,0.051,8.14
4.3824,-0.00524,-0.00349,0.68941,0.00000,0.00000,0.00000,56,7,39,-8,58,0,78,-3,ok,2,0,0.001,4,-1.16,0.30,9.79,30,0.063,8.14
4.4027,-0.00524,-0.00349,0.68941,0.00000,0.00000,0.00000,58,7,35,-7,58,1,76,-5,ok,2,0,0.001,4,-1.16,0.30,9.79,30,0.076,8.14
4.4075,-0.00524,-0.00349,0.68941,0.00000,0.00000,0.00000,58,8,33,-6,59,1,74,-7,ok,2,0,0.001,4,-1.16,0.30,9.79,30,0.088,8.14
4.4200,-0.00524,-0.00349,0.68941,0.00000,0.00000,0.00000,59,8,29,-5,60,1,72,-7,ok,2,0,0.001,4,-1.16,0.30,9.79,30,0.101,8.14
4.4428,-0.00524,-0.00349,0.68941,0.00000,0.00000,0.00000,60,9,26,-3,61,1,71,-9,ok,2,0,0.001,4,-1.16,0.30,9.79,30,0.113,8.14
4.4458,-0.00524,-0.00349,0.68941,0.00000,0.00000,0.00000,62,10,21,-1,62,0,69,-11,ok,2,0,0.001,4,-1.16,0.30,9.79,30,0.127,8.14
4.4584,-0.00524,-0.00349,0.68941,0.00000,0.00000,0.00000,62,10,20,0,64,-1,67,-12,ok,2,0,0.001,4,-1.16,0.30,9.79,30,0.140,8.14
4.4787,-0.00524,-0.00349,0.68941,0.00000,0.00000,0.00000,63,11,18,1,64,-1,65,-13,ok,2,0,0.001,4,-1.16,0.30,9.79,30,0.152,8.14
4.4835,-0.00524,-0.00349,0.68941,0.00000,0.00000,0.00000,63,12,16,3,65,0,63,-13,ok,2,0,0.001,4,-1.16,0.30,9.79,30,0.164,8.14
4.4960,-0.00524,-0.00349,0.68941,0.00000,0.00000,0.00000,64,12,14,7,66,0,61,-14,ok,2,0,0.001,4,-1.16,0.30,9.79,30,0.177,8.14
4.5188,-0.00524,-0.00349,0.68941,0.00000,0.00000,0.00000,64,14,12,10,66,1,59,-15,ok,2,0,0.001,4,-1.16,0.30,9.79,30,0.190,8.14
4.5221,-0.00349,-0.02094,0.71733,0.00000,0.00000,0.00000,65,14,11,12,67,1,56,-13,ok,2,0,0.001,4,0.23,0.50,10.92,31,0.000,8.14
4.5346,-0.00349,-0.02094,0.71733,0.00000,0.00000,0.00000,65,15,12,13,67,1,53,-12,ok,2,0,0.001,4,0.23,0.50,10.92,31,0.013,8.14
4.5547,-0.00349,-0.02094,0.71733,0.00000,0.00000,0.00000,65,16,12,13,68,1,51,-12,ok,2,0,0.001,4,0.23,0.50,10.92,31,0.025,8.14
4.5597,-0.00349,-0.02094,0.71733,0.00000,0.00000,0.00000,66,17,14,11,68,1,47,-11,ok,2,0,0.001,4,0.23,0.50,10.92,31,0.038,8.14
4.5720,-0.00349,-0.02094,0.71733,0.00000,0.00000,0.00000,66,18,15,11,69,2,45,-10,ok,2,0,0.001,5,0.23,0.50,10.92,31,0.050,8.14
4.5948,-0.00349,-0.02094,0.71733,0.00000,0.00000,0.00000,67,18,15,10,69,3,42,-9,ok,2,0,0.001,5,0.23,0.50,10.92,31,0.063,8.14
4.5978,-0.00349,-0.02094,0.71733,0.00000,0.00000,0.00000,67,19,17,9,70,3,40,-9,ok,2,0,0.001,5,0.23,0.50,10.92,31,0.076,8.14
4.6107,-0.00349,-0.02094,0.71733,0.00000,0.00000,0.00000,67,20,18,9,70,4,36,-7,ok,2,0,0.001,5,0.23,0.50,10.92,31,0.089,8.14
4.6308,-0.00349,-0.02094,0.71733,0.00000,0.00000,0.00000,68,21,20,8,71,5,34,-5,ok,2,0,0.001,5,0.23,0.50,10.92,31,0.101,8.14
4.6356,-0.00349,-0.02094,0.71733,0.00000,0.00000,0.00000,68,22,21,7,71,6,32,-4,ok,2,0,0.001,5,0.23,0.50,10.92,31,0.114,8.14
4.6480,-0.00349,-0.02094,0.71733,0.00000,0.00000,0.00000,67,23,22,6,70,7,30,-1,ok,2,0,0.001,5,0.23,0.50,10.92,31,0.126,8.14
4.6708,-0.00349,-0.02094,0.71733,0.00000,0.00000,0.00000,67,24,23,6,71,8,29,2,ok,2,0,0.001,5,0.23,0.50,10.92,31,0.139,8.14
4.6738,-0.00349,-0.02094,0.71733,0.00000,0.00000,0.00000,67,25,25,5,71,9,27,5,ok,2,0,0.001,5,0.23,0.50,10.92,31,0.152,8.14
4.6865,-0.00349,-0.02094,0.71733,0.00000,0.00000,0.00000,66,28,26,5,71,10,27,7,ok,2,0,0.001,5,0.23,0.50,10.92,31,0.165,8.14
4.7067,-0.00349,-0.02094,0.71733,0.00000,0.00000,0.00000,65,29,27,4,71,12,29,6,ok,2,0,0.001,5,0.23,0.50,10.92,31,0.177,8.14
4.7116,-0.00349,-0.02094,0.71733,0.00000,0.00000,0.00000,67,28,28,4,71,13,29,6,ok,2,0,0.001,5,0.23,0.50,10.92,31,0.190,8.14
4.7243,0.03316,0.01396,0.78191,0.00000,0.00000,0.00000,69,25,30,3,72,14,31,4,ok,2,0,0.001,5,-0.07,-0.41,8.88,32,0.000,8.14
4.7467,0.03316,0.01396,0.78191,0.00000,0.00000,0.00000,71,21,31,2,71,16,32,3,ok,2,0,0.001,5,-0.07,-0.41,8.88,32,0.012,8.14
4.7498,0.03316,0.01396,0.78191,0.00000,0.00000,0.00000,72,17,32,2,71,18,33,3,ok,2,0,0.001,5,-0.07,-0.41,8.88,32,0.026,8.14
4.7625,0.03316,0.01396,0.78191,0.00000,0.00000,0.00000,72,15,34,2,72,18,34,2,ok,2,0,0.001,5,-0.07,-0.41,8.88,32,0.038,8.14
4.7827,0.03316,0.01396,0.78191,0.00000,0.00000,0.00000,72,14,35,2,71,21,36,1,ok,2,0,0.001,5,-0.07,-0.41,8.88,32,0.051,8.14
4.7875,0.03316,0.01396,0.78191,0.00000,0.00000,0.00000,72,11,36,2,71,22,38,1,ok,2,0,0.001,5,-0.07,-0.41,8.88,32,0.063,8.14
4.8000,0.03316,0.01396,0.78191,0.00000,0.00000,0.00000,71,7,38,2,71,24,39,2,ok,2,0,0.001,5,-0.07,-0.41,8.88,32,0.076,8.14
4.8227,0.03316,0.01396,0.78191,0.00000,0.00000,0.00000,71,5,39,2,71,25,40,1,ok,2,0,0.001,5,-0.07,-0.41,8.88,32,0.088,8.14
4.8258,0.03316,0.01396,0.78191,0.00000,0.00000,0.00000,70,1,40,2,70,27,42,2,ok,2,0,0.001,5,-0.07,-0.41,8.88,32,0.102,8.14
4.8387,0.03316,0.01396,0.78191,0.00000,0.00000,0.00000,69,-1,41,1,70,28,43,2,ok,2,0,0.001,5,-0.07,-0.41,8.88,32,0.114,8.14
4.8587,0.03316,0.01396,0.78191,0.00000,0.00000,0.00000,67,-3,43,2,71,29,44,1,ok,2,0,0.001,5,-0.07,-0.41,8.88,32,0.127,8.14
4.8635,0.03316,0.01396,0.78191,0.00000,0.00000,0.00000,65,-4,43,2,72,28,45,1,ok,2,0,0.001,5,-0.07,-0.41,8.88,32,0.139,8.14
4.8760,0.03316,0.01396,0.78191,0.00000,0.00000,0.00000,64,-6,45,2,73,26,46,0,ok,2,0,0.001,5,-0.07,-0.41,8.88,32,0.152,8.14
4.8988,0.03316,0.01396,0.78191,0.00000,0.00000,0.00000,63,-8,46,2,75,21,48,0,ok,2,0,0.001,5,-0.07,-0.41,8.88,32,0.164,8.14
4.9018,0.03316,0.01396,0.78191,0.00000,0.00000,0.00000,61,-9,48,3,77,17,49,0,ok,2,0,0.001,5,-0.07,-0.41,8.88,32,0.178,8.14
4.9146,0.03316,0.01396,0.78191,0.00000,0.00000,0.00000,59,-10,49,3,78,14,49,0,ok,2,0,0.001,5,-0.07,-0.41,8.88,32,0.190,8.14
4.9347,0.03316,0.01396,0.78191,0.00000,0.00000,0.00000,56,-11,50,3,78,13,50,1,ok,2,0,0.001,5,-0.07,-0.41,8.88,32,0.203,8.14
4.9398,0.09425,0.02793,0.76969,0.00000,0.00000,0.00000,54,-12,50,5,78,11,51,1,ok,2,0,0.001,5,0.56,1.10,9.80,33,0.000,8.14
4.9519,0.09425,0.02793,0.76969,0.00000,0.00000,0.00000,51,-11,51,6,78,8,52,0,ok,2,0,0.001,5,0.56,1.10,9.80,33,0.013,8.14
4.9749,0.09425,0.02793,0.76969,0.00000,0.00000,0.00000,49,-11,52,5,78,5,53,0,ok,2,0,0.001,5,0.56,1.10,9.80,33,0.025,8.14
4.9780,0.09425,0.02793,0.76969,0.00000,0.00000,0.00000,46,-11,53,6,77,3,54,0,ok,2,0,0.001,5,0.56,1.10,9.80,33,0.039,8.14
4.9906,0.09425,0.02793,0.76969,0.00000,0.00000,0.00000,44,-11,53,7,76,-1,55,1,ok,2,0,0.001,5,0.56,1.10,9.80,33,0.051,8.14
5.0107,0.09425,0.02793,0.76969,0.00000,0.00000,0.00000,42,-11,55,7,76,-3,55,0,ok,2,0,0.002,5,0.56,1.10,9.80,33,0.064,8.14
5.0226,0.09425,0.02793,0.76969,0.00000,0.00000,0.00000,39,-10,56,7,75,-4,56,0,ok,2,0,0.002,5,0.56,1.10,9.80,33,0.076,8.14
5.0281,0.09425,0.02793,0.76969,0.00000,0.00000,0.00000,36,-9,57,7,73,-7,57,-1,ok,2,0,0.002,5,0.56,1.10,9.80,33,0.089,8.14
5.0508,0.09425,0.02793,0.76969,0.00000,0.00000,0.00000,34,-8,57,8,70,-7,57,0,ok,2,0,0.002,5,0.56,1.10,9.80,33,0.101,8.14
5.0538,0.09425,0.02793,0.76969,0.00000,0.00000,0.00000,30,-6,58,8,69,-9,58,0,ok,2,0,0.002,5,0.56,1.10,9.80,33,0.114,8.14
5.0665,0.09425,0.02793,0.76969,0.00000,0.00000,0.00000,27,-4,58,9,68,-11,59,1,ok,2,0,0.002,5,0.56,1.10,9.80,33,0.127,8.14
5.0867,0.09425,0.02793,0.76969,0.00000,0.00000,0.00000,23,-2,60,11,66,-12,60,0,ok,2,0,0.002,5,0.56,1.10,9.80,33,0.140,8.14
5.0917,0.09425,0.02793,0.76969,0.00000,0.00000,0.00000,21,-1,61,11,64,-13,61,0,ok,2,0,0.002,5,0.56,1.10,9.80,33,0.152,8.14
5.1040,0.09425,0.02793,0.76969,0.00000,0.00000,0.00000,20,1,62,11,62,-13,64,-2,ok,2,0,0.002,5,0.56,1.10,9.80,33,0.165,8.14
5.1268,0.09425,0.02793,0.76969,0.00000,0.00000,0.00000,18,3,62,12,59,-14,64,-1,ok,2,0,0.002,5,0.56,1.10,9.80,33,0.177,8.14
5.1304,0.13265,-0.02967,0.79412,0.00000,0.00000,0.00000,15,7,62,13,57,-14,65,-1,ok,2,0,0.002,5,0.07,1.27,9.92,34,0.000,8.12
5.1425,0.13265,-0.02967,0.79412,0.00000,0.00000,0.00000,14,10,62,14,54,-13,66,-1,ok,2,0,0.002,5,0.07,1.27,9.92,34,0.013,8.12
5.1627,0.13265,-0.02967,0.79412,0.00000,0.00000,0.00000,12,12,63,15,52,-13,66,-1,ok,2,0,0.002,5,0.07,1.27,9.92,34,0.025,8.12
5.1676,0.13265,-0.02967,0.79412,0.00000,0.00000,0.00000,14,13,63,16,49,-13,67,0,ok,2,0,0.002,5,0.07,1.27,9.92,34,0.038,8.12
5.1800,0.13265,-0.02967,0.79412,0.00000,0.00000,0.00000,14,13,64,17,46,-11,68,0,ok,2,0,0.002,5,0.07,1.27,9.92,34,0.050,8.12
5.2027,0.13265,-0.02967,0.79412,0.00000,0.00000,0.00000,15,12,64,17,44,-11,68,0,ok,2,0,0.002,5,0.07,1.27,9.92,34,0.063,8.12
5.2058,0.13265,-0.02967,0.79412,0.00000,0.00000,0.00000,16,12,64,18,41,-10,69,1,ok,2,0,0.002,5,0.07,1.27,9.92,34,0.076,8.12
5.2186,0.13265,-0.02967,0.79412,0.00000,0.00000,0.00000,17,11,65,19,38,-9,70,2,ok,2,0,0.002,5,0.07,1.27,9.92,34,0.089,8.12
5.2387,0.13265,-0.02967,0.79412,0.00000,0.00000,0.00000,19,10,65,19,35,-8,70,2,ok,2,0,0.002,5,0.07,1.27,9.92,34,0.101,8.12
5.2435,0.13265,-0.02967,0.79412,0.00000,0.00000,0.00000,20,10,65,21,33,-6,71,3,ok,2,0,0.002,5,0.07,1.27,9.92,34,0.114,8.12
5.2560,0.13265,-0.02967,0.79412,0.00000,0.00000,0.00000,22,9,66,21,31,-5,71,4,ok,2,0,0.002,5,0.07,1.27,9.92,34,0.126,8.12
5.2788,0.13265,-0.02967,0.79412,0.00000,0.00000,0.00000,23,8,66,23,29,-2,72,5,ok,2,0,0.002,5,0.07,1.27,9.92,34,0.139,8.12
5.2819,0.13265,-0.02967,0.79412,0.00000,0.00000,0.00000,24,7,65,23,27,0,72,6,ok,2,0,0.002,5,0.07,1.27,9.92,34,0.152,8.12
5.2946,0.13265,-0.02967,0.79412,0.00000,0.00000,0.00000,26,6,65,24,26,4,72,7,ok,2,0,0.002,5,0.07,1.27,9.92,34,0.165,8.12
5.3148,0.13265,-0.02967,0.79412,0.00000,0.00000,0.00000,27,6,65,25,26,6,73,8,ok,2,0,0.002,5,0.07,1.27,9.92,34,0.177,8.12
5.3197,0.13265,-0.02967,0.79412,0.00000,0.00000,0.00000,28,5,64,28,27,6,73,9,ok,2,0,0.002,5,0.07,1.27,9.92,34,0.190,8.12
5.3324,0.04538,0.00349,0.78191,0.00000,0.00000,0.00000,29,4,64,29,28,5,73,11,ok,2,0,0.002,5,0.79,-0.14,10.41,35,0.000,8.12
5.3548,0.04538,0.00349,0.78191,0.00000,0.00000,0.00000,30,4,65,28,29,3,73,13,ok,2,0,0.002,5,0.79,-0.14,10.41,35,0.012,8.12
5.3578,0.04538,0.00349,0.78191,0.00000,0.00000,0.00000,32,3,67,25,30,2,73,15,ok,2,0,0.002,5,0.79,-0.14,10.41,35,0.026,8.12
5.3705,0.04538,0.00349,0.78191,0.00000,0.00000,0.00000,33,3,70,21,31,2,74,16,ok,2,0,0.002,5,0.79,-0.14,10.41,35,0.039,8.12
5.3908,0.04538,0.00349,0.78191,0.00000,0.00000,0.00000,34,2,71,17,32,2,73,18,ok,2,0,0.002,5,0.79,-0.14,10.41,35,0.051,8.12
5.3955,0.04538,0.00349,0.78191,0.00000,0.00000,0.00000,36,2,71,15,34,1,73,20,ok,2,0,0.002,5,0.79,-0.14,10.41,35,0.063,8.12
5.4079,0.04538,0.00349,0.78191,0.00000,0.00000,0.00000,37,1,71,15,36,1,74,20,ok,2,0,0.002,5,0.79,-0.14,10.41,35,0.076,8.12
5.4308,0.04538,0.00349,0.78191,0.00000,0.00000,0.00000,38,1,71,11,36,1,73,22,ok,2,0,0.002,5,0.79,-0.14,10.41,35,0.089,8.12
5.4339,0.04538,0.00349,0.78191,0.00000,0.00000,0.00000,40,1,71,8,38,2,73,24,ok,2,0,0.002,5,0.79,-0.14,10.41,35,0.102,8.12
5.4467,0.04538,0.00349,0.78191,0.00000,0.00000,0.00000,41,1,70,6,40,1,73,25,ok,2,0,0.002,5,0.79,-0.14,10.41,35,0.114,8.12
5.4667,0.04538,0.00349,0.78191,0.00000,0.00000,0.00000,43,0,70,3,41,2,73,26,ok,2,0,0.002,5,0.79,-0.14,10.41,35,0.127,8.12
5.4715,0.04538,0.00349,0.78191,0.00000,0.00000,0.00000,44,0,68,1,42,1,72,28,ok,2,0,0.002,5,0.79,-0.14,10.41,35,0.139,8.12
5.4840,0.04538,0.00349,0.78191,0.00000,0.00000,0.00000,46,0,67,0,43,1,72,29,ok,2,0,0.002,5,0.79,-0.14,10.41,35,0.152,8.12
5.5068,0.04538,0.00349,0.78191,0.00000,0.00000,0.00000,46,0,65,-2,44,0,73,29,ok,2,0,0.002,5,0.79,-0.14,10.41,35,0.164,8.12
5.5098,0.04538,0.00349,0.78191,0.00000,0.00000,0.00000,47,1,64,-4,46,0,74,28,ok,2,0,0.002,5,0.79,-0.14,10.41,35,0.178,8.12
5.5225,0.04538,0.00349,0.78191,0.00000,0.00000,0.00000,49,1,63,-6,47,0,76,26,ok,2,0,0.002,5,0.79,-0.14,10.41,35,0.190,8.12
5.5427,0.04538,0.00349,0.78191,0.00000,0.00000,0.00000,50,2,61,-7,48,0,78,21,ok,2,0,0.002,5,0.79,-0.14,10.41,35,0.203,8.12
5.5477,-0.08901,-0.01047,0.83427,0.00000,0.00000,0.00000,51,1,59,-8,49,0,79,17,ok,2,0,0.002,5,1.29,-1.85,10.36,36,0.000,8.12
5.5600,-0.08901,-0.01047,0.83427,0.00000,0.00000,0.00000,52,1,56,-8,50,0,81,14,ok,2,0,0.002,5,1.29,-1.85,10.36,36,0.013,8.12
5.5828,-0.08901,-0.01047,0.83427,0.00000,0.00000,0.00000,52,3,54,-9,51,0,81,14,ok,2,0,0.002,5,1.29,-1.85,10.36,36,0.025,8.12
5.5859,-0.08901,-0.01047,0.83427,0.00000,0.00000,0.00000,53,4,51,-9,52,0,81,11,ok,2,0,0.002,6,1.29,-1.85,10.36,36,0.038,8.12
5.5986,-0.08901,-0.01047,0.83427,0.00000,0.00000,0.00000,54,4,48,-9,54,0,81,8,ok,2,0,0.002,6,1.29,-1.85,10.36,36,0.051,8.12
5.6187,-0.08901,-0.01047,0.83427,0.00000,0.00000,0.00000,54,5,46,-8,54,1,80,4,ok,2,0,0.002,6,1.29,-1.85,10.36,36,0.064,8.12
5.6236,-0.08901,-0.01047,0.83427,0.00000,0.00000,0.00000,54,6,43,-9,55,1,80,2,ok,2,0,0.002,6,1.29,-1.85,10.36,36,0.076,8.12
5.6361,-0.08901,-0.01047,0.83427,0.00000,0.00000,0.00000,56,6,41,-9,56,1,79,-1,ok,2,0,0.002,6,1.29,-1.85,10.36,36,0.089,8.12
5.6588,-0.08901,-0.01047,0.83427,0.00000,0.00000,0.00000,57,6,39,-8,57,0,78,-3,ok,2,0,0.002,6,1.29,-1.85,10.36,36,0.101,8.12
5.6619,-0.08901,-0.01047,0.83427,0.00000,0.00000,0.00000,58,7,35,-7,58,1,77,-5,ok,2,0,0.002,6,1.29,-1.85,10.36,36,0.114,8.12
5.6746,-0.08901,-0.01047,0.83427,0.00000,0.00000,0.00000,58,8,33,-6,59,1,75,-7,ok,2,0,0.002,6,1.29,-1.85,10.36,36,0.127,8.12
5.6948,-0.08901,-0.01047,0.83427,0.00000,0.00000,0.00000,59,8,29,-5,60,1,72,-7,ok,2,0,0.002,6,1.29,-1.85,10.36,36,0.140,8.12
5.6996,-0.08901,-0.01047,0.83427,0.00000,0.00000,0.00000,60,9,26,-3,61,1,71,-9,ok,2,0,0.002,6,1.29,-1.85,10.36,36,0.152,8.12
5.7120,-0.08901,-0.01047,0.83427,0.00000,0.00000,0.00000,62,10,22,-1,62,1,69,-11,ok,2,0,0.002,6,1.29,-1.85,10.36,36,0.165,8.12
5.7348,-0.08901,-0.01047,0.83427,0.00000,0.00000,0.00000,62,10,20,0,64,-1,67,-12,ok,2,0,0.002,6,1.29,-1.85,10.36,36,0.177,8.12
5.7380,-0.07505,-0.00349,0.87092,0.00000,0.00000,0.00000,63,11,18,1,64,-1,65,-13,ok,2,0,0.002,6,-0.44,-0.69,10.28,37,0.000,8.12
5.7505,-0.07505,-0.00349,0.87092,0.00000,0.00000,0.00000,63,12,16,4,65,0,63,-13,ok,2,0,0.002,6,-0.44,-0.69,10.28,37,0.013,8.12
5.7707,-0.07505,-0.00349,0.87092,0.00000,0.00000,0.00000,64,12,14,7,65,0,61,-14,ok,2,0,0.002,6,-0.44,-0.69,10.28,37,0.025,8.12
5.7757,-0.07505,-0.00349,0.87092,0.00000,0.00000,0.00000,64,13,12,10,66,0,59,-14,ok,2,0,0.002,6,-0.44,-0.69,10.28,37,0.038,8.12
5.7880,-0.07505,-0.00349,0.87092,0.00000,0.00000,0.00000,65,14,11,12,67,0,56,-13,ok,2,0,0.002,6,-0.44,-0.69,10.28,37,0.050,8.12
5.8108,-0.07505,-0.00349,0.87092,0.00000,0.00000,0.00000,65,15,12,13,67,1,53,-12,ok,2,0,0.002,6,-0.44,-0.69,10.28,37,0.063,8.12
5.8141,-0.07505,-0.00349,0.87092,0.00000,0.00000,0.00000,65,16,12,13,68,1,50,-12,ok,2,0,0.002,6,-0.44,-0.69,10.28,37,0.076,8.12
5.8266,-0.07505,-0.00349,0.87092,0.00000,0.00000,0.00000,66,16,14,12,68,1,47,-11,ok,2,0,0.002,6,-0.44,-0.69,10.28,37,0.089,8.12
5.8467,-0.07505,-0.00349,0.87092,0.00000,0.00000,0.00000,66,18,15,11,69,2,45,-10,ok,2,0,0.002,6,-0.44,-0.69,10.28,37,0.101,8.12
5.8515,-0.07505,-0.00349,0.87092,0.00000,0.00000,0.00000,67,18,15,10,69,3,42,-9,ok,2,0,0.002,6,-0.44,-0.69,10.28,37,0.114,8.12
5.8640,-0.07505,-0.00349,0.87092,0.00000,0.00000,0.00000,67,19,17,9,70,3,39,-8,ok,2,0,0.002,6,-0.44,-0.69,10.28,37,0.126,8.12
5.8868,-0.07505,-0.00349,0.87092,0.00000,0.00000,0.00000,67,20,18,9,70,5,36,-7,ok,2,0,0.002,6,-0.44,-0.69,10.28,37,0.139,8.12
5.8898,-0.07505,-0.00349,0.87092,0.00000,0.00000,0.00000,68,21,20,8,71,5,34,-5,ok,2,0,0.002,6,-0.44,-0.69,10.28,37,0.152,8.12
5.9025,-0.07505,-0.00349,0.87092,0.00000,0.00000,0.00000,68,22,21,7,71,6,32,-4,ok,2,0,0.002,6,-0.44,-0.69,10.28,37,0.165,8.12
5.9227,-0.07505,-0.00349,0.87092,0.00000,0.00000,0.00000,67,23,22,7,70,7,30,-1,ok,2,0,0.002,6,-0.44,-0.69,10.28,37,0.177,8.12
5.9275,-0.07505,-0.00349,0.87092,0.00000,0.00000,0.00000,67,24,23,6,71,8,29,2,ok,2,0,0.002,6,-0.44,-0.69,10.28,37,0.190,8.12
5.9403,0.06632,-0.00698,0.89710,0.00000,0.00000,0.00000,67,25,25,5,71,9,27,5,ok,2,0,0.002,6,-0.45,0.17,9.56,38,0.000,8.12
5.9627,0.06632,-0.00698,0.89710,0.00000,0.00000,0.00000,66,28,26,5,71,10,27,7,ok,2,0,0.002,6,-0.45,0.17,9.56,38,0.013,8.12
5.9658,0.06632,-0.00698,0.89710,0.00000,0.00000,0.00000,65,29,27,4,71,12,29,6,ok,2,0,0.002,6,-0.45,0.17,9.56,38,0.026,8.12
5.9784,0.06632,-0.00698,0.89710,0.00000,0.00000,0.00000,66,28,28,4,71,13,29,5,ok,2,0,0.002,6,-0.45,0.17,9.56,38,0.039,8.12
5.9987,0.06632,-0.00698,0.89710,0.00000,0.00000,0.00000,69,25,30,3,71,15,31,3,ok,2,0,0.002,6,-0.45,0.17,9.56,38,0.051,8.12
6.0035,0.06632,-0.00698,0.89710,0.00000,0.00000,0.00000,71,21,31,2,71,16,32,3,ok,2,0,0.002,6,-0.45,0.17,9.56,38,0.063,8.12
6.0161,0.06632,-0.00698,0.89710,0.00000,0.00000,0.00000,72,17,32,2,71,18,33,3,ok,2,0,0.002,6,-0.45,0.17,9.56,38,0.076,8.12
6.0388,0.06632,-0.00698,0.89710,0.00000,0.00000,0.00000,73,15,34,2,72,19,34,2,ok,2,0,0.002,6,-0.45,0.17,9.56,38,0.089,8.12
6.0418,0.06632,-0.00698,0.89710,0.00000,0.00000,0.00000,72,14,35,2,71,21,36,1,ok,2,0,0.002,6,-0.45,0.17,9.56,38,0.102,8.12
6.0545,0.06632,-0.00698,0.89710,0.00000,0.00000,0.00000,72,11,36,2,71,22,38,1,ok,2,0,0.002,6,-0.45,0.17,9.56,38,0.115,8.12
6.0747,0.06632,-0.00698,0.89710,0.00000,0.00000,0.00000,72,8,38,2,71,24,39,2,ok,2,0,0.002,6,-0.45,0.17,9.56,38,0.127,8.12
6.0796,0.06632,-0.00698,0.89710,0.00000,0.00000,0.00000,71,5,39,2,71,25,41,1,ok,2,0,0.002,6,-0.45,0.17,9.56,38,0.140,8.12
6.0920,0.06632,-0.00698,0.89710,0.00000,0.00000,0.00000,70,1,40,2,70,27,42,2,ok,2,0,0.002,6,-0.45,0.17,9.56,38,0.152,8.12
6.1148,0.06632,-0.00698,0.89710,0.00000,0.00000,0.00000,69,-1,42,2,70,29,43,2,ok,2,0,0.002,6,-0.45,0.17,9.56,38,0.164,8.12
6.1178,0.06632,-0.00698,0.89710,0.00000,0.00000,0.00000,68,-3,43,2,70,29,44,1,ok,2,0,0.002,6,-0.45,0.17,9.56,38,0.178,8.12
6.1305,0.06632,-0.00698,0.89710,0.00000,0.00000,0.00000,65,-4,44,2,72,28,45,1,ok,2,0,0.002,6,-0.45,0.17,9.56,38,0.191,8.12
6.1507,0.06632,-0.00698,0.89710,0.00000,0.00000,0.00000,64,-6,45,3,73,26,47,0,ok,2,0,0.002,6,-0.45,0.17,9.56,38,0.203,8.12
6.1557,0.06632,0.02443,0.96866,0.00000,0.00000,0.00000,63,-8,46,3,75,22,48,0,ok,2,0,0.002,6,0.91,1.00,9.55,39,0.000,8.12
6.1680,0.06632,0.02443,0.96866,0.00000,0.00000,0.00000,61,-9,48,3,77,17,49,0,ok,2,0,0.002,6,0.91,1.00,9.55,39,0.013,8.12
6.1908,0.06632,0.02443,0.96866,0.00000,0.00000,0.00000,59,-10,49,3,78,14,49,0,ok,2,0,0.002,6,0.91,1.00,9.55,39,0.025,8.12
6.1938,0.06632,0.02443,0.96866,0.00000,0.00000,0.00000,57,-11,50,3,78,14,50,0,ok,2,0,0.002,6,0.91,1.00,9.55,39,0.038,8.12
6.2065,0.06632,0.02443,0.96866,0.00000,0.00000,0.00000,54,-11,50,5,78,12,51,0,ok,2,0,0.002,6,0.91,1.00,9.55,39,0.051,8.12
6.2267,0.06632,0.02443,0.96866,0.00000,0.00000,0.00000,52,-11,51,6,78,8,52,0,ok,2,0,0.002,6,0.91,1.00,9.55,39,0.064,8.12
6.2315,0.06632,0.02443,0.96866,0.00000,0.00000,0.00000,49,-11,52,6,78,5,53,0,ok,2,0,0.002,6,0.91,1.00,9.55,39,0.076,8.12
6.2440,0.06632,0.02443,0.96866,0.00000,0.00000,0.00000,47,-11,53,6,77,3,54,0,ok,2,0,0.002,6,0.91,1.00,9.55,39,0.089,8.12
6.2668,0.06632,0.02443,0.96866,0.00000,0.00000,0.00000,44,-11,53,7,76,-1,55,1,ok,2,0,0.002,6,0.91,1.00,9.55,39,0.101,8.12
6.2698,0.06632,0.02443,0.96866,0.00000,0.00000,0.00000,42,-11,55,7,76,-3,55,0,ok,2,0,0.002,6,0.91,1.00,9.55,39,0.114,8.12
6.2825,0.06632,0.02443,0.96866,0.00000,0.00000,0.00000,40,-10,55,7,75,-4,57,1,ok,2,0,0.002,6,0.91,1.00,9.55,39,0.127,8.12
6.3027,0.06632,0.02443,0.96866,0.00000,0.00000,0.00000,37,-9,57,8,73,-7,57,-1,ok,2,0,0.002,6,0.91,1.00,9.55,39,0.140,8.12
6.3075,0.06632,0.02443,0.96866,0.00000,0.00000,0.00000,34,-8,57,8,70,-7,58,0,ok,2,0,0.002,6,0.91,1.00,9.55,39,0.152,8.12
6.3200,0.06632,0.02443,0.96866,0.00000,0.00000,0.00000,30,-6,58,9,69,-9,58,0,ok,2,0,0.002,6,0.91,1.00,9.55,39,0.165,8.12
6.3467,0.06632,0.02443,0.96866,0.00000,0.00000,0.00000,28,-4,58,9,68,-10,60,1,ok,2,0,0.002,6,0.91,1.00,9.55,39,0.177,8.12
6.3501,0.09948,-0.04538,0.96866,0.00000,0.00000,0.00000,24,-2,60,11,66,-12,60,0,ok,2,0,0.002,6,-0.51,1.16,9.00,40,0.000,8.12
6.3626,0.09948,-0.04538,0.96866,0.00000,0.00000,0.00000,22,-1,61,11,64,-13,61,0,ok,2,0,0.002,6,-0.51,1.16,9.00,40,0.013,8.12
6.3827,0.09948,-0.04538,0.96866,0.00000,0.00000,0.00000,20,0,62,11,62,-13,64,-2,ok,2,0,0.002,6,-0.51,1.16,9.00,40,0.025,8.12
6.3875,0.09948,-0.04538,0.96866,0.00000,0.00000,0.00000,18,3,62,12,59,-14,64,-1,ok,2,0,0.002,6,-0.51,1.16,9.00,40,0.038,8.12
6.4000,0.09948,-0.04538,0.96866,0.00000,0.00000,0.00000,16,6,63,13,57,-14,65,-1,ok,2,0,0.002,6,-0.51,1.16,9.00,40,0.050,8.12
6.4227,0.09948,-0.04538,0.96866,0.00000,0.00000,0.00000,14,10,63,14,54,-13,66,-1,ok,2,0,0.002,6,-0.51,1.16,9.00,40,0.063,8.12
6.4258,0.09948,-0.04538,0.96866,0.00000,0.00000,0.00000,12,13,63,15,51,-13,66,-1,ok,2,0,0.002,6,-0.51,1.16,9.00,40,0.076,8.12
6.4384,0.09948,-0.04538,0.96866,0.00000,0.00000,0.00000,14,13,63,16,49,-13,67,0,ok,2,0,0.002,6,-0.51,1.16,9.00,40,0.089,8.12
6.4587,0.09948,-0.04538,0.96866,0.00000,0.00000,0.00000,14,13,63,17,46,-12,67,0,ok,2,0,0.002,6,-0.51,1.16,9.00,40,0.101,8.12
6.4635,0.09948,-0.04538,0.96866,0.00000,0.00000,0.00000,15,12,64,17,44,-11,68,1,ok,2,0,0.002,6,-0.51,1.16,9.00,40,0.114,8.12
6.4760,0.09948,-0.04538,0.96866,0.00000,0.00000,0.00000,17,12,64,18,41,-10,69,1,ok,2,0,0.002,6,-0.51,1.16,9.00,40,0.126,8.12
6.4987,0.09948,-0.04538,0.96866,0.00000,0.00000,0.00000,17,11,65,19,38,-9,70,2,ok,2,0,0.002,6,-0.51,1.16,9.00,40,0.139,8.12
6.5020,0.09948,-0.04538,0.96866,0.00000,0.00000,0.00000,19,10,65,20,34,-8,70,2,ok,2,0,0.002,6,-0.51,1.16,9.00,40,0.152,8.12
6.5144,0.09948,-0.04538,0.96866,0.00000,0.00000,0.00000,20,10,65,21,33,-6,71,3,ok,2,0,0.002,6,-0.51,1.16,9.00,40,0.165,8.12
6.5347,0.09948,-0.04538,0.96866,0.00000,0.00000,0.00000,22,8,66,21,31,-5,71,5,ok,2,0,0.002,6,-0.51,1.16,9.00,40,0.177,8.12
6.5396,0.09948,-0.04538,0.96866,0.00000,0.00000,0.00000,23,8,66,23,28,-2,72,5,ok,2,0,0.002,6,-0.51,1.16,9.00,40,0.190,8.12
6.5522,0.03491,0.00873,1.00880,0.00000,0.00000,0.00000,25,7,65,23,27,0,72,6,ok,2,0,0.002,6,1.07,0.89,10.63,41,0.000,8.12
6.5748,0.03491,0.00873,1.00880,0.00000,0.00000,0.00000,26,6,65,24,26,4,72,8,ok,2,0,0.002,6,1.07,0.89,10.63,41,0.013,8.12
6.5778,0.03491,0.00873,1.00880,0.00000,0.00000,0.00000,27,6,65,25,26,6,73,9,ok,2,0,0.002,6,1.07,0.89,10.63,41,0.026,8.12
6.5905,0.03491,0.00873,1.00880,0.00000,0.00000,0.00000,28,6,64,28,27,6,73,10,ok,2,0,0.002,6,1.07,0.89,10.63,41,0.039,8.12
6.6107,0.03491,0.00873,1.00880,0.00000,0.00000,0.00000,30,4,63,29,28,5,73,11,ok,2,0,0.002,7,1.07,0.89,10.63,41,0.051,8.12
6.6155,0.03491,0.00873,1.00880,0.00000,0.00000,0.00000,31,4,65,28,29,3,73,13,ok,2,0,0.002,7,1.07,0.89,10.63,41,0.064,8.12
6.6280,0.03491,0.00873,1.00880,0.00000,0.00000,0.00000,32,3,67,25,30,3,74,15,ok,2,0,0.002,7,1.07,0.89,10.63,41,0.076,8.12
6.6508,0.03491,0.00873,1.00880,0.00000,0.00000,0.00000,33,3,70,21,31,3,74,16,ok,2,0,0.002,7,1.07,0.89,10.63,41,0.089,8.12
6.6542,0.03491,0.00873,1.00880,0.00000,0.00000,0.00000,35,2,71,17,32,2,73,18,ok,2,0,0.002,7,1.07,0.89,10.63,41,0.102,8.12
6.6666,0.03491,0.00873,1.00880,0.00000,0.00000,0.00000,36,2,71,15,34,1,73,20,ok,2,0,0.002,7,1.07,0.89,10.63,41,0.115,8.12
6.6867,0.03491,0.00873,1.00880,0.00000,0.00000,0.00000,38,1,71,15,36,2,74,20,ok,2,0,0.002,7,1.07,0.89,10.63,41,0.127,8.12
6.6916,0.03491,0.00873,1.00880,0.00000,0.00000,0.00000,39,1,71,11,37,2,73,22,ok,2,0,0.002,7,1.07,0.89,10.63,41,0.140,8.12
6.7041,0.03491,0.00873,1.00880,0.00000,0.00000,0.00000,40,1,71,8,38,2,72,24,ok,2,0,0.002,7,1.07,0.89,10.63,41,0.152,8.12
6.7268,0.03491,0.00873,1.00880,0.00000,0.00000,0.00000,42,1,70,5,40,1,73,25,ok,2,0,0.002,7,1.07,0.89,10.63,41,0.165,8.12
6.7298,0.03491,0.00873,1.00880,0.00000,0.00000,0.00000,43,0,69,3,41,2,73,26,ok,2,0,0.002,7,1.07,0.89,10.63,41,0.178,8.12
6.7428,0.03491,0.00873,1.00880,0.00000,0.00000,0.00000,44,0,68,1,42,1,72,28,ok,2,0,0.002,7,1.07,0.89,10.63,41,0.191,8.12
6.7627,-0.02094,-0.01396,0.97738,0.00000,0.00000,0.00000,46,0,67,0,43,1,72,29,ok,2,0,0.002,7,0.11,-0.92,7.61,42,0.000,8.12
6.7677,-0.02094,-0.01396,0.97738,0.00000,0.00000,0.00000,46,0,65,-2,44,0,73,29,ok,2,0,0.002,7,0.11,-0.92,7.61,42,0.012,8.12
6.7800,-0.02094,-0.01396,0.97738,0.00000,0.00000,0.00000,48,0,64,-4,46,0,74,29,ok,2,0,0.002,7,0.11,-0.92,7.61,42,0.025,8.12
6.8028,-0.02094,-0.01396,0.97738,0.00000,0.00000,0.00000,49,0,63,-6,47,0,76,26,ok,2,0,0.002,7,0.11,-0.92,7.61,42,0.038,8.12
6.8058,-0.02094,-0.01396,0.97738,0.00000,0.00000,0.00000,50,1,61,-7,48,0,78,21,ok,2,0,0.002,7,0.11,-0.92,7.61,42,0.051,8.12
6.8185,-0.02094,-0.01396,0.97738,0.00000,0.00000,0.00000,51,1,59,-8,48,0,79,17,ok,2,0,0.002,7,0.11,-0.92,7.61,42,0.063,8.12
6.8387,-0.02094,-0.01396,0.97738,0.00000,0.00000,0.00000,52,1,56,-8,50,0,81,14,ok,2,0,0.002,7,0.11,-0.92,7.61,42,0.076,8.12
6.8436,-0.02094,-0.01396,0.97738,0.00000,0.00000,0.00000,52,3,54,-9,51,0,81,14,ok,2,0,0.002,7,0.11,-0.92,7.61,42,0.088,8.12
6.8562,-0.02094,-0.01396,0.97738,0.00000,0.00000,0.00000,53,4,51,-9,52,0,81,11,ok,2,0,0.002,7,0.11,-0.92,7.61,42,0.101,8.12
6.8788,-0.02094,-0.01396,0.97738,0.00000,0.00000,0.00000,54,4,48,-9,53,0,81,7,ok,2,0,0.002,7,0.11,-0.92,7.61,42,0.113,8.12
6.8819,-0.02094,-0.01396,0.97738,0.00000,0.00000,0.00000,54,5,46,-8,54,1,80,4,ok,2,0,0.002,7,0.11,-0.92,7.61,42,0.127,8.12
6.8945,-0.02094,-0.01396,0.97738,0.00000,0.00000,0.00000,55,6,43,-9,55,1,80,2,ok,2,0,0.002,7,0.11,-0.92,7.61,42,0.139,8.12
6.9147,-0.02094,-0.01396,0.97738,0.00000,0.00000,0.00000,57,6,41,-9,56,1,78,-2,ok,2,0,0.002,7,0.11,-0.92,7.61,42,0.152,8.12
6.9197,-0.02094,-0.01396,0.97738,0.00000,0.00000,0.00000,57,6,38,-8,57,1,78,-3,ok,2,0,0.002,7,0.11,-0.92,7.61,42,0.164,8.12
6.9320,-0.02094,-0.01396,0.97738,0.00000,0.00000,0.00000,58,7,35,-7,58,1,77,-5,ok,2,0,0.002,7,0.11,-0.92,7.61,42,0.177,8.12
6.9548,-0.02094,-0.01396,0.97738,0.00000,0.00000,0.00000,59,8,32,-6,59,1,75,-7,ok,2,0,0.002,7,0.11,-0.92,7.61,42,0.190,8.12
6.9581,-0.10647,-0.05236,1.06640,0.00000,0.00000,0.00000,60,8,29,-5,60,2,72,-7,ok,2,0,0.002,7,0.05,-1.44,10.05,43,0.000,8.12
6.9706,-0.10647,-0.05236,1.06640,0.00000,0.00000,0.00000,60,9,26,-3,61,1,71,-9,ok,2,0,0.002,7,0.05,-1.44,10.05,43,0.013,8.12
6.9907,-0.10647,-0.05236,1.06640,0.00000,0.00000,0.00000,62,10,21,-1,62,0,70,-10,ok,2,0,0.002,7,0.05,-1.44,10.05,43,0.025,8.12
6.9955,-0.10647,-0.05236,1.06640,0.00000,0.00000,0.00000,62,10,20,0,64,-2,68,-11,ok,2,0,0.002,7,0.05,-1.44,10.05,43,0.038,8.12
7.0081,-0.10647,-0.05236,1.06640,0.00000,0.00000,0.00000,63,11,18,2,64,-1,65,-13,ok,2,0,0.002,7,0.05,-1.44,10.05,43,0.050,8.12
7.0307,-0.10647,-0.05236,1.06640,0.00000,0.00000,0.00000,64,12,16,4,65,0,63,-13,ok,2,0,0.002,7,0.05,-1.44,10.05,43,0.063,8.12
7.0338,-0.10647,-0.05236,1.06640,0.00000,0.00000,0.00000,64,12,14,7,65,0,61,-14,ok,2,0,0.002,7,0.05,-1.44,10.05,43,0.076,8.12
7.0465,-0.10647,-0.05236,1.06640,0.00000,0.00000,0.00000,64,13,13,10,66,0,59,-14,ok,2,0,0.002,7,0.05,-1.44,10.05,43,0.089,8.12
7.0667,-0.10647,-0.05236,1.06640,0.00000,0.00000,0.00000,65,14,11,13,67,0,56,-13,ok,2,0,0.002,7,0.05,-1.44,10.05,43,0.101,8.12
7.0717,-0.10647,-0.05236,1.06640,0.00000,0.00000,0.00000,65,15,12,13,67,0,53,-12,ok,2,0,0.002,7,0.05,-1.44,10.05,43,0.114,8.12
7.0840,-0.10647,-0.05236,1.06640,0.00000,0.00000,0.00000,65,16,12,13,68,1,51,-12,ok,2,0,0.002,7,0.05,-1.44,10.05,43,0.126,8.12
7.1067,-0.10647,-0.05236,1.06640,0.00000,0.00000,0.00000,66,16,14,12,68,1,47,-11,ok,2,0,0.002,7,0.05,-1.44,10.05,43,0.139,8.12
7.1098,-0.10647,-0.05236,1.06640,0.00000,0.00000,0.00000,66,18,15,11,69,2,45,-10,ok,2,0,0.002,7,0.05,-1.44,10.05,43,0.152,8.12
7.1224,-0.10647,-0.05236,1.06640,0.00000,0.00000,0.00000,67,18,16,10,69,2,42,-9,ok,2,0,0.002,7,0.05,-1.44,10.05,43,0.165,8.12
7.1427,-0.10647,-0.05236,1.06640,0.00000,0.00000,0.00000,67,19,17,9,69,3,39,-8,ok,2,0,0.002,7,0.05,-1.44,10.05,43,0.177,8.12
7.1476,-0.10647,-0.05236,1.06640,0.00000,0.00000,0.00000,67,20,18,9,70,4,35,-7,ok,2,0,0.002,7,0.05,-1.44,10.05,43,0.190,8.12
7.1602,-0.00698,0.10123,1.09607,0.00000,0.00000,0.00000,68,21,20,8,71,5,34,-5,ok,2,0,0.002,7,0.34,0.11,9.55,44,0.000,8.12
7.1828,-0.00698,0.10123,1.09607,0.00000,0.00000,0.00000,68,22,21,7,71,6,32,-4,ok,2,0,0.002,7,0.34,0.11,9.55,44,0.012,8.12
7.1860,-0.00698,0.10123,1.09607,0.00000,0.00000,0.00000,67,23,22,7,70,8,30,-1,ok,2,0,0.002,7,0.34,0.11,9.55,44,0.026,8.12
7.1986,-0.00698,0.10123,1.09607,0.00000,0.00000,0.00000,67,24,23,6,71,9,29,2,ok,2,0,0.002,7,0.34,0.11,9.55,44,0.039,8.12
7.2187,-0.00698,0.10123,1.09607,0.00000,0.00000,0.00000,67,25,24,5,71,10,27,5,ok,2,0,0.002,7,0.34,0.11,9.55,44,0.051,8.12
7.2236,-0.00698,0.10123,1.09607,0.00000,0.00000,0.00000,66,28,25,5,71,11,27,7,ok,2,0,0.002,7,0.34,0.11,9.55,44,0.064,8.12
7.2361,-0.00698,0.10123,1.09607,0.00000,0.00000,0.00000,65,29,27,4,71,12,29,6,ok,2,0,0.002,7,0.34,0.11,9.55,44,0.076,8.12
7.2588,-0.00698,0.10123,1.09607,0.00000,0.00000,0.00000,67,28,28,4,71,14,29,6,ok,2,0,0.002,7,0.34,0.11,9.55,44,0.089,8.12
7.2618,-0.00698,0.10123,1.09607,0.00000,0.00000,0.00000,69,25,29,3,72,15,31,4,ok,2,0,0.002,7,0.34,0.11,9.55,44,0.102,8.12
7.2744,-0.00698,0.10123,1.09607,0.00000,0.00000,0.00000,72,21,30,2,71,16,32,3,ok,2,0,0.002,7,0.34,0.11,9.55,44,0.115,8.12
7.2948,-0.00698,0.10123,1.09607,0.00000,0.00000,0.00000,73,17,32,2,71,19,33,3,ok,2,0,0.002,7,0.34,0.11,9.55,44,0.127,8.12
7.2995,-0.00698,0.10123,1.09607,0.00000,0.00000,0.00000,73,15,33,2,72,19,35,3,ok,2,0,0.002,7,0.34,0.11,9.55,44,0.140,8.12
7.3120,-0.00698,0.10123,1.09607,0.00000,0.00000,0.00000,72,14,35,2,71,22,37,2,ok,2,0,0.002,7,0.34,0.11,9.55,44,0.152,8.12
7.3348,-0.00698,0.10123,1.09607,0.00000,0.00000,0.00000,72,11,36,2,71,23,39,2,ok,2,0,0.002,7,0.34,0.11,9.55,44,0.165,8.12
7.3378,-0.00698,0.10123,1.09607,0.00000,0.00000,0.00000,72,7,37,2,71,25,39,2,ok,2,0,0.002,7,0.34,0.11,9.55,44,0.178,8.12
7.3507,-0.00698,0.10123,1.09607,0.00000,0.00000,0.00000,71,5,38,2,71,26,41,2,ok,2,0,0.002,7,0.34,0.11,9.55,44,0.191,8.12
7.3707,0.01571,0.05760,1.17286,0.00000,0.00000,0.00000,70,1,40,2,70,28,42,2,ok,2,0,0.002,7,0.19,1.17,8.72,45,0.000,8.12
7.3756,0.01571,0.05760,1.17286,0.00000,0.00000,0.00000,69,-1,41,1,70,29,43,2,ok,2,0,0.002,7,0.19,1.17,8.72,45,0.012,8.12
7.3880,0.01571,0.05760,1.17286,0.00000,0.00000,0.00000,68,-3,43,2,71,29,44,1,ok,2,0,0.002,7,0.19,1.17,8.72,45,0.025,8.12
7.4108,0.01571,0.05760,1.17286,0.00000,0.00000,0.00000,66,-4,43,2,72,29,45,1,ok,2,0,0.002,7,0.19,1.17,8.72,45,0.038,8.12
7.4140,0.01571,0.05760,1.17286,0.00000,0.00000,0.00000,65,-6,45,2,73,27,47,0,ok,2,0,0.002,7,0.19,1.17,8.72,45,0.051,8.12
7.4265,0.01571,0.05760,1.17286,0.00000,0.00000,0.00000,64,-8,46,2,76,22,48,1,ok,2,0,0.002,7,0.19,1.17,8.72,45,0.063,8.12
7.4467,0.01571,0.05760,1.17286,0.00000,0.00000,0.00000,62,-9,48,3,77,18,49,1,ok,2,0,0.002,7,0.19,1.17,8.72,45,0.076,8.12
7.4515,0.01571,0.05760,1.17286,0.00000,0.00000,0.00000,59,-10,49,3,78,15,49,1,ok,2,0,0.002,7,0.19,1.17,8.72,45,0.088,8.12
7.4640,0.01571,0.05760,1.17286,0.00000,0.00000,0.00000,57,-11,50,3,78,14,50,1,ok,2,0,0.002,7,0.19,1.17,8.72,45,0.101,8.12
7.4868,0.01571,0.05760,1.17286,0.00000,0.00000,0.00000,55,-12,50,5,78,12,51,1,ok,2,0,0.002,7,0.19,1.17,8.72,45,0.113,8.12
7.4898,0.01571,0.05760,1.17286,0.00000,0.00000,0.00000,52,-11,51,6,78,8,52,1,ok,2,0,0.002,7,0.19,1.17,8.72,45,0.127,8.12
7.5025,0.01571,0.05760,1.17286,0.00000,0.00000,0.00000,49,-11,52,5,78,5,53,1,ok,2,0,0.002,7,0.19,1.17,8.72,45,0.139,8.12
7.5227,0.01571,0.05760,1.17286,0.00000,0.00000,0.00000,47,-11,53,6,77,3,54,0,ok,2,0,0.002,7,0.19,1.17,8.72,45,0.152,8.12
7.5275,0.01571,0.05760,1.17286,0.00000,0.00000,0.00000,44,-11,53,7,76,0,55,1,ok,2,0,0.002,7,0.19,1.17,8.72,45,0.164,8.12
7.5400,0.01571,0.05760,1.17286,0.00000,0.00000,0.00000,42,-11,55,7,76,-3,55,0,ok,2,0,0.002,7,0.19,1.17,8.72,45,0.177,8.12
7.5628,0.01571,0.05760,1.17286,0.00000,0.00000,0.00000,40,-10,55,7,75,-4,57,1,ok,2,0,0.002,7,0.19,1.17,8.72,45,0.189,8.12
7.5661,0.06981,-0.06109,1.17112,0.00000,0.00000,0.00000,37,-9,57,8,73,-7,57,0,ok,2,0,0.002,7,-1.51,1.12,8.14,46,0.000,8.12
7.5785,0.06981,-0.06109,1.17112,0.00000,0.00000,0.00000,34,-8,57,8,70,-7,58,0,ok,2,0,0.002,7,-1.51,1.12,8.14,46,0.013,8.12
7.5987,0.06981,-0.06109,1.17112,0.00000,0.00000,0.00000,31,-6,58,9,69,-9,58,0,ok,2,0,0.002,7,-1.51,1.12,8.14,46,0.025,8.12
7.6036,0.06981,-0.06109,1.17112,0.00000,0.00000,0.00000,28,-4,59,9,68,-11,60,1,ok,2,0,0.002,7,-1.51,1.12,8.14,46,0.038,8.12
7.6162,0.06981,-0.06109,1.17112,0.00000,0.00000,0.00000,24,-2,60,11,66,-12,60,0,ok,2,0,0.002,8,-1.51,1.12,8.14,46,0.050,8.12
7.6388,0.06981,-0.06109,1.17112,0.00000,0.00000,0.00000,22,-1,61,11,64,-13,61,0,ok,2,0,0.002,8,-1.51,1.12,8.14,46,0.063,8.12
7.6418,0.06981,-0.06109,1.17112,0.00000,0.00000,0.00000,20,1,62,12,62,-13,64,-2,ok,2,0,0.002,8,-1.51,1.12,8.14,46,0.076,8.12
7.6545,0.06981,-0.06109,1.17112,0.00000,0.00000,0.00000,18,3,62,12,59,-14,64,-1,ok,2,0,0.002,8,-1.51,1.12,8.14,46,0.089,8.12
7.6748,0.06981,-0.06109,1.17112,0.00000,0.00000,0.00000,16,7,62,13,57,-14,65,-1,ok,2,0,0.002,8,-1.51,1.12,8.14,46,0.101,8.12
7.6795,0.06981,-0.06109,1.17112,0.00000,0.00000,0.00000,14,10,62,14,54,-14,65,0,ok,2,0,0.002,8,-1.51,1.12,8.14,46,0.114,8.12
7.6920,0.06981,-0.06109,1.17112,0.00000,0.00000,0.00000,13,13,63,15,51,-13,66,-1,ok,2,0,0.002,8,-1.51,1.12,8.14,46,0.126,8.12
7.7148,0.06981,-0.06109,1.17112,0.00000,0.00000,0.00000,14,13,63,16,49,-13,67,0,ok,2,0,0.002,8,-1.51,1.12,8.14,46,0.139,8.12
7.7178,0.06981,-0.06109,1.17112,0.00000,0.00000,0.00000,14,13,63,17,46,-12,67,0,ok,2,0,0.002,8,-1.51,1.12,8.14,46,0.152,8.12
7.7307,0.06981,-0.06109,1.17112,0.00000,0.00000,0.00000,16,12,64,17,44,-11,68,1,ok,2,0,0.002,8,-1.51,1.12,8.14,46,0.165,8.12
7.7548,0.06981,-0.06109,1.17112,0.00000,0.00000,0.00000,17,12,64,19,40,-10,69,1,ok,2,0,0.002,8,-1.51,1.12,8.14,46,0.177,8.12
7.7581,0.03142,-0.01920,1.21475,0.00000,0.00000,0.00000,18,11,65,19,38,-10,70,2,ok,2,0,0.002,8,0.52,0.82,10.94,47,0.000,8.12
7.7705,0.03142,-0.01920,1.21475,0.00000,0.00000,0.00000,20,10,65,20,35,-8,70,2,ok,2,0,0.002,8,0.52,0.82,10.94,47,0.013,8.12
7.7907,0.03142,-0.01920,1.21475,0.00000,0.00000,0.00000,20,10,65,21,33,-7,71,3,ok,2,0,0.002,8,0.52,0.82,10.94,47,0.025,8.12
7.7955,0.03142,-0.01920,1.21475,0.00000,0.00000,0.00000,22,9,65,22,31,-5,71,5,ok,2,0,0.002,8,0.52,0.82,10.94,47,0.038,8.12
7.8082,0.03142,-0.01920,1.21475,0.00000,0.00000,0.00000,24,8,65,23,28,-2,72,5,ok,2,0,0.002,8,0.52,0.82,10.94,47,0.050,8.12
7.8308,0.03142,-0.01920,1.21475,0.00000,0.00000,0.00000,25,7,65,23,27,0,72,7,ok,2,0,0.002,8,0.52,0.82,10.94,47,0.063,8.12
7.8338,0.03142,-0.01920,1.21475,0.00000,0.00000,0.00000,26,6,65,24,26,4,72,8,ok,2,0,0.002,8,0.52,0.82,10.94,47,0.076,8.12
7.8464,0.03142,-0.01920,1.21475,0.00000,0.00000,0.00000,27,6,64,25,26,6,73,9,ok,2,0,0.002,8,0.52,0.82,10.94,47,0.089,8.12
7.8667,0.03142,-0.01920,1.21475,0.00000,0.00000,0.00000,29,6,64,28,27,6,73,10,ok,2,0,0.002,8,0.52,0.82,10.94,47,0.101,8.12
7.8715,0.03142,-0.01920,1.21475,0.00000,0.00000,0.00000,30,5,63,29,28,6,73,11,ok,2,0,0.002,8,0.52,0.82,10.94,47,0.114,8.12
7.8840,0.03142,-0.01920,1.21475,0.00000,0.00000,0.00000,31,4,65,28,29,3,73,13,ok,2,0,0.002,8,0.52,0.82,10.94,47,0.126,8.12
7.9068,0.03142,-0.01920,1.21475,0.00000,0.00000,0.00000,32,3,67,25,30,3,73,15,ok,2,0,0.002,8,0.52,0.82,10.94,47,0.139,8.12
7.9099,0.03142,-0.01920,1.21475,0.00000,0.00000,0.00000,33,3,70,21,31,3,74,16,ok,2,0,0.002,8,0.52,0.82,10.94,47,0.152,8.12
7.9226,0.03142,-0.01920,1.21475,0.00000,0.00000,0.00000,35,2,71,17,32,2,73,18,ok,2,0,0.002,8,0.52,0.82,10.94,47,0.165,8.12
7.9427,0.03142,-0.01920,1.21475,0.00000,0.00000,0.00000,36,2,71,15,34,1,73,20,ok,2,0,0.002,8,0.52,0.82,10.94,47,0.177,8.12
7.9475,0.03142,-0.01920,1.21475,0.00000,0.00000,0.00000,38,1,71,15,36,1,74,20,ok,2,0,0.002,8,0.52,0.82,10.94,47,0.190,8.12
7.9603,0.06807,0.05411,1.20079,0.00000,0.00000,0.00000,39,1,71,11,36,1,73,23,ok,2,0,0.002,8,0.19,1.77,9.20,48,0.000,8.12
7.9827,0.06807,0.05411,1.20079,0.00000,0.00000,0.00000,41,1,70,8,38,2,72,24,ok,2,0,0.002,8,0.19,1.77,9.20,48,0.013,8.12
7.9859,0.06807,0.05411,1.20079,0.00000,0.00000,0.00000,42,1,70,5,40,1,73,25,ok,2,0,0.002,8,0.19,1.77,9.20,48,0.026,8.12
7.9987,0.06807,0.05411,1.20079,0.00000,0.00000,0.00000,43,1,69,3,41,2,73,26,ok,2,0,0.002,8,0.19,1.77,9.20,48,0.038,8.12
8.0187,0.06807,0.05411,1.20079,0.00000,0.00000,0.00000,45,0,68,1,42,1,72,28,ok,2,0,0.002,8,0.19,1.77,9.20,48,0.051,8.12
8.0234,0.06807,0.05411,1.20079,0.00000,0.00000,0.00000,46,0,67,-1,43,1,72,29,ok,2,0,0.002,8,0.19,1.77,9.20,48,0.063,8.12
8.0360,0.06807,0.05411,1.20079,0.00000,0.00000,0.00000,46,0,65,-2,44,0,73,29,ok,2,0,0.002,8,0.19,1.77,9.20,48,0.076,8.12
8.0587,0.06807,0.05411,1.20079,0.00000,0.00000,0.00000,48,1,64,-4,46,0,74,29,ok,2,0,0.002,8,0.19,1.77,9.20,48,0.088,8.12
8.0619,0.06807,0.05411,1.20079,0.00000,0.00000,0.00000,49,1,63,-6,47,0,76,26,ok,2,0,0.002,8,0.19,1.77,9.20,48,0.102,8.12
8.0747,0.06807,0.05411,1.20079,0.00000,0.00000,0.00000,51,2,60,-7,48,1,78,21,ok,2,0,0.002,8,0.19,1.77,9.20,48,0.115,8.12
8.0947,0.06807,0.05411,1.20079,0.00000,0.00000,0.00000,52,1,58,-8,48,1,79,17,ok,2,0,0.002,8,0.19,1.77,9.20,48,0.127,8.12
8.0995,0.06807,0.05411,1.20079,0.00000,0.00000,0.00000,52,2,56,-8,50,1,81,14,ok,2,0,0.002,8,0.19,1.77,9.20,48,0.139,8.12
8.1120,0.06807,0.05411,1.20079,0.00000,0.00000,0.00000,52,4,53,-9,51,1,81,14,ok,2,0,0.002,8,0.19,1.77,9.20,48,0.152,8.12
8.1347,0.06807,0.05411,1.20079,0.00000,0.00000,0.00000,53,5,51,-9,52,1,81,11,ok,2,0,0.002,8,0.19,1.77,9.20,48,0.165,8.12
8.1380,0.06807,0.05411,1.20079,0.00000,0.00000,0.00000,54,4,48,-9,53,1,81,7,ok,2,0,0.002,8,0.19,1.77,9.20,48,0.178,8.12
8.1505,0.06807,0.05411,1.20079,0.00000,0.00000,0.00000,55,5,45,-9,54,2,81,4,ok,2,0,0.002,8,0.19,1.77,9.20,48,0.190,8.12
8.1707,-0.12043,-0.03142,1.27933,0.00000,0.00000,0.00000,55,6,43,-9,55,2,80,2,ok,2,0,0.002,8,-0.68,-1.66,9.10,49,0.000,8.12
8.1755,-0.12043,-0.03142,1.27933,0.00000,0.00000,0.00000,57,6,40,-9,56,1,79,-1,ok,2,0,0.002,8,-0.68,-1.66,9.10,49,0.012,8.12
8.1880,-0.12043,-0.03142,1.27933,0.00000,0.00000,0.00000,58,6,38,-8,57,0,79,-2,ok,2,0,0.002,8,-0.68,-1.66,9.10,49,0.025,8.12
8.2108,-0.12043,-0.03142,1.27933,0.00000,0.00000,0.00000,59,7,35,-7,58,1,77,-4,ok,2,0,0.002,8,-0.68,-1.66,9.10,49,0.038,8.12
8.2138,-0.12043,-0.03142,1.27933,0.00000,0.00000,0.00000,59,7,32,-5,59,1,76,-6,ok,2,0,0.002,8,-0.68,-1.66,9.10,49,0.051,8.12
8.2265,-0.12043,-0.03142,1.27933,0.00000,0.00000,0.00000,60,8,29,-5,59,2,73,-6,ok,2,0,0.002,8,-0.68,-1.66,9.10,49,0.064,8.12
8.2467,-0.12043,-0.03142,1.27933,0.00000,0.00000,0.00000,61,9,26,-3,60,2,72,-8,ok,2,0,0.002,8,-0.68,-1.66,9.10,49,0.076,8.12
8.2515,-0.12043,-0.03142,1.27933,0.00000,0.00000,0.00000,62,10,21,-1,61,1,70,-10,ok,2,0,0.002,8,-0.68,-1.66,9.10,49,0.089,8.12
8.2640,-0.12043,-0.03142,1.27933,0.00000,0.00000,0.00000,62,10,20,1,64,-1,68,-11,ok,2,0,0.002,8,-0.68,-1.66,9.10,49,0.101,8.12
8.2867,-0.12043,-0.03142,1.27933,0.00000,0.00000,0.00000,63,11,18,2,64,-1,65,-13,ok,2,0,0.002,8,-0.68,-1.66,9.10,49,0.114,8.12
8.2901,-0.12043,-0.03142,1.27933,0.00000,0.00000,0.00000,64,11,16,4,65,0,64,-13,ok,2,0,0.002,8,-0.68,-1.66,9.10,49,0.127,8.12
8.3024,-0.12043,-0.03142,1.27933,0.00000,0.00000,0.00000,64,12,14,7,65,0,61,-14,ok,2,0,0.002,8,-0.68,-1.66,9.10,49,0.140,8.12
8.3227,-0.12043,-0.03142,1.27933,0.00000,0.00000,0.00000,64,13,12,10,66,0,59,-14,ok,2,0,0.002,8,-0.68,-1.66,9.10,49,0.152,8.12
8.3275,-0.12043,-0.03142,1.27933,0.00000,0.00000,0.00000,65,14,11,13,67,0,56,-12,ok,2,0,0.002,8,-0.68,-1.66,9.10,49,0.165,8.12
8.3402,-0.12043,-0.03142,1.27933,0.00000,0.00000,0.00000,65,15,12,13,67,1,53,-12,ok,2,0,0.002,8,-0.68,-1.66,9.10,49,0.177,8.12
8.3628,-0.12043,-0.03142,1.27933,0.00000,0.00000,0.00000,65,16,12,13,68,1,50,-11,ok,2,0,0.002,8,-0.68,-1.66,9.10,49,0.190,8.12
8.3661,-0.03665,0.02967,1.32645,0.00000,0.00000,0.00000,66,16,14,12,68,1,47,-11,ok,2,0,0.002,8,0.43,-0.10,9.63,50,0.000,8.12
8.3786,-0.03665,0.02967,1.32645,0.00000,0.00000,0.00000,66,18,15,11,69,3,45,-10,ok,2,0,0.002,8,0.43,-0.10,9.63,50,0.013,8.12
8.3987,-0.03665,0.02967,1.32645,0.00000,0.00000,0.00000,67,18,15,10,68,3,42,-9,ok,2,0,0.002,8,0.43,-0.10,9.63,50,0.025,8.12
8.4035,-0.03665,0.02967,1.32645,0.00000,0.00000,0.00000,67,19,17,9,69,4,40,-8,ok,2,0,0.002,8,0.43,-0.10,9.63,50,0.038,8.12
8.4162,-0.03665,0.02967,1.32645,0.00000,0.00000,0.00000,67,20,17,9,69,5,36,-7,ok,2,0,0.002,8,0.43,-0.10,9.63,50,0.050,8.12
8.4388,-0.03665,0.02967,1.32645,0.00000,0.00000,0.00000,68,21,19,8,70,5,34,-5,ok,2,0,0.002,8,0.43,-0.10,9.63,50,0.063,8.12
8.4419,-0.03665,0.02967,1.32645,0.00000,0.00000,0.00000,68,22,20,7,71,7,32,-3,ok,2,0,0.002,8,0.43,-0.10,9.63,50,0.076,8.12
8.4545,-0.03665,0.02967,1.32645,0.00000,0.00000,0.00000,68,23,22,7,70,8,30,0,ok,2,0,0.002,8,0.43,-0.10,9.63,50,0.089,8.12
8.4747,-0.03665,0.02967,1.32645,0.00000,0.00000,0.00000,68,24,23,6,71,8,29,2,ok,2,0,0.002,8,0.43,-0.10,9.63,50,0.101,8.12
8.4795,-0.03665,0.02967,1.32645,0.00000,0.00000,0.00000,68,25,24,5,71,9,28,6,ok,2,0,0.002,8,0.43,-0.10,9.63,50,0.114,8.12
8.4921,-0.03665,0.02967,1.32645,0.00000,0.00000,0.00000,67,28,25,5,71,11,27,8,ok,2,0,0.002,8,0.43,-0.10,9.63,50,0.126,8.12
8.5148,-0.03665,0.02967,1.32645,0.00000,0.00000,0.00000,66,29,27,4,71,12,29,7,ok,2,0,0.002,8,0.43,-0.10,9.63,50,0.139,8.12
8.5179,-0.03665,0.02967,1.32645,0.00000,0.00000,0.00000,67,28,28,4,71,14,30,6,ok,2,0,0.002,8,0.43,-0.10,9.63,50,0.152,8.12
8.5304,-0.03665,0.02967,1.32645,0.00000,0.00000,0.00000,70,25,29,3,72,15,31,4,ok,2,0,0.002,8,0.43,-0.10,9.63,50,0.165,8.12
8.5508,-0.03665,0.02967,1.32645,0.00000,0.00000,0.00000,72,21,30,3,71,16,32,3,ok,2,0,0.002,8,0.43,-0.10,9.63,50,0.177,8.12
8.5557,-0.02269,0.05934,1.42419,0.00000,0.00000,0.00000,73,17,32,2,71,18,34,3,ok,2,0,0.003,8,0.76,-0.97,11.10,51,0.000,8.12
8.5680,-0.02269,0.05934,1.42419,0.00000,0.00000,0.00000,73,15,33,2,72,19,35,3,ok,2,0,0.003,8,0.76,-0.97,11.10,51,0.013,8.12
8.5907,-0.02269,0.05934,1.42419,0.00000,0.00000,0.00000,73,14,35,2,71,22,36,2,ok,2,0,0.003,8,0.76,-0.97,11.10,51,0.025,8.12
8.5938,-0.02269,0.05934,1.42419,0.00000,0.00000,0.00000,73,11,36,2,71,23,38,2,ok,2,0,0.003,8,0.76,-0.97,11.10,51,0.038,8.12
8.6064,-0.02269,0.05934,1.42419,0.00000,0.00000,0.00000,72,8,37,2,71,24,39,2,ok,2,0,0.003,8,0.76,-0.97,11.10,51,0.051,8.12
8.6267,-0.02269,0.05934,1.42419,0.00000,0.00000,0.00000,71,5,38,2,71,26,41,2,ok,2,0,0.003,8,0.76,-0.97,11.10,51,0.064,8.12
8.6315,-0.02269,0.05934,1.42419,0.00000,0.00000,0.00000,70,1,40,2,70,28,42,2,ok,2,0,0.003,9,0.76,-0.97,11.10,51,0.076,8.12
8.6443,-0.02269,0.05934,1.42419,0.00000,0.00000,0.00000,69,-1,41,2,70,29,43,2,ok,2,0,0.003,9,0.76,-0.97,11.10,51,0.088,8.12
8.6668,-0.02269,0.05934,1.42419,0.00000,0.00000,0.00000,68,-3,43,2,70,29,44,1,ok,2,0,0.003,9,0.76,-0.97,11.10,51,0.101,8.12
8.6699,-0.02269,0.05934,1.42419,0.00000,0.00000,0.00000,66,-4,43,2,72,29,45,1,ok,2,0,0.003,9,0.76,-0.97,11.10,51,0.114,8.12
8.6827,-0.02269,0.05934,1.42419,0.00000,0.00000,0.00000,65,-6,45,2,73,27,47,1,ok,2,0,0.003,9,0.76,-0.97,11.10,51,0.127,8.12
8.7028,-0.02269,0.05934,1.42419,0.00000,0.00000,0.00000,64,-8,46,2,75,22,48,1,ok,2,0,0.003,9,0.76,-0.97,11.10,51,0.140,8.12
8.7075,-0.02269,0.05934,1.42419,0.00000,0.00000,0.00000,62,-9,48,3,77,18,49,1,ok,2,0,0.003,9,0.76,-0.97,11.10,51,0.152,8.12
8.7203,-0.02269,0.05934,1.42419,0.00000,0.00000,0.00000,60,-10,49,3,78,15,49,1,ok,2,0,0.003,9,0.76,-0.97,11.10,51,0.165,8.12
8.7427,-0.02269,0.05934,1.42419,0.00000,0.00000,0.00000,57,-11,49,3,78,14,50,1,ok,2,0,0.003,9,0.76,-0.97,11.10,51,0.177,8.12
8.7459,-0.02269,0.05934,1.42419,0.00000,0.00000,0.00000,55,-12,50,5,78,12,51,1,ok,2,0,0.003,9,0.76,-0.97,11.10,51,0.190,8.12
8.7587,0.09948,0.02443,1.39975,0.00000,0.00000,0.00000,52,-11,51,6,78,8,52,1,ok,2,0,0.003,9,0.24,1.67,10.93,52,0.000,8.12
8.7787,0.09948,0.02443,1.39975,0.00000,0.00000,0.00000,50,-11,52,5,78,6,54,1,ok,2,0,0.003,9,0.24,1.67,10.93,52,0.013,8.12
8.7834,0.09948,0.02443,1.39975,0.00000,0.00000,0.00000,47,-11,53,6,77,3,55,0,ok,2,0,0.003,9,0.24,1.67,10.93,52,0.025,8.12
8.7960,0.09948,0.02443,1.39975,0.00000,0.00000,0.00000,44,-11,53,7,76,0,55,1,ok,2,0,0.003,9,0.24,1.67,10.93,52,0.038,8.12
8.8188,0.09948,0.02443,1.39975,0.00000,0.00000,0.00000,42,-11,55,7,76,-2,56,0,ok,2,0,0.003,9,0.24,1.67,10.93,52,0.050,8.12
8.8220,0.09948,0.02443,1.39975,0.00000,0.00000,0.00000,40,-10,55,7,75,-4,57,1,ok,2,0,0.003,9,0.24,1.67,10.93,52,0.064,8.12
8.8345,0.09948,0.02443,1.39975,0.00000,0.00000,0.00000,37,-9,56,8,73,-7,57,-1,ok,2,0,0.003,9,0.24,1.67,10.93,52,0.076,8.12
8.8547,0.09948,0.02443,1.39975,0.00000,0.00000,0.00000,34,-7,57,8,70,-6,58,0,ok,2,0,0.003,9,0.24,1.67,10.93,52,0.089,8.12
8.8595,0.09948,0.02443,1.39975,0.00000,0.00000,0.00000,31,-6,57,9,69,-8,58,0,ok,2,0,0.003,9,0.24,1.67,10.93,52,0.101,8.12
8.8722,0.09948,0.02443,1.39975,0.00000,0.00000,0.00000,28,-4,58,9,68,-10,60,1,ok,2,0,0.003,9,0.24,1.67,10.93,52,0.114,8.12
8.8948,0.09948,0.02443,1.39975,0.00000,0.00000,0.00000,24,-1,59,11,66,-12,61,1,ok,2,0,0.003,9,0.24,1.67,10.93,52,0.126,8.12
8.8980,0.09948,0.02443,1.39975,0.00000,0.00000,0.00000,22,-1,60,11,64,-12,62,0,ok,2,0,0.003,9,0.24,1.67,10.93,52,0.139,8.12
8.9105,0.09948,0.02443,1.39975,0.00000,0.00000,0.00000,21,1,61,12,62,-12,64,-2,ok,2,0,0.003,9,0.24,1.67,10.93,52,0.152,8.12
8.9307,0.09948,0.02443,1.39975,0.00000,0.00000,0.00000,19,3,62,12,59,-13,64,-1,ok,2,0,0.003,9,0.24,1.67,10.93,52,0.165,8.12
8.9355,0.09948,0.02443,1.39975,0.00000,0.00000,0.00000,16,7,62,13,57,-14,65,-1,ok,2,0,0.003,9,0.24,1.67,10.93,52,0.177,8.12
8.9481,0.09948,0.02443,1.39975,0.00000,0.00000,0.00000,15,10,62,14,54,-13,66,0,ok,2,0,0.003,9,0.24,1.67,10.93,52,0.190,8.12
8.9708,0.03316,-0.00349,1.42244,0.00000,0.00000,0.00000,13,13,63,15,51,-12,66,-1,ok,2,0,0.003,9,0.50,0.02,10.33,53,0.000,8.12
8.9741,0.03316,-0.00349,1.42244,0.00000,0.00000,0.00000,15,13,63,16,49,-12,67,1,ok,2,0,0.003,9,0.50,0.02,10.33,53,0.013,8.12
8.9864,0.03316,-0.00349,1.42244,0.00000,0.00000,0.00000,15,13,63,17,46,-11,68,0,ok,2,0,0.003,9,0.50,0.02,10.33,53,0.026,8.12
9.0067,0.03316,-0.00349,1.42244,0.00000,0.00000,0.00000,16,12,64,17,44,-11,69,1,ok,2,0,0.003,9,0.50,0.02,10.33,53,0.039,8.12
9.0115,0.03316,-0.00349,1.42244,0.00000,0.00000,0.00000,17,12,64,18,41,-9,70,1,ok,2,0,0.003,9,0.50,0.02,10.33,53,0.051,8.12
9.0240,0.03316,-0.00349,1.42244,0.00000,0.00000,0.00000,18,11,65,19,38,-9,70,2,ok,2,0,0.003,9,0.50,0.02,10.33,53,0.064,8.12
9.0467,0.03316,-0.00349,1.42244,0.00000,0.00000,0.00000,20,10,65,20,35,-7,70,3,ok,2,0,0.003,9,0.50,0.02,10.33,53,0.076,8.12
9.0498,0.03316,-0.00349,1.42244,0.00000,0.00000,0.00000,20,10,65,21,33,-6,71,4,ok,2,0,0.003,9,0.50,0.02,10.33,53,0.089,8.12
9.0627,0.03316,-0.00349,1.42244,0.00000,0.00000,0.00000,23,8,65,22,31,-5,71,5,ok,2,0,0.003,9,0.50,0.02,10.33,53,0.102,8.12
9.0827,0.03316,-0.00349,1.42244,0.00000,0.00000,0.00000,24,8,65,23,28,-1,72,5,ok,2,0,0.003,9,0.50,0.02,10.33,53,0.114,8.12
9.0874,0.03316,-0.00349,1.42244,0.00000,0.00000,0.00000,25,7,65,23,27,1,72,7,ok,2,0,0.003,9,0.50,0.02,10.33,53,0.127,8.12
9.1000,0.03316,-0.00349,1.42244,0.00000,0.00000,0.00000,26,6,65,24,26,4,72,8,ok,2,0,0.003,9,0.50,0.02,10.33,53,0.139,8.12
9.1228,0.03316,-0.00349,1.42244,0.00000,0.00000,0.00000,28,6,65,25,26,7,73,9,ok,2,0,0.003,9,0.50,0.02,10.33,53,0.152,8.12
9.1259,0.03316,-0.00349,1.42244,0.00000,0.00000,0.00000,29,6,64,28,27,6,73,10,ok,2,0,0.003,9,0.50,0.02,10.33,53,0.165,8.12
9.1384,0.03316,-0.00349,1.42244,0.00000,0.00000,0.00000,30,5,63,29,28,6,73,12,ok,2,0,0.003,9,0.50,0.02,10.33,53,0.178,8.12
9.1587,0.03316,-0.00349,1.42244,0.00000,0.00000,0.00000,31,4,64,28,29,4,73,13,ok,2,0,0.003,9,0.50,0.02,10.33,53,0.190,8.12
9.1637,-0.06632,0.01396,1.42593,0.00000,0.00000,0.00000,32,3,67,25,30,3,74,15,ok,2,0,0.003,9,-0.15,0.25,11.57,54,0.000,8.12
9.1761,-0.06632,0.01396,1.42593,0.00000,0.00000,0.00000,34,3,69,21,31,3,74,16,ok,2,0,0.003,9,-0.15,0.25,11.57,54,0.013,8.12
9.1987,-0.06632,0.01396,1.42593,0.00000,0.00000,0.00000,35,2,70,18,32,2,73,18,ok,2,0,0.003,9,-0.15,0.25,11.57,54,0.025,8.12
9.2018,-0.06632,0.01396,1.42593,0.00000,0.00000,0.00000,36,2,71,15,34,1,73,20,ok,2,0,0.003,9,-0.15,0.25,11.57,54,0.038,8.12
9.2144,-0.06632,0.01396,1.42593,0.00000,0.00000,0.00000,38,1,71,15,36,2,74,21,ok,2,0,0.003,9,-0.15,0.25,11.57,54,0.051,8.12
9.2347,-0.06632,0.01396,1.42593,0.00000,0.00000,0.00000,39,1,71,11,36,2,73,23,ok,2,0,0.003,9,-0.15,0.25,11.57,54,0.064,8.12
9.2396,-0.06632,0.01396,1.42593,0.00000,0.00000,0.00000,41,1,70,9,38,2,73,24,ok,2,0,0.003,9,-0.15,0.25,11.57,54,0.076,8.12
9.2520,-0.06632,0.01396,1.42593,0.00000,0.00000,0.00000,42,1,70,6,40,1,73,25,ok,2,0,0.003,9,-0.15,0.25,11.57,54,0.088,8.12
9.2747,-0.06632,0.01396,1.42593,0.00000,0.00000,0.00000,44,0,69,3,41,2,73,27,ok,2,0,0.003,9,-0.15,0.25,11.57,54,0.101,8.12
9.2779,-0.06632,0.01396,1.42593,0.00000,0.00000,0.00000,45,0,68,1,42,1,72,28,ok,2,0,0.003,9,-0.15,0.25,11.57,54,0.114,8.12
9.2904,-0.06632,0.01396,1.42593,0.00000,0.00000,0.00000,46,0,67,0,43,1,72,29,ok,2,0,0.003,9,-0.15,0.25,11.57,54,0.127,8.12
9.3107,-0.06632,0.01396,1.42593,0.00000,0.00000,0.00000,46,0,65,-1,44,0,73,29,ok,2,0,0.003,9,-0.15,0.25,11.57,54,0.139,8.12
9.3156,-0.06632,0.01396,1.42593,0.00000,0.00000,0.00000,48,1,64,-4,46,0,74,29,ok,2,0,0.003,9,-0.15,0.25,11.57,54,0.152,8.12
9.3280,-0.06632,0.01396,1.42593,0.00000,0.00000,0.00000,49,1,63,-6,47,0,76,27,ok,2,0,0.003,9,-0.15,0.25,11.57,54,0.165,8.12
9.3548,-0.06632,0.01396,1.42593,0.00000,0.00000,0.00000,51,2,61,-7,48,0,78,21,ok,2,0,0.003,9,-0.15,0.25,11.57,54,0.177,8.12
9.3582,-0.05760,-0.00524,1.43466,0.00000,0.00000,0.00000,52,1,58,-8,49,0,79,17,ok,2,0,0.003,9,0.51,-0.64,11.07,55,0.000,8.12
9.3704,-0.05760,-0.00524,1.43466,0.00000,0.00000,0.00000,52,2,56,-8,50,0,81,14,ok,2,0,0.003,9,0.51,-0.64,11.07,55,0.013,8.12
9.3907,-0.05760,-0.00524,1.43466,0.00000,0.00000,0.00000,52,4,54,-9,51,0,81,14,ok,2,0,0.003,9,0.51,-0.64,11.07,55,0.025,8.12
9.3956,-0.05760,-0.00524,1.43466,0.00000,0.00000,0.00000,53,5,51,-9,52,1,81,11,ok,2,0,0.003,9,0.51,-0.64,11.07,55,0.038,8.12
9.4081,-0.05760,-0.00524,1.43466,0.00000,0.00000,0.00000,54,4,48,-9,53,0,81,7,ok,2,0,0.003,9,0.51,-0.64,11.07,55,0.050,8.12
9.4308,-0.05760,-0.00524,1.43466,0.00000,0.00000,0.00000,55,5,46,-8,54,1,80,4,ok,2,0,0.003,9,0.51,-0.64,11.07,55,0.063,8.12
9.4339,-0.05760,-0.00524,1.43466,0.00000,0.00000,0.00000,55,6,43,-9,55,1,80,3,ok,2,0,0.003,9,0.51,-0.64,11.07,55,0.076,8.12
9.4466,-0.05760,-0.00524,1.43466,0.00000,0.00000,0.00000,57,6,41,-9,56,2,79,-1,ok,2,0,0.003,9,0.51,-0.64,11.07,55,0.089,8.12
9.4667,-0.05760,-0.00524,1.43466,0.00000,0.00000,0.00000,57,6,38,-8,57,1,78,-3,ok,2,0,0.003,9,0.51,-0.64,11.07,55,0.101,8.12
9.4715,-0.05760,-0.00524,1.43466,0.00000,0.00000,0.00000,59,7,35,-7,58,1,77,-4,ok,2,0,0.003,9,0.51,-0.64,11.07,55,0.114,8.12
9.4840,-0.05760,-0.00524,1.43466,0.00000,0.00000,0.00000,59,8,32,-6,58,2,75,-6,ok,2,0,0.003,9,0.51,-0.64,11.07,55,0.126,8.12
9.5068,-0.05760,-0.00524,1.43466,0.00000,0.00000,0.00000,60,8,28,-5,60,2,72,-7,ok,2,0,0.003,9,0.51,-0.64,11.07,55,0.139,8.12
9.5099,-0.05760,-0.00524,1.43466,0.00000,0.00000,0.00000,61,9,26,-3,60,2,71,-9,ok,2,0,0.003,9,0.51,-0.64,11.07,55,0.152,8.12
9.5224,-0.05760,-0.00524,1.43466,0.00000,0.00000,0.00000,62,10,21,-1,61,1,70,-10,ok,2,0,0.003,9,0.51,-0.64,11.07,55,0.165,8.12
9.5427,-0.05760,-0.00524,1.43466,0.00000,0.00000,0.00000,63,10,20,0,64,-1,68,-12,ok,2,0,0.003,9,0.51,-0.64,11.07,55,0.177,8.12
9.5475,-0.05760,-0.00524,1.43466,0.00000,0.00000,0.00000,64,11,18,1,64,0,65,-13,ok,2,0,0.003,9,0.51,-0.64,11.07,55,0.190,8.12
9.5602,-0.05760,-0.00524,1.43466,0.00000,0.00000,0.00000,64,12,16,4,65,1,64,-13,ok,2,0,0.003,9,0.51,-0.64,11.07,55,0.202,8.12
9.5828,-0.09250,-0.00175,1.50796,0.00000,0.00000,0.00000,65,12,14,7,65,0,61,-13,ok,2,0,0.003,9,-0.01,-0.91,9.06,56,0.000,8.12
9.5861,-0.09250,-0.00175,1.50796,0.00000,0.00000,0.00000,65,14,12,10,66,1,59,-14,ok,2,0,0.003,9,-0.01,-0.91,9.06,56,0.013,8.12
9.5984,-0.09250,-0.00175,1.50796,0.00000,0.00000,0.00000,65,14,10,13,67,1,56,-12,ok,2,0,0.003,9,-0.01,-0.91,9.06,56,0.026,8.12
9.6187,-0.09250,-0.00175,1.50796,0.00000,0.00000,0.00000,66,15,12,13,67,1,53,-12,ok,2,0,0.003,9,-0.01,-0.91,9.06,56,0.038,8.12
9.6235,-0.09250,-0.00175,1.50796,0.00000,0.00000,0.00000,66,16,12,13,68,1,51,-11,ok,2,0,0.003,9,-0.01,-0.91,9.06,56,0.051,8.12
9.6361,-0.09250,-0.00175,1.50796,0.00000,0.00000,0.00000,67,17,13,12,68,2,48,-11,ok,2,0,0.003,9,-0.01,-0.91,9.06,56,0.064,8.12
9.6588,-0.09250,-0.00175,1.50796,0.00000,0.00000,0.00000,67,18,15,11,68,3,46,-10,ok,2,0,0.003,9,-0.01,-0.91,9.06,56,0.076,8.12
9.6620,-0.09250,-0.00175,1.50796,0.00000,0.00000,0.00000,67,18,15,11,68,3,42,-9,ok,2,0,0.003,10,-0.01,-0.91,9.06,56,0.089,8.12
9.6747,-0.09250,-0.00175,1.50796,0.00000,0.00000,0.00000,68,19,17,9,69,4,40,-8,ok,2,0,0.003,10,-0.01,-0.91,9.06,56,0.102,8.12
9.6949,-0.09250,-0.00175,1.50796,0.00000,0.00000,0.00000,68,20,17,9,70,5,36,-6,ok,2,0,0.003,10,-0.01,-0.91,9.06,56,0.115,8.12
9.6996,-0.09250,-0.00175,1.50796,0.00000,0.00000,0.00000,69,21,19,8,70,5,35,-5,ok,2,0,0.003,10,-0.01,-0.91,9.06,56,0.127,8.12
9.7121,-0.09250,-0.00175,1.50796,0.00000,0.00000,0.00000,69,22,21,7,70,6,32,-3,ok,2,0,0.003,10,-0.01,-0.91,9.06,56,0.140,8.12
9.7348,-0.09250,-0.00175,1.50796,0.00000,0.00000,0.00000,68,23,22,7,70,8,30,0,ok,2,0,0.003,10,-0.01,-0.91,9.06,56,0.152,8.12
9.7379,-0.09250,-0.00175,1.50796,0.00000,0.00000,0.00000,68,24,23,6,71,8,29,2,ok,2,0,0.003,10,-0.01,-0.91,9.06,56,0.165,8.12
9.7506,-0.09250,-0.00175,1.50796,0.00000,0.00000,0.00000,68,25,24,5,71,9,28,6,ok,2,0,0.003,10,-0.01,-0.91,9.06,56,0.178,8.12
9.7748,0.00349,0.04712,1.54985,0.00000,0.00000,0.00000,67,28,26,5,71,10,27,8,ok,2,0,0.003,10,0.44,-0.59,10.15,57,0.000,8.12
9.7778,0.00349,0.04712,1.54985,0.00000,0.00000,0.00000,66,29,27,4,71,12,29,6,ok,2,0,0.003,10,0.44,-0.59,10.15,57,0.015,8.12
9.7905,0.00349,0.04712,1.54985,0.00000,0.00000,0.00000,67,28,28,4,71,14,29,6,ok,2,0,0.003,10,0.44,-0.59,10.15,57,0.028,8.12
9.8107,0.00349,0.04712,1.54985,0.00000,0.00000,0.00000,70,25,29,3,71,15,31,4,ok,2,0,0.003,10,0.44,-0.59,10.15,57,0.040,8.12
9.8155,0.00349,0.04712,1.54985,0.00000,0.00000,0.00000,72,21,30,3,71,16,32,3,ok,2,0,0.003,10,0.44,-0.59,10.15,57,0.052,8.12
9.8280,0.00349,0.04712,1.54985,0.00000,0.00000,0.00000,73,17,32,2,71,19,33,3,ok,2,0,0.003,10,0.44,-0.59,10.15,57,0.065,8.12
9.8507,0.00349,0.04712,1.54985,0.00000,0.00000,0.00000,73,15,33,2,72,19,35,2,ok,2,0,0.003,10,0.44,-0.59,10.15,57,0.078,8.12
9.8538,0.00349,0.04712,1.54985,0.00000,0.00000,0.00000,73,14,35,2,71,21,36,2,ok,2,0,0.003,10,0.44,-0.59,10.15,57,0.091,8.12
9.8666,0.00349,0.04712,1.54985,0.00000,0.00000,0.00000,73,11,36,2,71,23,38,2,ok,2,0,0.003,10,0.44,-0.59,10.15,57,0.104,8.12
9.8867,0.00349,0.04712,1.54985,0.00000,0.00000,0.00000,72,8,37,2,71,24,39,2,ok,2,0,0.003,10,0.44,-0.59,10.15,57,0.116,8.12
9.8915,0.00349,0.04712,1.54985,0.00000,0.00000,0.00000,72,5,38,2,71,26,41,2,ok,2,0,0.003,10,0.44,-0.59,10.15,57,0.128,8.12
9.9040,0.00349,0.04712,1.54985,0.00000,0.00000,0.00000,71,2,40,2,70,28,42,2,ok,2,0,0.003,10,0.44,-0.59,10.15,57,0.141,8.12
9.9268,0.00349,0.04712,1.54985,0.00000,0.00000,0.00000,70,0,41,2,70,29,43,2,ok,2,0,0.003,10,0.44,-0.59,10.15,57,0.153,8.12
9.9299,0.00349,0.04712,1.54985,0.00000,0.00000,0.00000,68,-3,43,2,70,29,44,1,ok,2,0,0.003,10,0.44,-0.59,10.15,57,0.167,8.12
9.9425,0.00349,0.04712,1.54985,0.00000,0.00000,0.00000,66,-4,43,2,72,29,45,1,ok,2,0,0.003,10,0.44,-0.59,10.15,57,0.180,8.12
9.9628,0.00349,0.04712,1.54985,0.00000,0.00000,0.00000,65,-6,45,3,73,27,47,1,ok,2,0,0.003,10,0.44,-0.59,10.15,57,0.192,8.12
9.9678,0.09425,0.03665,1.59698,0.00000,0.00000,0.00000,64,-8,46,3,75,22,48,1,ok,2,0,0.003,10,0.78,0.94,9.07,58,0.000,8.12
9.9800,0.09425,0.03665,1.59698,0.00000,0.00000,0.00000,62,-9,47,4,77,18,49,1,ok,2,0,0.003,10,0.78,0.94,9.07,58,0.013,8.12
10.0027,0.09425,0.03665,1.59698,0.00000,0.00000,0.00000,60,-10,49,3,78,15,50,0,ok,2,0,0.003,10,0.78,0.94,9.07,58,0.025,8.12
10.0058,0.09425,0.03665,1.59698,0.00000,0.00000,0.00000,57,-10,50,3,78,14,50,1,ok,2,0,0.003,10,0.78,0.94,9.07,58,0.038,8.12
10.0265,0.09425,0.03665,1.59698,0.00000,0.00000,0.00000,55,-11,50,5,78,12,52,1,ok,2,0,0.003,10,0.78,0.94,9.07,58,0.051,8.12
10.0387,0.09425,0.03665,1.59698,0.00000,0.00000,0.00000,52,-11,51,6,78,9,53,1,ok,2,0,0.003,10,0.78,0.94,9.07,58,0.064,8.12
10.0435,0.09425,0.03665,1.59698,0.00000,0.00000,0.00000,50,-11,52,6,78,5,54,1,ok,2,0,0.003,10,0.78,0.94,9.07,58,0.076,8.12
10.0560,0.09425,0.03665,1.59698,0.00000,0.00000,0.00000,48,-10,52,6,77,3,54,0,ok,2,0,0.003,10,0.78,0.94,9.07,58,0.088,8.12
10.0788,0.09425,0.03665,1.59698,0.00000,0.00000,0.00000,45,-11,53,7,76,0,55,1,ok,2,0,0.003,10,0.78,0.94,9.07,58,0.101,8.12
10.0819,0.09425,0.03665,1.59698,0.00000,0.00000,0.00000,43,-11,55,7,76,-2,56,0,ok,2,0,0.003,10,0.78,0.94,9.07,58,0.114,8.12
10.0946,0.09425,0.03665,1.59698,0.00000,0.00000,0.00000,41,-10,55,7,75,-4,57,1,ok,2,0,0.003,10,0.78,0.94,9.07,58,0.127,8.12
10.1147,0.09425,0.03665,1.59698,0.00000,0.00000,0.00000,37,-9,56,8,73,-7,58,0,ok,2,0,0.003,10,0.78,0.94,9.07,58,0.140,8.12
10.1196,0.09425,0.03665,1.59698,0.00000,0.00000,0.00000,35,-8,57,9,70,-6,58,0,ok,2,0,0.003,10,0.78,0.94,9.07,58,0.152,8.12
10.1320,0.09425,0.03665,1.59698,0.00000,0.00000,0.00000,31,-6,57,9,69,-8,59,1,ok,2,0,0.003,10,0.78,0.94,9.07,58,0.165,8.12
10.1547,0.09425,0.03665,1.59698,0.00000,0.00000,0.00000,29,-4,58,9,68,-10,60,1,ok,2,0,0.003,10,0.78,0.94,9.07,58,0.177,8.12
10.1579,0.09425,0.03665,1.59698,0.00000,0.00000,0.00000,24,-1,59,11,65,-11,61,1,ok,2,0,0.003,10,0.78,0.94,9.07,58,0.190,8.12
10.1708,0.03142,-0.07679,1.59872,0.00000,0.00000,0.00000,23,-1,60,11,63,-12,62,0,ok,2,0,0.003,10,-1.13,0.58,9.01,59,0.000,8.12
10.1907,0.03142,-0.07679,1.59872,0.00000,0.00000,0.00000,21,1,61,12,62,-13,64,-2,ok,2,0,0.003,10,-1.13,0.58,9.01,59,0.013,8.12
10.1955,0.03142,-0.07679,1.59872,0.00000,0.00000,0.00000,19,3,61,13,59,-14,64,-1,ok,2,0,0.003,10,-1.13,0.58,9.01,59,0.025,8.12
10.2080,0.03142,-0.07679,1.59872,0.00000,0.00000,0.00000,17,6,62,13,57,-14,65,-1,ok,2,0,0.003,10,-1.13,0.58,9.01,59,0.037,8.12
10.2308,0.03142,-0.07679,1.59872,0.00000,0.00000,0.00000,15,10,62,15,54,-13,66,0,ok,2,0,0.003,10,-1.13,0.58,9.01,59,0.050,8.12
10.2338,0.03142,-0.07679,1.59872,0.00000,0.00000,0.00000,13,12,63,15,51,-12,66,-1,ok,2,0,0.003,10,-1.13,0.58,9.01,59,0.063,8.12
10.2465,0.03142,-0.07679,1.59872,0.00000,0.00000,0.00000,15,13,63,16,49,-12,67,0,ok,2,0,0.003,10,-1.13,0.58,9.01,59,0.076,8.12
10.2667,0.03142,-0.07679,1.59872,0.00000,0.00000,0.00000,15,13,63,17,46,-11,68,0,ok,2,0,0.003,10,-1.13,0.58,9.01,59,0.089,8.12
10.2715,0.03142,-0.07679,1.59872,0.00000,0.00000,0.00000,16,12,64,18,43,-11,69,1,ok,2,0,0.003,10,-1.13,0.58,9.01,59,0.101,8.12
10.2839,0.03142,-0.07679,1.59872,0.00000,0.00000,0.00000,17,12,64,19,40,-10,69,1,ok,2,0,0.003,10,-1.13,0.58,9.01,59,0.114,8.12
10.3067,0.03142,-0.07679,1.59872,0.00000,0.00000,0.00000,18,11,65,19,38,-9,70,2,ok,2,0,0.003,10,-1.13,0.58,9.01,59,0.126,8.12
10.3098,0.03142,-0.07679,1.59872,0.00000,0.00000,0.00000,20,10,65,20,34,-8,70,2,ok,2,0,0.003,10,-1.13,0.58,9.01,59,0.139,8.12
10.3225,0.03142,-0.07679,1.59872,0.00000,0.00000,0.00000,20,10,65,21,32,-6,71,3,ok,2,0,0.003,10,-1.13,0.58,9.01,59,0.152,8.12
10.3427,0.03142,-0.07679,1.59872,0.00000,0.00000,0.00000,23,9,65,22,31,-5,71,5,ok,2,0,0.003,10,-1.13,0.58,9.01,59,0.165,8.12
10.3475,0.03142,-0.07679,1.59872,0.00000,0.00000,0.00000,24,8,65,23,28,-2,72,5,ok,2,0,0.003,10,-1.13,0.58,9.01,59,0.177,8.12
10.3601,0.03142,-0.07679,1.59872,0.00000,0.00000,0.00000,25,7,65,24,27,0,72,7,ok,2,0,0.003,10,-1.13,0.58,9.01,59,0.190,8.12
10.3828,-0.01920,0.01222,1.61792,0.00000,0.00000,0.00000,26,6,65,25,26,4,72,8,ok,2,0,0.003,10,1.58,-0.60,12.85,60,0.000,8.12
10.3858,-0.01920,0.01222,1.61792,0.00000,0.00000,0.00000,28,6,64,25,25,6,72,9,ok,2,0,0.003,10,1.58,-0.60,12.85,60,0.013,8.12
10.3985,-0.01920,0.01222,1.61792,0.00000,0.00000,0.00000,29,6,63,28,27,6,73,10,ok,2,0,0.003,10,1.58,-0.60,12.85,60,0.026,8.12
10.4187,-0.01920,0.01222,1.61792,0.00000,0.00000,0.00000,30,5,63,29,28,6,73,12,ok,2,0,0.003,10,1.58,-0.60,12.85,60,0.039,8.12
10.4236,-0.01920,0.01222,1.61792,0.00000,0.00000,0.00000,31,4,64,28,29,3,73,13,ok,2,0,0.003,10,1.58,-0.60,12.85,60,0.051,8.12
10.4360,-0.01920,0.01222,1.61792,0.00000,0.00000,0.00000,33,3,67,25,30,3,73,15,ok,2,0,0.003,10,1.58,-0.60,12.85,60,0.064,8.12
10.4587,-0.01920,0.01222,1.61792,0.00000,0.00000,0.00000,34,3,69,22,31,3,74,16,ok,2,0,0.003,10,1.58,-0.60,12.85,60,0.076,8.12
10.4618,-0.01920,0.01222,1.61792,0.00000,0.00000,0.00000,35,2,70,18,32,3,73,18,ok,2,0,0.003,10,1.58,-0.60,12.85,60,0.089,8.12
10.4745,-0.01920,0.01222,1.61792,0.00000,0.00000,0.00000,37,2,71,15,34,1,73,20,ok,2,0,0.003,10,1.58,-0.60,12.85,60,0.102,8.12
10.4947,-0.01920,0.01222,1.61792,0.00000,0.00000,0.00000,38,1,71,15,36,2,74,21,ok,2,0,0.003,10,1.58,-0.60,12.85,60,0.115,8.12
10.4995,-0.01920,0.01222,1.61792,0.00000,0.00000,0.00000,39,1,71,11,36,2,73,23,ok,2,0,0.003,10,1.58,-0.60,12.85,60,0.127,8.12
10.5120,-0.01920,0.01222,1.61792,0.00000,0.00000,0.00000,41,1,70,9,38,2,73,24,ok,2,0,0.003,10,1.58,-0.60,12.85,60,0.139,8.12
10.5348,-0.01920,0.01222,1.61792,0.00000,0.00000,0.00000,42,1,70,6,40,1,73,25,ok,2,0,0.003,10,1.58,-0.60,12.85,60,0.152,8.12
10.5378,-0.01920,0.01222,1.61792,0.00000,0.00000,0.00000,44,1,69,3,41,2,73,27,ok,2,0,0.003,10,1.58,-0.60,12.85,60,0.165,8.12
10.5505,-0.01920,0.01222,1.61792,0.00000,0.00000,0.00000,45,0,68,1,42,1,72,28,ok,2,0,0.003,10,1.58,-0.60,12.85,60,0.178,8.12
10.5707,-0.01920,0.01222,1.61792,0.00000,0.00000,0.00000,47,0,67,0,43,1,72,29,ok,2,0,0.003,10,1.58,-0.60,12.85,60,0.190,8.12
10.5758,-0.01920,-0.01571,1.60570,0.00000,0.00000,0.00000,47,0,65,-1,44,0,73,29,ok,2,0,0.003,10,-0.13,-0.99,9.30,61,0.000,8.12
10.5880,-0.01920,-0.01571,1.60570,0.00000,0.00000,0.00000,48,1,64,-4,46,0,74,29,ok,2,0,0.003,10,-0.13,-0.99,9.30,61,0.013,8.12
10.6107,-0.01920,-0.01571,1.60570,0.00000,0.00000,0.00000,50,1,63,-6,47,0,76,26,ok,2,0,0.003,10,-0.13,-0.99,9.30,61,0.025,8.12
10.6138,-0.01920,-0.01571,1.60570,0.00000,0.00000,0.00000,51,2,61,-6,48,0,78,21,ok,2,0,0.003,10,-0.13,-0.99,9.30,61,0.038,8.12
10.6265,-0.01920,-0.01571,1.60570,0.00000,0.00000,0.00000,52,1,58,-8,48,0,79,17,ok,2,0,0.003,10,-0.13,-0.99,9.30,61,0.051,8.12
10.6468,-0.01920,-0.01571,1.60570,0.00000,0.00000,0.00000,52,2,56,-8,50,0,81,14,ok,2,0,0.003,10,-0.13,-0.99,9.30,61,0.064,8.12
10.6517,-0.01920,-0.01571,1.60570,0.00000,0.00000,0.00000,52,4,54,-9,51,0,81,14,ok,2,0,0.003,10,-0.13,-0.99,9.30,61,0.076,8.12
10.6640,-0.01920,-0.01571,1.60570,0.00000,0.00000,0.00000,53,5,51,-9,52,0,81,11,ok,2,0,0.003,10,-0.13,-0.99,9.30,61,0.089,8.12
10.6868,-0.01920,-0.01571,1.60570,0.00000,0.00000,0.00000,54,4,48,-9,53,0,81,7,ok,2,0,0.003,11,-0.13,-0.99,9.30,61,0.101,8.12
10.6899,-0.01920,-0.01571,1.60570,0.00000,0.00000,0.00000,55,5,46,-8,54,1,80,4,ok,2,0,0.003,11,-0.13,-0.99,9.30,61,0.114,8.12
10.7026,-0.01920,-0.01571,1.60570,0.00000,0.00000,0.00000,55,6,43,-9,55,1,80,2,ok,2,0,0.003,11,-0.13,-0.99,9.30,61,0.127,8.12
10.7228,-0.01920,-0.01571,1.60570,0.00000,0.00000,0.00000,57,6,41,-9,56,2,79,-1,ok,2,0,0.003,11,-0.13,-0.99,9.30,61,0.140,8.12
10.7276,-0.01920,-0.01571,1.60570,0.00000,0.00000,0.00000,58,6,38,-8,57,1,79,-3,ok,2,0,0.003,11,-0.13,-0.99,9.30,61,0.152,8.12
10.7400,-0.01920,-0.01571,1.60570,0.00000,0.00000,0.00000,59,7,35,-7,57,1,77,-4,ok,2,0,0.003,11,-0.13,-0.99,9.30,61,0.165,8.12
10.7627,-0.01920,-0.01571,1.60570,0.00000,0.00000,0.00000,59,8,32,-6,58,2,75,-6,ok,2,0,0.003,11,-0.13,-0.99,9.30,61,0.177,8.12
10.7658,-0.01920,-0.01571,1.60570,0.00000,0.00000,0.00000,60,8,28,-5,59,2,73,-7,ok,2,0,0.003,11,-0.13,-0.99,9.30,61,0.190,8.12
10.7788,-0.09599,-0.02967,1.68599,0.00000,0.00000,0.00000,61,9,26,-3,60,2,71,-9,ok,2,0,0.003,11,-0.11,-1.15,9.38,62,0.000,8.12
10.7987,-0.09599,-0.02967,1.68599,0.00000,0.00000,0.00000,63,10,21,-1,61,1,70,-10,ok,2,0,0.003,11,-0.11,-1.15,9.38,62,0.013,8.12
10.8035,-0.09599,-0.02967,1.68599,0.00000,0.00000,0.00000,63,10,19,1,63,-1,68,-11,ok,2,0,0.003,11,-0.11,-1.15,9.38,62,0.025,8.12
10.8162,-0.09599,-0.02967,1.68599,0.00000,0.00000,0.00000,64,11,18,2,64,0,66,-12,ok,2,0,0.003,11,-0.11,-1.15,9.38,62,0.038,8.12
10.8387,-0.09599,-0.02967,1.68599,0.00000,0.00000,0.00000,64,12,16,4,64,0,64,-13,ok,2,0,0.003,11,-0.11,-1.15,9.38,62,0.050,8.12
10.8418,-0.09599,-0.02967,1.68599,0.00000,0.00000,0.00000,65,12,14,7,65,0,61,-13,ok,2,0,0.003,11,-0.11,-1.15,9.38,62,0.063,8.12
10.8546,-0.09599,-0.02967,1.68599,0.00000,0.00000,0.00000,65,14,12,11,65,1,59,-14,ok,2,0,0.003,11,-0.11,-1.15,9.38,62,0.076,8.12
10.8747,-0.09599,-0.02967,1.68599,0.00000,0.00000,0.00000,66,14,10,13,66,1,56,-12,ok,2,0,0.003,11,-0.11,-1.15,9.38,62,0.089,8.12
10.8795,-0.09599,-0.02967,1.68599,0.00000,0.00000,0.00000,66,15,12,13,67,1,54,-12,ok,2,0,0.003,11,-0.11,-1.15,9.38,62,0.101,8.12
10.8920,-0.09599,-0.02967,1.68599,0.00000,0.00000,0.00000,66,16,12,13,68,1,51,-12,ok,2,0,0.003,11,-0.11,-1.15,9.38,62,0.114,8.12
10.9147,-0.09599,-0.02967,1.68599,0.00000,0.00000,0.00000,67,17,14,12,68,2,48,-11,ok,2,0,0.003,11,-0.11,-1.15,9.38,62,0.126,8.12
10.9178,-0.09599,-0.02967,1.68599,0.00000,0.00000,0.00000,67,18,15,11,68,3,45,-10,ok,2,0,0.003,11,-0.11,-1.15,9.38,62,0.139,8.12
10.9306,-0.09599,-0.02967,1.68599,0.00000,0.00000,0.00000,67,18,15,11,68,3,42,-9,ok,2,0,0.003,11,-0.11,-1.15,9.38,62,0.152,8.12
10.9508,-0.09599,-0.02967,1.68599,0.00000,0.00000,0.00000,68,19,17,9,69,4,40,-8,ok,2,0,0.003,11,-0.11,-1.15,9.38,62,0.165,8.12
10.9555,-0.09599,-0.02967,1.68599,0.00000,0.00000,0.00000,68,20,17,9,69,5,36,-6,ok,2,0,0.003,11,-0.11,-1.15,9.38,62,0.177,8.12
10.9682,-0.09599,-0.02967,1.68599,0.00000,0.00000,0.00000,69,21,19,8,70,5,35,-5,ok,2,0,0.003,11,-0.11,-1.15,9.38,62,0.189,8.12
10.9908,-0.01222,0.04887,1.71217,0.00000,0.00000,0.00000,69,22,21,7,70,6,32,-3,ok,2,0,0.003,11,0.04,-1.04,10.17,63,0.000,8.12
10.9938,-0.01222,0.04887,1.71217,0.00000,0.00000,0.00000,68,23,22,7,70,8,30,0,ok,2,0,0.003,11,0.04,-1.04,10.17,63,0.013,8.12
11.0065,-0.01222,0.04887,1.71217,0.00000,0.00000,0.00000,68,24,23,6,71,9,29,2,ok,2,0,0.003,11,0.04,-1.04,10.17,63,0.026,8.12
11.0267,-0.01222,0.04887,1.71217,0.00000,0.00000,0.00000,68,25,24,5,71,10,28,6,ok,2,0,0.003,11,0.04,-1.04,10.17,63,0.039,8.12
11.0317,-0.01222,0.04887,1.71217,0.00000,0.00000,0.00000,67,28,25,5,71,11,27,8,ok,2,0,0.003,11,0.04,-1.04,10.17,63,0.051,8.12
11.0440,-0.01222,0.04887,1.71217,0.00000,0.00000,0.00000,66,29,27,4,71,13,29,6,ok,2,0,0.003,11,0.04,-1.04,10.17,63,0.064,8.12
11.0667,-0.01222,0.04887,1.71217,0.00000,0.00000,0.00000,68,28,28,4,71,14,29,6,ok,2,0,0.003,11,0.04,-1.04,10.17,63,0.076,8.12
11.0698,-0.01222,0.04887,1.71217,0.00000,0.00000,0.00000,70,25,29,3,71,15,31,4,ok,2,0,0.003,11,0.04,-1.04,10.17,63,0.089,8.12
11.0824,-0.01222,0.04887,1.71217,0.00000,0.00000,0.00000,72,21,30,3,71,16,32,3,ok,2,0,0.003,11,0.04,-1.04,10.17,63,0.102,8.12
11.1027,-0.01222,0.04887,1.71217,0.00000,0.00000,0.00000,73,17,32,2,71,19,34,3,ok,2,0,0.003,11,0.04,-1.04,10.17,63,0.114,8.12
11.1075,-0.01222,0.04887,1.71217,0.00000,0.00000,0.00000,74,15,33,2,71,19,35,3,ok,2,0,0.003,11,0.04,-1.04,10.17,63,0.127,8.12
11.1200,-0.01222,0.04887,1.71217,0.00000,0.00000,0.00000,73,14,35,2,70,22,37,2,ok,2,0,0.003,11,0.04,-1.04,10.17,63,0.139,8.12
11.1428,-0.01222,0.04887,1.71217,0.00000,0.00000,0.00000,73,11,36,2,70,23,39,2,ok,2,0,0.003,11,0.04,-1.04,10.17,63,0.152,8.12
11.1460,-0.01222,0.04887,1.71217,0.00000,0.00000,0.00000,73,8,37,2,71,24,39,2,ok,2,0,0.003,11,0.04,-1.04,10.17,63,0.165,8.12
11.1586,-0.01222,0.04887,1.71217,0.00000,0.00000,0.00000,72,5,38,2,71,26,41,2,ok,2,0,0.003,11,0.04,-1.04,10.17,63,0.178,8.12
11.1788,-0.01222,0.04887,1.71217,0.00000,0.00000,0.00000,71,1,40,2,70,28,42,2,ok,2,0,0.003,11,0.04,-1.04,10.17,63,0.191,8.12
11.1838,0.06807,0.02793,1.79594,0.00000,0.00000,0.00000,70,0,41,2,70,29,43,2,ok,2,0,0.003,11,0.43,0.66,10.57,64,0.000,8.12
11.1960,0.06807,0.02793,1.79594,0.00000,0.00000,0.00000,69,-3,43,2,70,30,44,1,ok,2,0,0.003,11,0.43,0.66,10.57,64,0.013,8.12
11.2187,0.06807,0.02793,1.79594,0.00000,0.00000,0.00000,66,-4,43,2,72,30,46,1,ok,2,0,0.003,11,0.43,0.66,10.57,64,0.025,8.12
11.2219,0.06807,0.02793,1.79594,0.00000,0.00000,0.00000,65,-6,45,3,73,27,47,0,ok,2,0,0.003,11,0.43,0.66,10.57,64,0.038,8.12
11.2345,0.06807,0.02793,1.79594,0.00000,0.00000,0.00000,64,-8,46,3,75,22,48,0,ok,2,0,0.003,11,0.43,0.66,10.57,64,0.051,8.12
11.2547,0.06807,0.02793,1.79594,0.00000,0.00000,0.00000,62,-9,47,4,76,18,49,1,ok,2,0,0.003,11,0.43,0.66,10.57,64,0.063,8.12
11.2595,0.06807,0.02793,1.79594,0.00000,0.00000,0.00000,60,-10,49,3,78,15,50,1,ok,2,0,0.003,11,0.43,0.66,10.57,64,0.076,8.12
11.2720,0.06807,0.02793,1.79594,0.00000,0.00000,0.00000,58,-10,49,3,78,14,50,1,ok,2,0,0.003,11,0.43,0.66,10.57,64,0.088,8.12
11.2948,0.06807,0.02793,1.79594,0.00000,0.00000,0.00000,55,-11,49,5,78,12,52,1,ok,2,0,0.003,11,0.43,0.66,10.57,64,0.101,8.12
11.2979,0.06807,0.02793,1.79594,0.00000,0.00000,0.00000,53,-11,51,6,78,9,53,1,ok,2,0,0.003,11,0.43,0.66,10.57,64,0.114,8.12
11.3106,0.06807,0.02793,1.79594,0.00000,0.00000,0.00000,50,-11,51,6,78,5,54,1,ok,2,0,0.003,11,0.43,0.66,10.57,64,0.127,8.12
11.3308,0.06807,0.02793,1.79594,0.00000,0.00000,0.00000,48,-10,52,6,77,3,55,0,ok,2,0,0.003,11,0.43,0.66,10.57,64,0.139,8.12
11.3358,0.06807,0.02793,1.79594,0.00000,0.00000,0.00000,45,-11,53,7,76,0,55,1,ok,2,0,0.003,11,0.43,0.66,10.57,64,0.152,8.12
11.3480,0.06807,0.02793,1.79594,0.00000,0.00000,0.00000,43,-11,55,8,76,-2,56,0,ok,2,0,0.003,11,0.43,0.66,10.57,64,0.165,8.12
11.3707,0.06807,0.02793,1.79594,0.00000,0.00000,0.00000,41,-10,55,8,74,-3,57,1,ok,2,0,0.003,11,0.43,0.66,10.57,64,0.177,8.12
11.3740,0.06807,0.02793,1.79594,0.00000,0.00000,0.00000,38,-9,56,8,73,-7,58,0,ok,2,0,0.003,11,0.43,0.66,10.57,64,0.190,8.12
11.3868,0.09076,-0.03840,1.78373,0.00000,0.00000,0.00000,35,-7,57,9,70,-6,58,0,ok,2,0,0.003,11,-0.75,0.53,9.75,65,0.000,8.12
11.4067,0.09076,-0.03840,1.78373,0.00000,0.00000,0.00000,32,-6,57,9,69,-8,59,0,ok,2,0,0.003,11,-0.75,0.53,9.75,65,0.013,8.12
11.4115,0.09076,-0.03840,1.78373,0.00000,0.00000,0.00000,29,-4,58,10,68,-10,60,1,ok,2,0,0.003,11,-0.75,0.53,9.75,65,0.025,8.12
11.4240,0.09076,-0.03840,1.78373,0.00000,0.00000,0.00000,25,-2,59,11,65,-11,61,0,ok,2,0,0.003,11,-0.75,0.53,9.75,65,0.037,8.12
11.4468,0.09076,-0.03840,1.78373,0.00000,0.00000,0.00000,23,-1,60,11,63,-12,62,0,ok,2,0,0.003,11,-0.75,0.53,9.75,65,0.050,8.12
11.4499,0.09076,-0.03840,1.78373,0.00000,0.00000,0.00000,21,1,61,12,62,-12,64,-2,ok,2,0,0.003,11,-0.75,0.53,9.75,65,0.063,8.12
11.4626,0.09076,-0.03840,1.78373,0.00000,0.00000,0.00000,19,3,62,13,59,-13,64,-1,ok,2,0,0.003,11,-0.75,0.53,9.75,65,0.076,8.12
11.4828,0.09076,-0.03840,1.78373,0.00000,0.00000,0.00000,17,7,62,13,57,-14,65,-1,ok,2,0,0.003,11,-0.75,0.53,9.75,65,0.088,8.12
11.4875,0.09076,-0.03840,1.78373,0.00000,0.00000,0.00000,15,10,62,15,54,-13,66,0,ok,2,0,0.003,11,-0.75,0.53,9.75,65,0.101,8.12
11.5002,0.09076,-0.03840,1.78373,0.00000,0.00000,0.00000,13,13,63,15,51,-12,66,-1,ok,2,0,0.003,11,-0.75,0.53,9.75,65,0.114,8.12
11.5227,0.09076,-0.03840,1.78373,0.00000,0.00000,0.00000,15,13,63,16,49,-12,67,0,ok,2,0,0.003,11,-0.75,0.53,9.75,65,0.126,8.12
11.5258,0.09076,-0.03840,1.78373,0.00000,0.00000,0.00000,15,13,63,17,46,-11,68,0,ok,2,0,0.003,11,-0.75,0.53,9.75,65,0.139,8.12
11.5385,0.09076,-0.03840,1.78373,0.00000,0.00000,0.00000,16,12,64,18,43,-11,69,1,ok,2,0,0.003,11,-0.75,0.53,9.75,65,0.152,8.12
11.5587,0.09076,-0.03840,1.78373,0.00000,0.00000,0.00000,18,12,64,19,40,-9,70,1,ok,2,0,0.003,11,-0.75,0.53,9.75,65,0.165,8.12
11.5635,0.09076,-0.03840,1.78373,0.00000,0.00000,0.00000,18,11,65,19,37,-9,70,2,ok,2,0,0.003,11,-0.75,0.53,9.75,65,0.177,8.12
11.5761,0.09076,-0.03840,1.78373,0.00000,0.00000,0.00000,20,10,65,20,34,-7,70,3,ok,2,0,0.003,11,-0.75,0.53,9.75,65,0.189,8.12
11.5988,-0.00000,0.00524,1.84132,0.00000,0.00000,0.00000,21,10,65,21,32,-6,71,4,ok,2,0,0.003,11,-0.63,-0.63,9.21,66,0.000,8.12
11.6018,-0.00000,0.00524,1.84132,0.00000,0.00000,0.00000,23,9,65,22,31,-5,71,5,ok,2,0,0.003,11,-0.63,-0.63,9.21,66,0.013,8.12
11.6146,-0.00000,0.00524,1.84132,0.00000,0.00000,0.00000,24,8,65,23,28,-1,72,6,ok,2,0,0.003,11,-0.63,-0.63,9.21,66,0.026,8.12
11.6347,-0.00000,0.00524,1.84132,0.00000,0.00000,0.00000,26,7,64,24,27,1,72,7,ok,2,0,0.003,11,-0.63,-0.63,9.21,66,0.039,8.12
11.6396,-0.00000,0.00524,1.84132,0.00000,0.00000,0.00000,27,6,64,25,26,4,72,8,ok,2,0,0.003,11,-0.63,-0.63,9.21,66,0.051,8.12
11.6520,-0.00000,0.00524,1.84132,0.00000,0.00000,0.00000,28,6,64,25,25,7,73,9,ok,2,0,0.003,11,-0.63,-0.63,9.21,66,0.064,8.12
11.6748,-0.00000,0.00524,1.84132,0.00000,0.00000,0.00000,29,5,63,28,27,6,73,10,ok,2,0,0.003,11,-0.63,-0.63,9.21,66,0.076,8.12
11.6780,-0.00000,0.00524,1.84132,0.00000,0.00000,0.00000,31,5,63,30,27,6,73,12,ok,2,0,0.003,11,-0.63,-0.63,9.21,66,0.089,8.12
11.6906,-0.00000,0.00524,1.84132,0.00000,0.00000,0.00000,32,4,64,28,29,4,73,13,ok,2,0,0.003,12,-0.63,-0.63,9.21,66,0.102,8.12
11.7107,-0.00000,0.00524,1.84132,0.00000,0.00000,0.00000,33,3,67,25,30,3,74,15,ok,2,0,0.003,12,-0.63,-0.63,9.21,66,0.115,8.12
11.7156,-0.00000,0.00524,1.84132,0.00000,0.00000,0.00000,34,3,69,22,31,3,74,16,ok,2,0,0.003,12,-0.63,-0.63,9.21,66,0.127,8.12
11.7281,-0.00000,0.00524,1.84132,0.00000,0.00000,0.00000,36,2,70,18,32,3,73,18,ok,2,0,0.003,12,-0.63,-0.63,9.21,66,0.140,8.12
11.7508,-0.00000,0.00524,1.84132,0.00000,0.00000,0.00000,37,2,71,16,34,2,73,20,ok,2,0,0.003,12,-0.63,-0.63,9.21,66,0.152,8.12
11.7538,-0.00000,0.00524,1.84132,0.00000,0.00000,0.00000,39,1,71,15,36,2,74,21,ok,2,0,0.003,12,-0.63,-0.63,9.21,66,0.165,8.12
11.7667,-0.00000,0.00524,1.84132,0.00000,0.00000,0.00000,40,1,71,12,36,2,73,23,ok,2,0,0.003,12,-0.63,-0.63,9.21,66,0.178,8.12
11.7867,-0.00000,0.00524,1.84132,0.00000,0.00000,0.00000,41,1,70,9,38,2,73,24,ok,2,0,0.003,12,-0.63,-0.63,9.21,66,0.191,8.12
11.7918,-0.02618,-0.01396,1.79420,0.00000,0.00000,0.00000,43,1,70,6,39,2,73,25,ok,2,0,0.003,12,-0.41,0.27,10.11,67,0.000,8.12
11.8040,-0.02618,-0.01396,1.79420,0.00000,0.00000,0.00000,44,0,69,4,40,2,73,27,ok,2,0,0.003,12,-0.41,0.27,10.11,67,0.013,8.12
11.8267,-0.02618,-0.01396,1.79420,0.00000,0.00000,0.00000,45,0,68,2,41,1,73,28,ok,2,0,0.003,12,-0.41,0.27,10.11,67,0.025,8.12
11.8300,-0.02618,-0.01396,1.79420,0.00000,0.00000,0.00000,47,0,67,0,43,1,72,30,ok,2,0,0.003,12,-0.41,0.27,10.11,67,0.038,8.12
11.8426,-0.02618,-0.01396,1.79420,0.00000,0.00000,0.00000,47,0,65,-1,44,0,73,30,ok,2,0,0.003,12,-0.41,0.27,10.11,67,0.051,8.12
11.8627,-0.02618,-0.01396,1.79420,0.00000,0.00000,0.00000,49,1,64,-3,45,0,75,29,ok,2,0,0.003,12,-0.41,0.27,10.11,67,0.063,8.12
11.8675,-0.02618,-0.01396,1.79420,0.00000,0.00000,0.00000,50,1,63,-6,47,0,76,27,ok,2,0,0.003,12,-0.41,0.27,10.11,67,0.076,8.12
11.8800,-0.02618,-0.01396,1.79420,0.00000,0.00000,0.00000,51,2,61,-6,47,0,78,21,ok,2,0,0.003,12,-0.41,0.27,10.11,67,0.088,8.12
11.9028,-0.02618,-0.01396,1.79420,0.00000,0.00000,0.00000,52,1,58,-8,48,0,79,17,ok,2,0,0.003,12,-0.41,0.27,10.11,67,0.101,8.12
11.9060,-0.02618,-0.01396,1.79420,0.00000,0.00000,0.00000,52,1,56,-8,49,0,81,14,ok,2,0,0.003,12,-0.41,0.27,10.11,67,0.114,8.12
11.9185,-0.02618,-0.01396,1.79420,0.00000,0.00000,0.00000,53,4,53,-9,51,0,81,14,ok,2,0,0.003,12,-0.41,0.27,10.11,67,0.127,8.12
11.9388,-0.02618,-0.01396,1.79420,0.00000,0.00000,0.00000,54,5,51,-9,52,1,81,11,ok,2,0,0.003,12,-0.41,0.27,10.11,67,0.139,8.12
11.9435,-0.02618,-0.01396,1.79420,0.00000,0.00000,0.00000,54,4,48,-9,53,1,81,7,ok,2,0,0.003,12,-0.41,0.27,10.11,67,0.152,8.12
11.9560,-0.02618,-0.01396,1.79420,0.00000,0.00000,0.00000,55,5,45,-8,54,1,80,4,ok,2,0,0.003,12,-0.41,0.27,10.11,67,0.165,8.12
11.9787,-0.02618,-0.01396,1.79420,0.00000,0.00000,0.00000,55,6,43,-8,55,1,80,3,ok,2,0,0.003,12,-0.41,0.27,10.11,67,0.177,8.12
11.9821,-0.02618,-0.01396,1.79420,0.00000,0.00000,0.00000,57,6,41,-9,56,2,79,-1,ok,2,0,0.003,12,-0.41,0.27,10.11,67,0.190,8.12
11.9948,-0.09599,-0.02967,1.91114,0.00000,0.00000,0.00000,58,6,38,-8,57,1,79,-3,ok,2,0,0.003,12,-1.55,-1.07,9.38,68,0.000,8.12
12.0147,-0.09599,-0.02967,1.91114,0.00000,0.00000,0.00000,59,7,35,-6,57,1,77,-4,ok,2,0,0.003,12,-1.55,-1.07,9.38,68,0.013,8.12
12.0195,-0.09599,-0.02967,1.91114,0.00000,0.00000,0.00000,60,8,32,-5,58,2,75,-6,ok,2,0,0.003,12,-1.55,-1.07,9.38,68,0.025,8.12
12.0320,-0.09599,-0.02967,1.91114,0.00000,0.00000,0.00000,61,8,28,-4,59,2,73,-6,ok,2,0,0.003,12,-1.55,-1.07,9.38,68,0.038,8.12
12.0588,-0.09599,-0.02967,1.91114,0.00000,0.00000,0.00000,61,9,25,-3,60,2,72,-8,ok,2,0,0.003,12,-1.55,-1.07,9.38,68,0.050,8.12
12.0620,-0.09599,-0.02967,1.91114,0.00000,0.00000,0.00000,63,10,21,-1,61,1,70,-10,ok,2,0,0.003,12,-1.55,-1.07,9.38,68,0.067,8.12
12.0745,-0.09599,-0.02967,1.91114,0.00000,0.00000,0.00000,63,10,19,1,63,-1,68,-11,ok,2,0,0.003,12,-1.55,-1.07,9.38,68,0.080,8.12
12.0948,-0.09599,-0.02967,1.91114,0.00000,0.00000,0.00000,64,11,18,2,63,0,66,-12,ok,2,0,0.003,12,-1.55,-1.07,9.38,68,0.093,8.12
12.0996,-0.09599,-0.02967,1.91114,0.00000,0.00000,0.00000,64,12,16,4,64,1,64,-13,ok,2,0,0.003,12,-1.55,-1.07,9.38,68,0.105,8.12
12.1122,-0.09599,-0.02967,1.91114,0.00000,0.00000,0.00000,65,12,14,7,65,1,61,-13,ok,2,0,0.003,12,-1.55,-1.07,9.38,68,0.118,8.12
12.1348,-0.09599,-0.02967,1.91114,0.00000,0.00000,0.00000,65,14,12,11,65,1,59,-14,ok,2,0,0.003,12,-1.55,-1.07,9.38,68,0.130,8.12
12.1379,-0.09599,-0.02967,1.91114,0.00000,0.00000,0.00000,66,14,10,13,66,1,56,-12,ok,2,0,0.003,12,-1.55,-1.07,9.38,68,0.143,8.12
12.1506,-0.09599,-0.02967,1.91114,0.00000,0.00000,0.00000,66,15,12,13,67,1,53,-12,ok,2,0,0.003,12,-1.55,-1.07,9.38,68,0.156,8.12
12.1707,-0.09599,-0.02967,1.91114,0.00000,0.00000,0.00000,66,16,12,13,67,1,51,-11,ok,2,0,0.003,12,-1.55,-1.07,9.38,68,0.169,8.12
12.1756,-0.09599,-0.02967,1.91114,0.00000,0.00000,0.00000,67,17,13,12,68,2,48,-11,ok,2,0,0.003,12,-1.55,-1.07,9.38,68,0.181,8.12
12.1882,-0.09599,-0.02967,1.91114,0.00000,0.00000,0.00000,67,18,15,11,68,3,46,-10,ok,2,0,0.004,12,-1.55,-1.07,9.38,68,0.194,8.12
12.2108,0.00349,0.02618,1.89194,0.00000,0.00000,0.00000,68,18,15,11,68,3,42,-9,ok,2,0,0.004,12,0.71,0.67,8.94,69,0.000,8.12
12.2139,0.00349,0.02618,1.89194,0.00000,0.00000,0.00000,68,19,17,9,69,4,40,-8,ok,2,0,0.004,12,0.71,0.67,8.94,69,0.013,8.12
12.2268,0.00349,0.02618,1.89194,0.00000,0.00000,0.00000,68,20,17,9,69,6,36,-6,ok,2,0,0.004,12,0.71,0.67,8.94,69,0.026,8.12
