# run_gait log  cmd_fwd=0.100 hz=80.0 fw_balance=off policy_yaw_sign=-1
t,roll,pitch,yaw,gx,gy,gz,j0,j1,j2,j3,j4,j5,j6,j7,guard_state,hottest_j,hottest_tier,hottest_frac,duty_s,ax,ay,az,imu_n,imu_age_s,volt
0.0308,-0.15882,-0.01745,0.00000,0.00000,0.00000,0.00000,21,-2,59,7,66,-13,61,1,ok,4,0,0.000,0,-6.45,-1.03,11.73,9,0.021,nan
0.0343,-0.15882,-0.01745,0.00000,0.00000,0.00000,0.00000,19,0,61,8,64,-13,63,-1,ok,4,0,0.000,0,-6.45,-1.03,11.73,9,0.043,nan
0.0472,-0.15882,-0.01745,0.00000,0.00000,0.00000,0.00000,17,2,61,9,61,-14,64,0,ok,4,0,0.000,0,-6.45,-1.03,11.73,9,0.055,8.36
0.0667,-0.15882,-0.01745,0.00000,0.00000,0.00000,0.00000,15,5,62,10,59,-14,64,1,ok,4,0,0.000,0,-6.45,-1.03,11.73,9,0.068,8.36
0.0717,-0.15882,-0.01745,0.00000,0.00000,0.00000,0.00000,13,9,62,11,56,-13,65,2,ok,4,0,0.000,0,-6.45,-1.03,11.73,9,0.080,8.36
0.0841,-0.15882,-0.01745,0.00000,0.00000,0.00000,0.00000,12,11,63,11,53,-13,65,2,ok,4,0,0.000,0,-6.45,-1.03,11.73,9,0.093,8.36
0.1068,-0.15882,-0.01745,0.00000,0.00000,0.00000,0.00000,13,11,63,13,51,-13,66,3,ok,4,0,0.000,0,-6.45,-1.03,11.73,9,0.105,8.36
0.1101,-0.15882,-0.01745,0.00000,0.00000,0.00000,0.00000,13,11,63,14,48,-13,66,2,ok,4,0,0.000,0,-6.45,-1.03,11.73,9,0.119,8.36
0.1226,-0.15882,-0.01745,0.00000,0.00000,0.00000,0.00000,14,10,64,14,45,-12,66,3,ok,4,0,0.000,0,-6.45,-1.03,11.73,9,0.131,8.36
0.1428,-0.15882,-0.01745,0.00000,0.00000,0.00000,0.00000,15,9,65,15,42,-11,67,3,ok,4,0,0.000,0,-6.45,-1.03,11.73,9,0.144,8.36
0.1476,-0.15882,-0.01745,0.00000,0.00000,0.00000,0.00000,16,9,65,15,39,-10,67,4,ok,4,0,0.000,0,-6.45,-1.03,11.73,9,0.156,8.36
0.1601,-0.15882,-0.01745,0.00000,0.00000,0.00000,0.00000,18,7,66,16,36,-9,68,4,ok,4,0,0.000,0,-6.45,-1.03,11.73,9,0.169,8.36
0.1827,-0.11694,-0.04363,0.08727,0.00000,0.00000,0.00000,18,7,66,17,34,-8,68,5,ok,4,0,0.000,0,-2.44,-2.75,10.69,10,0.000,8.36
0.1859,-0.11694,-0.04363,0.08727,0.00000,0.00000,0.00000,21,6,67,18,33,-6,69,6,ok,4,0,0.000,0,-2.44,-2.75,10.69,10,0.013,8.36
0.1985,-0.11694,-0.04363,0.08727,0.00000,0.00000,0.00000,22,5,67,19,30,-3,70,7,ok,4,0,0.000,0,-2.44,-2.75,10.69,10,0.026,8.36
0.2187,-0.11694,-0.04363,0.08727,0.00000,0.00000,0.00000,23,5,66,21,29,0,70,8,ok,4,0,0.000,0,-2.44,-2.75,10.69,10,0.038,8.36
0.2237,-0.11694,-0.04363,0.08727,0.00000,0.00000,0.00000,24,4,66,22,27,3,70,9,ok,4,0,0.000,0,-2.44,-2.75,10.69,10,0.051,8.36
0.2360,-0.11694,-0.04363,0.08727,0.00000,0.00000,0.00000,25,4,66,23,27,6,70,9,ok,4,0,0.000,0,-2.44,-2.75,10.69,10,0.063,8.36
0.2587,-0.11694,-0.04363,0.08727,0.00000,0.00000,0.00000,26,4,65,26,29,5,71,10,ok,4,0,0.000,0,-2.44,-2.75,10.69,10,0.076,8.36
0.2618,-0.11694,-0.04363,0.08727,0.00000,0.00000,0.00000,28,3,65,28,29,5,71,11,ok,4,0,0.000,0,-2.44,-2.75,10.69,10,0.089,8.36
0.2745,-0.11694,-0.04363,0.08727,0.00000,0.00000,0.00000,29,3,66,26,30,3,71,12,ok,4,0,0.000,0,-2.44,-2.75,10.69,10,0.102,8.36
0.2947,-0.11694,-0.04363,0.08727,0.00000,0.00000,0.00000,30,2,69,24,31,3,72,13,ok,4,0,0.000,0,-2.44,-2.75,10.69,10,0.114,8.36
0.2995,-0.11694,-0.04363,0.08727,0.00000,0.00000,0.00000,31,1,72,20,32,3,72,14,ok,4,0,0.000,0,-2.44,-2.75,10.69,10,0.127,8.36
0.3120,-0.11694,-0.04363,0.08727,0.00000,0.00000,0.00000,32,0,73,17,34,3,72,16,ok,4,0,0.000,0,-2.44,-2.75,10.69,10,0.139,8.36
0.3347,-0.11694,-0.04363,0.08727,0.00000,0.00000,0.00000,33,0,73,15,35,1,72,18,ok,4,0,0.000,0,-2.44,-2.75,10.69,10,0.152,8.36
0.3380,-0.11694,-0.04363,0.08727,0.00000,0.00000,0.00000,34,-1,73,15,37,2,73,19,ok,4,0,0.000,0,-2.44,-2.75,10.69,10,0.165,8.36
0.3505,-0.11694,-0.04363,0.08727,0.00000,0.00000,0.00000,35,-1,73,12,37,2,72,21,ok,4,0,0.000,0,-2.44,-2.75,10.69,10,0.178,8.36
0.3707,-0.11694,-0.04363,0.08727,0.00000,0.00000,0.00000,37,-1,73,9,39,2,72,22,ok,4,0,0.000,0,-2.44,-2.75,10.69,10,0.190,8.36
0.3758,-0.11694,-0.04363,0.08727,0.00000,0.00000,0.00000,38,-1,72,6,40,1,72,23,ok,4,0,0.000,0,-2.44,-2.75,10.69,10,0.203,8.36
0.3883,0.02967,-0.16581,-0.01222,0.00000,0.00000,0.00000,39,-2,72,3,41,1,72,25,ok,4,0,0.000,0,-1.10,0.61,9.96,11,0.000,8.36
0.4107,0.02967,-0.16581,-0.01222,0.00000,0.00000,0.00000,40,-2,71,1,42,0,72,26,ok,4,0,0.000,0,-1.10,0.61,9.96,11,0.013,8.36
0.4139,0.02967,-0.16581,-0.01222,0.00000,0.00000,0.00000,42,-2,70,-1,44,0,71,27,ok,4,0,0.000,0,-1.10,0.61,9.96,11,0.026,8.36
0.4266,0.02967,-0.16581,-0.01222,0.00000,0.00000,0.00000,42,-2,68,-2,45,-1,72,27,ok,4,0,0.000,0,-1.10,0.61,9.96,11,0.039,8.36
0.4467,0.02967,-0.16581,-0.01222,0.00000,0.00000,0.00000,44,-1,67,-4,46,-1,73,27,ok,4,0,0.000,0,-1.10,0.61,9.96,11,0.051,8.36
0.4516,0.02967,-0.16581,-0.01222,0.00000,0.00000,0.00000,45,-1,66,-6,47,-1,75,25,ok,4,0,0.000,0,-1.10,0.61,9.96,11,0.064,8.36
0.4642,0.02967,-0.16581,-0.01222,0.00000,0.00000,0.00000,47,0,63,-7,48,-2,76,20,ok,4,0,0.000,0,-1.10,0.61,9.96,11,0.076,8.36
0.4867,0.02967,-0.16581,-0.01222,0.00000,0.00000,0.00000,48,0,61,-9,49,-2,77,16,ok,4,0,0.000,0,-1.10,0.61,9.96,11,0.089,8.36
0.4898,0.02967,-0.16581,-0.01222,0.00000,0.00000,0.00000,49,1,58,-9,50,-2,79,13,ok,4,0,0.000,0,-1.10,0.61,9.96,11,0.102,8.36
0.5027,0.02967,-0.16581,-0.01222,0.00000,0.00000,0.00000,49,3,56,-10,51,-2,79,13,ok,4,0,0.000,0,-1.10,0.61,9.96,11,0.114,8.36
0.5227,0.02967,-0.16581,-0.01222,0.00000,0.00000,0.00000,51,4,52,-10,53,-1,79,10,ok,4,0,0.000,1,-1.10,0.61,9.96,11,0.127,8.36
0.5275,0.02967,-0.16581,-0.01222,0.00000,0.00000,0.00000,52,4,49,-10,54,-1,79,7,ok,4,0,0.000,1,-1.10,0.61,9.96,11,0.139,8.36
0.5399,0.02967,-0.16581,-0.01222,0.00000,0.00000,0.00000,53,5,47,-10,55,0,79,3,ok,4,0,0.000,1,-1.10,0.61,9.96,11,0.152,8.36
0.5627,0.02967,-0.16581,-0.01222,0.00000,0.00000,0.00000,53,6,44,-10,56,-1,78,2,ok,4,0,0.000,1,-1.10,0.61,9.96,11,0.164,8.36
0.5660,0.02967,-0.16581,-0.01222,0.00000,0.00000,0.00000,55,6,42,-10,57,0,78,-2,ok,4,0,0.000,1,-1.10,0.61,9.96,11,0.178,8.36
0.5787,0.02967,-0.16581,-0.01222,0.00000,0.00000,0.00000,55,6,39,-9,58,-1,77,-3,ok,4,0,0.000,1,-1.10,0.61,9.96,11,0.191,8.36
0.5987,-0.15882,-0.15882,0.03316,0.00000,0.00000,0.00000,57,7,36,-8,59,0,76,-5,ok,4,0,0.000,1,-4.45,-1.91,9.46,12,0.000,8.36
0.6035,-0.15882,-0.15882,0.03316,0.00000,0.00000,0.00000,57,7,33,-7,59,0,74,-7,ok,4,0,0.000,1,-4.45,-1.91,9.46,12,0.012,8.36
0.6161,-0.15882,-0.15882,0.03316,0.00000,0.00000,0.00000,59,8,30,-6,60,-1,71,-7,ok,2,0,0.000,1,-4.45,-1.91,9.46,12,0.025,8.36
0.6387,-0.15882,-0.15882,0.03316,0.00000,0.00000,0.00000,59,8,27,-4,61,-1,70,-8,ok,2,0,0.000,1,-4.45,-1.91,9.46,12,0.037,8.36
0.6418,-0.15882,-0.15882,0.03316,0.00000,0.00000,0.00000,61,10,22,-2,62,-1,69,-10,ok,2,0,0.000,1,-4.45,-1.91,9.46,12,0.051,8.36
0.6545,-0.15882,-0.15882,0.03316,0.00000,0.00000,0.00000,61,10,21,0,64,-3,67,-12,ok,2,0,0.000,1,-4.45,-1.91,9.46,12,0.063,8.36
0.6747,-0.15882,-0.15882,0.03316,0.00000,0.00000,0.00000,61,10,19,1,64,-2,64,-13,ok,2,0,0.000,1,-4.45,-1.91,9.46,12,0.076,8.36
0.6795,-0.15882,-0.15882,0.03316,0.00000,0.00000,0.00000,62,11,17,3,65,-1,63,-13,ok,2,0,0.000,1,-4.45,-1.91,9.46,12,0.088,8.36
0.6919,-0.15882,-0.15882,0.03316,0.00000,0.00000,0.00000,62,12,15,7,66,-1,60,-14,ok,2,0,0.000,1,-4.45,-1.91,9.46,12,0.101,8.36
0.7147,-0.15882,-0.15882,0.03316,0.00000,0.00000,0.00000,62,13,14,10,67,-1,58,-15,ok,2,0,0.000,1,-4.45,-1.91,9.46,12,0.113,8.36
0.7178,-0.15882,-0.15882,0.03316,0.00000,0.00000,0.00000,62,13,12,13,68,-1,55,-14,ok,2,0,0.000,1,-4.45,-1.91,9.46,12,0.127,8.36
0.7305,-0.15882,-0.15882,0.03316,0.00000,0.00000,0.00000,62,14,14,13,68,-1,52,-13,ok,2,0,0.000,1,-4.45,-1.91,9.46,12,0.139,8.36
0.7508,-0.15882,-0.15882,0.03316,0.00000,0.00000,0.00000,63,16,13,13,69,-1,50,-12,ok,2,0,0.000,1,-4.45,-1.91,9.46,12,0.152,8.36
0.7557,-0.15882,-0.15882,0.03316,0.00000,0.00000,0.00000,64,16,15,12,69,0,46,-11,ok,2,0,0.000,1,-4.45,-1.91,9.46,12,0.164,8.36
0.7680,-0.15882,-0.15882,0.03316,0.00000,0.00000,0.00000,64,18,16,11,69,0,44,-11,ok,2,0,0.000,1,-4.45,-1.91,9.46,12,0.177,8.36
0.7907,-0.15882,-0.15882,0.03316,0.00000,0.00000,0.00000,65,18,16,10,69,1,41,-10,ok,2,0,0.000,1,-4.45,-1.91,9.46,12,0.189,8.36
0.7942,0.07156,-0.17977,0.07505,0.00000,0.00000,0.00000,65,18,18,9,70,2,38,-9,ok,2,0,0.000,1,-0.69,1.70,10.00,13,0.000,8.36
0.8066,0.07156,-0.17977,0.07505,0.00000,0.00000,0.00000,65,20,19,9,70,3,35,-8,ok,2,0,0.000,1,-0.69,1.70,10.00,13,0.013,8.36
0.8267,0.07156,-0.17977,0.07505,0.00000,0.00000,0.00000,66,21,21,8,71,4,34,-6,ok,2,0,0.000,1,-0.69,1.70,10.00,13,0.025,8.36
0.8316,0.07156,-0.17977,0.07505,0.00000,0.00000,0.00000,66,22,22,7,71,5,31,-5,ok,2,0,0.000,1,-0.69,1.70,10.00,13,0.038,8.36
0.8440,0.07156,-0.17977,0.07505,0.00000,0.00000,0.00000,66,23,23,6,71,6,29,-2,ok,2,0,0.000,1,-0.69,1.70,10.00,13,0.050,8.36
0.8667,0.07156,-0.17977,0.07505,0.00000,0.00000,0.00000,66,24,24,6,71,7,28,1,ok,2,0,0.000,1,-0.69,1.70,10.00,13,0.063,8.36
0.8700,0.07156,-0.17977,0.07505,0.00000,0.00000,0.00000,65,25,25,5,71,8,26,4,ok,2,0,0.000,1,-0.69,1.70,10.00,13,0.076,8.36
0.8825,0.07156,-0.17977,0.07505,0.00000,0.00000,0.00000,65,28,26,4,72,9,26,6,ok,2,0,0.000,1,-0.69,1.70,10.00,13,0.089,8.36
0.9027,0.07156,-0.17977,0.07505,0.00000,0.00000,0.00000,64,29,28,4,71,10,28,5,ok,2,0,0.000,1,-0.69,1.70,10.00,13,0.101,8.36
0.9075,0.07156,-0.17977,0.07505,0.00000,0.00000,0.00000,66,28,29,3,71,11,28,5,ok,2,0,0.000,1,-0.69,1.70,10.00,13,0.114,8.36
0.9200,0.07156,-0.17977,0.07505,0.00000,0.00000,0.00000,68,25,30,3,72,13,30,3,ok,2,0,0.000,1,-0.69,1.70,10.00,13,0.126,8.36
0.9427,0.07156,-0.17977,0.07505,0.00000,0.00000,0.00000,71,21,31,2,71,14,31,2,ok,2,0,0.000,1,-0.69,1.70,10.00,13,0.139,8.36
0.9459,0.07156,-0.17977,0.07505,0.00000,0.00000,0.00000,71,17,33,2,71,16,33,2,ok,2,0,0.000,1,-0.69,1.70,10.00,13,0.152,8.36
0.9587,0.07156,-0.17977,0.07505,0.00000,0.00000,0.00000,72,15,34,2,72,17,34,1,ok,2,0,0.000,1,-0.69,1.70,10.00,13,0.165,8.36
0.9787,0.07156,-0.17977,0.07505,0.00000,0.00000,0.00000,71,14,36,2,71,19,36,0,ok,2,0,0.000,1,-0.69,1.70,10.00,13,0.177,8.36
0.9835,0.07156,-0.17977,0.07505,0.00000,0.00000,0.00000,71,11,37,2,71,20,38,0,ok,2,0,0.000,1,-0.69,1.70,10.00,13,0.190,8.36
0.9962,0.02094,-0.01571,0.08203,0.00000,0.00000,0.00000,70,7,39,2,71,22,39,1,ok,2,0,0.000,1,0.29,-0.57,10.88,14,0.000,8.36
1.0187,0.02094,-0.01571,0.08203,0.00000,0.00000,0.00000,69,5,40,2,71,24,40,1,ok,2,0,0.000,1,0.29,-0.57,10.88,14,0.013,8.36
1.0220,0.02094,-0.01571,0.08203,0.00000,0.00000,0.00000,68,1,41,2,70,26,41,1,ok,2,0,0.000,1,0.29,-0.57,10.88,14,0.026,8.36
1.0345,0.02094,-0.01571,0.08203,0.00000,0.00000,0.00000,67,0,42,1,70,28,42,1,ok,2,0,0.000,1,0.29,-0.57,10.88,14,0.039,8.36
1.0547,0.02094,-0.01571,0.08203,0.00000,0.00000,0.00000,66,-3,44,2,71,28,43,0,ok,2,0,0.000,1,0.29,-0.57,10.88,14,0.051,8.36
1.0595,0.02094,-0.01571,0.08203,0.00000,0.00000,0.00000,64,-4,44,2,72,27,44,0,ok,2,0,0.000,1,0.29,-0.57,10.88,14,0.064,8.36
1.0719,0.02094,-0.01571,0.08203,0.00000,0.00000,0.00000,63,-6,46,2,73,25,46,-1,ok,2,0,0.000,1,0.29,-0.57,10.88,14,0.076,8.36
1.0947,0.02094,-0.01571,0.08203,0.00000,0.00000,0.00000,62,-8,47,2,75,21,47,0,ok,2,0,0.000,1,0.29,-0.57,10.88,14,0.089,8.36
1.0980,0.02094,-0.01571,0.08203,0.00000,0.00000,0.00000,60,-9,48,3,77,16,48,0,ok,2,0,0.000,1,0.29,-0.57,10.88,14,0.102,8.36
1.1105,0.02094,-0.01571,0.08203,0.00000,0.00000,0.00000,57,-10,49,3,78,14,49,0,ok,2,0,0.000,1,0.29,-0.57,10.88,14,0.115,8.36
1.1307,0.02094,-0.01571,0.08203,0.00000,0.00000,0.00000,55,-11,50,3,79,13,49,0,ok,2,0,0.000,1,0.29,-0.57,10.88,14,0.127,8.36
1.1355,0.02094,-0.01571,0.08203,0.00000,0.00000,0.00000,53,-12,50,5,79,11,51,0,ok,2,0,0.000,1,0.29,-0.57,10.88,14,0.140,8.36
1.1481,0.02094,-0.01571,0.08203,0.00000,0.00000,0.00000,50,-11,52,5,79,7,51,0,ok,2,0,0.000,1,0.29,-0.57,10.88,14,0.152,8.36
1.1707,0.02094,-0.01571,0.08203,0.00000,0.00000,0.00000,47,-11,53,5,78,4,53,0,ok,2,0,0.000,1,0.29,-0.57,10.88,14,0.165,8.36
1.1738,0.02094,-0.01571,0.08203,0.00000,0.00000,0.00000,45,-11,54,6,78,2,53,0,ok,2,0,0.000,1,0.29,-0.57,10.88,14,0.178,8.36
1.1865,0.02094,-0.01571,0.08203,0.00000,0.00000,0.00000,42,-11,54,6,77,-2,54,0,ok,2,0,0.000,1,0.29,-0.57,10.88,14,0.191,8.36
1.2067,0.05934,0.00349,0.09425,0.00000,0.00000,0.00000,40,-11,56,7,76,-4,55,-1,ok,2,0,0.000,1,0.36,0.71,9.60,15,0.000,8.36
1.2115,0.05934,0.00349,0.09425,0.00000,0.00000,0.00000,38,-10,56,7,75,-5,56,0,ok,2,0,0.000,1,0.36,0.71,9.60,15,0.012,8.36
1.2241,0.05934,0.00349,0.09425,0.00000,0.00000,0.00000,35,-9,57,7,74,-8,56,-1,ok,2,0,0.000,1,0.36,0.71,9.60,15,0.025,8.36
1.2467,0.05934,0.00349,0.09425,0.00000,0.00000,0.00000,32,-8,58,8,71,-8,57,0,ok,2,0,0.000,1,0.36,0.71,9.60,15,0.038,8.36
1.2499,0.05934,0.00349,0.09425,0.00000,0.00000,0.00000,29,-6,58,8,70,-10,57,0,ok,2,0,0.000,1,0.36,0.71,9.60,15,0.051,8.36
1.2626,0.05934,0.00349,0.09425,0.00000,0.00000,0.00000,26,-4,59,9,69,-11,59,0,ok,2,0,0.000,1,0.36,0.71,9.60,15,0.064,8.36
1.2827,0.05934,0.00349,0.09425,0.00000,0.00000,0.00000,22,-2,60,10,66,-13,59,0,ok,2,0,0.000,1,0.36,0.71,9.60,15,0.076,8.36
1.2876,0.05934,0.00349,0.09425,0.00000,0.00000,0.00000,20,-1,61,11,64,-13,60,0,ok,2,0,0.000,1,0.36,0.71,9.60,15,0.089,8.36
1.3000,0.05934,0.00349,0.09425,0.00000,0.00000,0.00000,18,0,62,11,62,-14,63,-3,ok,2,0,0.000,1,0.36,0.71,9.60,15,0.101,8.36
1.3227,0.05934,0.00349,0.09425,0.00000,0.00000,0.00000,16,3,62,12,60,-15,63,-1,ok,2,0,0.000,1,0.36,0.71,9.60,15,0.114,8.36
1.3258,0.05934,0.00349,0.09425,0.00000,0.00000,0.00000,14,6,63,13,58,-15,64,-2,ok,2,0,0.000,1,0.36,0.71,9.60,15,0.127,8.36
1.3386,0.05934,0.00349,0.09425,0.00000,0.00000,0.00000,12,10,63,14,55,-14,65,-1,ok,2,0,0.000,1,0.36,0.71,9.60,15,0.140,8.36
1.3587,0.05934,0.00349,0.09425,0.00000,0.00000,0.00000,11,12,64,14,52,-13,65,-1,ok,2,0,0.000,1,0.36,0.71,9.60,15,0.152,8.36
1.3635,0.05934,0.00349,0.09425,0.00000,0.00000,0.00000,12,13,64,15,50,-13,66,0,ok,2,0,0.000,1,0.36,0.71,9.60,15,0.165,8.36
1.3760,0.05934,0.00349,0.09425,0.00000,0.00000,0.00000,12,13,64,16,47,-12,67,-1,ok,2,0,0.000,1,0.36,0.71,9.60,15,0.177,8.36
1.3987,0.05934,0.00349,0.09425,0.00000,0.00000,0.00000,14,12,65,17,44,-12,68,0,ok,2,0,0.000,1,0.36,0.71,9.60,15,0.190,8.36
1.4021,-0.00349,-0.01396,0.11694,0.00000,0.00000,0.00000,15,11,65,18,41,-10,69,0,ok,2,0,0.000,1,-0.54,-0.65,8.64,16,0.000,8.36
1.4145,-0.00349,-0.01396,0.11694,0.00000,0.00000,0.00000,16,11,65,18,38,-10,69,2,ok,4,0,0.000,1,-0.54,-0.65,8.64,16,0.013,8.36
1.4347,-0.00349,-0.01396,0.11694,0.00000,0.00000,0.00000,18,10,66,19,35,-8,69,2,ok,4,0,0.000,1,-0.54,-0.65,8.64,16,0.025,8.36
1.4395,-0.00349,-0.01396,0.11694,0.00000,0.00000,0.00000,18,10,66,20,33,-7,70,3,ok,4,0,0.000,1,-0.54,-0.65,8.64,16,0.038,8.36
1.4520,-0.00349,-0.01396,0.11694,0.00000,0.00000,0.00000,20,8,66,21,32,-6,71,4,ok,4,0,0.000,1,-0.54,-0.65,8.64,16,0.050,8.36
1.4747,-0.00349,-0.01396,0.11694,0.00000,0.00000,0.00000,22,7,66,22,29,-2,71,5,ok,4,0,0.000,1,-0.54,-0.65,8.64,16,0.063,8.36
1.4780,-0.00349,-0.01396,0.11694,0.00000,0.00000,0.00000,23,7,66,23,28,0,71,6,ok,4,0,0.000,1,-0.54,-0.65,8.64,16,0.076,8.36
1.4905,-0.00349,-0.01396,0.11694,0.00000,0.00000,0.00000,24,6,66,24,27,3,71,7,ok,4,0,0.000,1,-0.54,-0.65,8.64,16,0.089,8.36
1.5107,-0.00349,-0.01396,0.11694,0.00000,0.00000,0.00000,25,6,65,25,26,6,72,8,ok,4,0,0.000,1,-0.54,-0.65,8.64,16,0.101,8.36
1.5155,-0.00349,-0.01396,0.11694,0.00000,0.00000,0.00000,26,5,64,28,28,5,72,9,ok,4,0,0.000,1,-0.54,-0.65,8.64,16,0.114,8.36
1.5279,-0.00349,-0.01396,0.11694,0.00000,0.00000,0.00000,28,4,64,29,29,5,72,11,ok,4,0,0.000,1,-0.54,-0.65,8.64,16,0.126,8.36
1.5507,-0.00349,-0.01396,0.11694,0.00000,0.00000,0.00000,29,4,65,27,30,3,72,12,ok,4,0,0.000,2,-0.54,-0.65,8.64,16,0.139,8.36
1.5540,-0.00349,-0.01396,0.11694,0.00000,0.00000,0.00000,30,3,68,24,31,2,73,14,ok,4,0,0.000,2,-0.54,-0.65,8.64,16,0.152,8.36
1.5665,-0.00349,-0.01396,0.11694,0.00000,0.00000,0.00000,31,3,70,21,32,2,73,15,ok,4,0,0.000,2,-0.54,-0.65,8.64,16,0.165,8.36
1.5867,-0.00349,-0.01396,0.11694,0.00000,0.00000,0.00000,33,2,71,17,33,2,72,17,ok,4,0,0.000,2,-0.54,-0.65,8.64,16,0.177,8.36
1.5916,-0.00349,-0.01396,0.11694,0.00000,0.00000,0.00000,34,2,72,15,34,0,72,19,ok,4,0,0.000,2,-0.54,-0.65,8.64,16,0.190,8.36
1.6042,-0.11694,-0.09250,0.11345,0.00000,0.00000,0.00000,36,1,72,14,37,1,73,20,ok,4,0,0.000,2,-1.03,-1.64,9.09,17,0.000,8.36
1.6268,-0.11694,-0.09250,0.11345,0.00000,0.00000,0.00000,37,1,72,11,37,0,72,22,ok,4,0,0.000,2,-1.03,-1.64,9.09,17,0.012,8.36
1.6300,-0.11694,-0.09250,0.11345,0.00000,0.00000,0.00000,39,0,71,8,39,0,72,24,ok,4,0,0.000,2,-1.03,-1.64,9.09,17,0.026,8.36
1.6425,-0.11694,-0.09250,0.11345,0.00000,0.00000,0.00000,40,0,71,6,40,0,72,25,ok,4,0,0.000,2,-1.03,-1.64,9.09,17,0.039,8.36
1.6627,-0.11694,-0.09250,0.11345,0.00000,0.00000,0.00000,42,0,70,3,41,0,72,26,ok,4,0,0.000,2,-1.03,-1.64,9.09,17,0.051,8.36
1.6675,-0.11694,-0.09250,0.11345,0.00000,0.00000,0.00000,43,-1,69,1,42,0,72,28,ok,4,0,0.000,2,-1.03,-1.64,9.09,17,0.063,8.36
1.6802,-0.11694,-0.09250,0.11345,0.00000,0.00000,0.00000,44,0,68,-1,44,0,71,29,ok,4,0,0.000,2,-1.03,-1.64,9.09,17,0.076,8.36
1.7027,-0.11694,-0.09250,0.11345,0.00000,0.00000,0.00000,44,0,66,-2,45,-1,73,29,ok,4,0,0.000,2,-1.03,-1.64,9.09,17,0.089,8.36
1.7058,-0.11694,-0.09250,0.11345,0.00000,0.00000,0.00000,46,0,65,-4,46,-1,73,28,ok,4,0,0.000,2,-1.03,-1.64,9.09,17,0.102,8.36
1.7185,-0.11694,-0.09250,0.11345,0.00000,0.00000,0.00000,47,0,64,-6,48,-1,75,26,ok,4,0,0.001,2,-1.03,-1.64,9.09,17,0.114,8.36
1.7387,-0.11694,-0.09250,0.11345,0.00000,0.00000,0.00000,48,1,62,-7,49,-1,77,20,ok,4,0,0.001,2,-1.03,-1.64,9.09,17,0.127,8.36
1.7435,-0.11694,-0.09250,0.11345,0.00000,0.00000,0.00000,50,1,60,-8,49,-1,78,17,ok,4,0,0.001,2,-1.03,-1.64,9.09,17,0.139,8.36
1.7559,-0.11694,-0.09250,0.11345,0.00000,0.00000,0.00000,50,1,57,-9,51,-1,80,13,ok,4,0,0.001,2,-1.03,-1.64,9.09,17,0.152,8.36
1.7787,-0.11694,-0.09250,0.11345,0.00000,0.00000,0.00000,50,4,55,-10,52,-1,80,13,ok,4,0,0.001,2,-1.03,-1.64,9.09,17,0.164,8.36
1.7818,-0.11694,-0.09250,0.11345,0.00000,0.00000,0.00000,51,5,52,-9,53,-1,80,10,ok,4,0,0.001,2,-1.03,-1.64,9.09,17,0.178,8.36
1.7948,-0.11694,-0.09250,0.11345,0.00000,0.00000,0.00000,52,4,49,-9,54,-1,80,7,ok,4,0,0.001,2,-1.03,-1.64,9.09,17,0.191,8.36
1.8147,-0.04189,-0.02967,0.13788,0.00000,0.00000,0.00000,52,5,47,-9,55,0,79,3,ok,4,0,0.001,2,-0.80,-0.18,10.48,18,0.000,8.36
1.8195,-0.04189,-0.02967,0.13788,0.00000,0.00000,0.00000,53,6,44,-9,56,0,79,2,ok,2,0,0.001,2,-0.80,-0.18,10.48,18,0.012,8.36
1.8322,-0.04189,-0.02967,0.13788,0.00000,0.00000,0.00000,55,7,42,-9,57,1,77,-2,ok,2,0,0.001,2,-0.80,-0.18,10.48,18,0.025,8.36
1.8547,-0.04189,-0.02967,0.13788,0.00000,0.00000,0.00000,55,7,39,-8,58,0,77,-4,ok,2,0,0.001,2,-0.80,-0.18,10.48,18,0.038,8.36
1.8578,-0.04189,-0.02967,0.13788,0.00000,0.00000,0.00000,56,7,36,-7,58,0,76,-5,ok,2,0,0.001,2,-0.80,-0.18,10.48,18,0.051,8.36
1.8705,-0.04189,-0.02967,0.13788,0.00000,0.00000,0.00000,57,8,33,-6,59,1,74,-7,ok,2,0,0.001,2,-0.80,-0.18,10.48,18,0.063,8.36
1.8907,-0.04189,-0.02967,0.13788,0.00000,0.00000,0.00000,58,8,29,-5,60,1,71,-8,ok,2,0,0.001,2,-0.80,-0.18,10.48,18,0.076,8.36
1.8955,-0.04189,-0.02967,0.13788,0.00000,0.00000,0.00000,59,9,26,-3,61,1,70,-9,ok,2,0,0.001,2,-0.80,-0.18,10.48,18,0.088,8.36
1.9079,-0.04189,-0.02967,0.13788,0.00000,0.00000,0.00000,60,10,22,-2,62,0,69,-11,ok,2,0,0.001,2,-0.80,-0.18,10.48,18,0.101,8.36
1.9307,-0.04189,-0.02967,0.13788,0.00000,0.00000,0.00000,61,10,20,0,64,-2,67,-12,ok,2,0,0.001,2,-0.80,-0.18,10.48,18,0.113,8.36
1.9338,-0.04189,-0.02967,0.13788,0.00000,0.00000,0.00000,62,11,18,1,65,-1,64,-13,ok,2,0,0.001,2,-0.80,-0.18,10.48,18,0.127,8.36
1.9465,-0.04189,-0.02967,0.13788,0.00000,0.00000,0.00000,62,12,16,3,65,-1,63,-14,ok,2,0,0.001,2,-0.80,-0.18,10.48,18,0.139,8.36
1.9667,-0.04189,-0.02967,0.13788,0.00000,0.00000,0.00000,63,12,15,7,66,-1,60,-14,ok,2,0,0.001,2,-0.80,-0.18,10.48,18,0.152,8.36
1.9715,-0.04189,-0.02967,0.13788,0.00000,0.00000,0.00000,63,14,13,10,66,0,58,-15,ok,2,0,0.001,2,-0.80,-0.18,10.48,18,0.164,8.36
1.9840,-0.04189,-0.02967,0.13788,0.00000,0.00000,0.00000,64,14,11,12,67,0,55,-13,ok,2,0,0.001,2,-0.80,-0.18,10.48,18,0.177,8.36
2.0067,-0.04189,-0.02967,0.13788,0.00000,0.00000,0.00000,64,15,13,12,67,0,53,-13,ok,2,0,0.001,2,-0.80,-0.18,10.48,18,0.189,8.36
2.0101,-0.04363,-0.00698,0.13788,0.00000,0.00000,0.00000,64,16,13,12,68,0,50,-12,ok,2,0,0.001,2,-0.27,-0.55,9.77,19,0.000,8.36
2.0225,-0.04363,-0.00698,0.13788,0.00000,0.00000,0.00000,65,17,14,11,69,1,47,-11,ok,2,0,0.001,2,-0.27,-0.55,9.77,19,0.013,8.36
2.0427,-0.04363,-0.00698,0.13788,0.00000,0.00000,0.00000,65,18,15,10,69,2,45,-11,ok,2,0,0.001,2,-0.27,-0.55,9.77,19,0.025,8.36
2.0475,-0.04363,-0.00698,0.13788,0.00000,0.00000,0.00000,65,18,16,10,69,2,41,-9,ok,2,0,0.001,2,-0.27,-0.55,9.77,19,0.038,8.36
2.0600,-0.04363,-0.00698,0.13788,0.00000,0.00000,0.00000,66,18,17,9,70,3,39,-9,ok,2,0,0.001,2,-0.27,-0.55,9.77,19,0.050,8.36
2.0827,-0.04363,-0.00698,0.13788,0.00000,0.00000,0.00000,66,20,18,8,70,4,35,-7,ok,2,0,0.001,2,-0.27,-0.55,9.77,19,0.063,8.36
2.0858,-0.04363,-0.00698,0.13788,0.00000,0.00000,0.00000,67,21,20,7,71,4,34,-6,ok,2,0,0.001,2,-0.27,-0.55,9.77,19,0.076,8.36
2.0986,-0.04363,-0.00698,0.13788,0.00000,0.00000,0.00000,67,22,21,6,71,6,32,-4,ok,2,0,0.001,2,-0.27,-0.55,9.77,19,0.089,8.36
2.1187,-0.04363,-0.00698,0.13788,0.00000,0.00000,0.00000,66,23,22,6,71,7,29,-1,ok,2,0,0.001,2,-0.27,-0.55,9.77,19,0.101,8.36
2.1235,-0.04363,-0.00698,0.13788,0.00000,0.00000,0.00000,66,24,23,6,72,8,28,1,ok,2,0,0.001,2,-0.27,-0.55,9.77,19,0.114,8.36
2.1360,-0.04363,-0.00698,0.13788,0.00000,0.00000,0.00000,66,25,25,5,72,9,27,5,ok,2,0,0.001,2,-0.27,-0.55,9.77,19,0.126,8.36
2.1587,-0.04363,-0.00698,0.13788,0.00000,0.00000,0.00000,65,28,26,5,72,10,26,7,ok,2,0,0.001,2,-0.27,-0.55,9.77,19,0.139,8.36
2.1620,-0.04363,-0.00698,0.13788,0.00000,0.00000,0.00000,64,29,27,3,71,11,29,6,ok,2,0,0.001,2,-0.27,-0.55,9.77,19,0.152,8.36
2.1745,-0.04363,-0.00698,0.13788,0.00000,0.00000,0.00000,65,28,29,3,72,12,29,5,ok,2,0,0.001,2,-0.27,-0.55,9.77,19,0.165,8.36
2.1947,-0.04363,-0.00698,0.13788,0.00000,0.00000,0.00000,68,25,30,3,72,14,30,3,ok,2,0,0.001,2,-0.27,-0.55,9.77,19,0.177,8.36
2.1998,-0.04363,-0.00698,0.13788,0.00000,0.00000,0.00000,70,21,31,2,71,15,31,3,ok,2,0,0.001,2,-0.27,-0.55,9.77,19,0.190,8.36
2.2122,-0.01396,0.01745,0.23038,0.00000,0.00000,0.00000,71,17,33,2,71,17,33,3,ok,2,0,0.001,2,0.97,-0.55,10.50,20,0.000,8.36
2.2347,-0.01396,0.01745,0.23038,0.00000,0.00000,0.00000,71,15,34,2,72,18,34,2,ok,2,0,0.001,2,0.97,-0.55,10.50,20,0.013,8.36
2.2379,-0.01396,0.01745,0.23038,0.00000,0.00000,0.00000,71,14,35,1,71,20,36,1,ok,2,0,0.001,2,0.97,-0.55,10.50,20,0.026,8.36
2.2505,-0.01396,0.01745,0.23038,0.00000,0.00000,0.00000,71,11,37,1,71,22,38,1,ok,2,0,0.001,2,0.97,-0.55,10.50,20,0.039,8.36
2.2707,-0.01396,0.01745,0.23038,0.00000,0.00000,0.00000,70,8,38,2,71,23,38,1,ok,2,0,0.001,2,0.97,-0.55,10.50,20,0.051,8.36
2.2757,-0.01396,0.01745,0.23038,0.00000,0.00000,0.00000,69,5,39,2,72,25,40,1,ok,2,0,0.001,2,0.97,-0.55,10.50,20,0.063,8.36
2.2879,-0.01396,0.01745,0.23038,0.00000,0.00000,0.00000,69,1,41,1,71,27,41,1,ok,2,0,0.001,2,0.97,-0.55,10.50,20,0.076,8.36
2.3107,-0.01396,0.01745,0.23038,0.00000,0.00000,0.00000,67,-1,42,1,71,28,42,1,ok,2,0,0.001,2,0.97,-0.55,10.50,20,0.089,8.36
2.3138,-0.01396,0.01745,0.23038,0.00000,0.00000,0.00000,66,-3,44,1,71,28,43,1,ok,2,0,0.001,2,0.97,-0.55,10.50,20,0.102,8.36
2.3267,-0.01396,0.01745,0.23038,0.00000,0.00000,0.00000,64,-4,44,1,72,28,45,1,ok,2,0,0.001,2,0.97,-0.55,10.50,20,0.115,8.36
2.3467,-0.01396,0.01745,0.23038,0.00000,0.00000,0.00000,63,-6,45,2,74,26,46,0,ok,2,0,0.001,2,0.97,-0.55,10.50,20,0.127,8.36
2.3515,-0.01396,0.01745,0.23038,0.00000,0.00000,0.00000,62,-8,47,2,76,21,47,0,ok,2,0,0.001,2,0.97,-0.55,10.50,20,0.140,8.36
2.3640,-0.01396,0.01745,0.23038,0.00000,0.00000,0.00000,60,-9,48,3,77,16,48,0,ok,2,0,0.001,2,0.97,-0.55,10.50,20,0.152,8.36
2.3907,-0.01396,0.01745,0.23038,0.00000,0.00000,0.00000,58,-10,49,3,79,14,49,0,ok,2,0,0.001,2,0.97,-0.55,10.50,20,0.165,8.36
2.3938,-0.01396,0.01745,0.23038,0.00000,0.00000,0.00000,55,-11,50,3,79,13,49,0,ok,2,0,0.001,2,0.97,-0.55,10.50,20,0.182,8.36
2.4068,0.07505,0.03840,0.23213,0.00000,0.00000,0.00000,53,-12,50,5,79,11,51,0,ok,2,0,0.001,2,0.15,0.88,11.61,21,0.000,8.36
2.4267,0.07505,0.03840,0.23213,0.00000,0.00000,0.00000,50,-12,52,5,79,8,52,0,ok,2,0,0.001,2,0.15,0.88,11.61,21,0.013,8.36
2.4315,0.07505,0.03840,0.23213,0.00000,0.00000,0.00000,47,-12,53,5,78,5,53,0,ok,2,0,0.001,2,0.15,0.88,11.61,21,0.025,8.36
2.4441,0.07505,0.03840,0.23213,0.00000,0.00000,0.00000,45,-11,54,6,77,2,54,0,ok,2,0,0.001,2,0.15,0.88,11.61,21,0.038,8.36
2.4667,0.07505,0.03840,0.23213,0.00000,0.00000,0.00000,43,-11,54,7,77,-1,54,0,ok,2,0,0.001,2,0.15,0.88,11.61,21,0.050,8.36
2.4698,0.07505,0.03840,0.23213,0.00000,0.00000,0.00000,40,-11,56,7,76,-3,55,-1,ok,2,0,0.001,2,0.15,0.88,11.61,21,0.063,8.36
2.4827,0.07505,0.03840,0.23213,0.00000,0.00000,0.00000,38,-10,56,7,75,-4,56,0,ok,2,0,0.001,2,0.15,0.88,11.61,21,0.076,8.36
2.5027,0.07505,0.03840,0.23213,0.00000,0.00000,0.00000,35,-9,57,7,74,-8,56,-1,ok,2,0,0.001,2,0.15,0.88,11.61,21,0.089,8.36
2.5075,0.07505,0.03840,0.23213,0.00000,0.00000,0.00000,32,-8,57,8,71,-7,57,0,ok,2,0,0.001,2,0.15,0.88,11.61,21,0.101,8.36
2.5200,0.07505,0.03840,0.23213,0.00000,0.00000,0.00000,29,-6,58,8,70,-9,58,0,ok,2,0,0.001,2,0.15,0.88,11.61,21,0.114,8.36
2.5427,0.07505,0.03840,0.23213,0.00000,0.00000,0.00000,26,-4,59,9,68,-11,59,0,ok,2,0,0.001,2,0.15,0.88,11.61,21,0.126,8.36
2.5458,0.07505,0.03840,0.23213,0.00000,0.00000,0.00000,22,-2,60,10,66,-12,60,0,ok,2,0,0.001,3,0.15,0.88,11.61,21,0.139,8.36
2.5585,0.07505,0.03840,0.23213,0.00000,0.00000,0.00000,20,-1,61,11,64,-13,61,0,ok,2,0,0.001,3,0.15,0.88,11.61,21,0.152,8.36
2.5787,0.07505,0.03840,0.23213,0.00000,0.00000,0.00000,19,0,62,11,62,-13,63,-3,ok,2,0,0.001,3,0.15,0.88,11.61,21,0.165,8.36
2.5835,0.07505,0.03840,0.23213,0.00000,0.00000,0.00000,17,3,62,12,59,-14,63,-2,ok,2,0,0.001,3,0.15,0.88,11.61,21,0.177,8.36
2.5960,0.07505,0.03840,0.23213,0.00000,0.00000,0.00000,14,6,63,13,58,-14,64,-2,ok,2,0,0.001,3,0.15,0.88,11.61,21,0.190,8.36
2.6187,0.05411,-0.02618,0.27053,0.00000,0.00000,0.00000,13,10,63,14,55,-14,65,-1,ok,2,0,0.001,3,-0.54,0.68,9.60,22,0.000,8.36
2.6218,0.05411,-0.02618,0.27053,0.00000,0.00000,0.00000,11,12,64,15,52,-13,66,-1,ok,2,0,0.001,3,-0.54,0.68,9.60,22,0.013,8.36
2.6346,0.05411,-0.02618,0.27053,0.00000,0.00000,0.00000,13,13,64,16,50,-13,67,0,ok,2,0,0.001,3,-0.54,0.68,9.60,22,0.026,8.36
2.6547,0.05411,-0.02618,0.27053,0.00000,0.00000,0.00000,13,13,64,17,47,-12,67,-1,ok,2,0,0.001,3,-0.54,0.68,9.60,22,0.038,8.36
2.6596,0.05411,-0.02618,0.27053,0.00000,0.00000,0.00000,14,12,65,17,44,-12,68,0,ok,2,0,0.001,3,-0.54,0.68,9.60,22,0.051,8.36
2.6720,0.05411,-0.02618,0.27053,0.00000,0.00000,0.00000,15,11,65,18,41,-10,69,0,ok,2,0,0.001,3,-0.54,0.68,9.60,22,0.063,8.36
2.6947,0.05411,-0.02618,0.27053,0.00000,0.00000,0.00000,16,11,65,19,38,-10,69,2,ok,2,0,0.001,3,-0.54,0.68,9.60,22,0.076,8.36
2.6978,0.05411,-0.02618,0.27053,0.00000,0.00000,0.00000,18,10,66,19,35,-8,70,2,ok,2,0,0.001,3,-0.54,0.68,9.60,22,0.089,8.36
2.7105,0.05411,-0.02618,0.27053,0.00000,0.00000,0.00000,18,10,66,20,33,-7,71,3,ok,2,0,0.001,3,-0.54,0.68,9.60,22,0.102,8.36
2.7307,0.05411,-0.02618,0.27053,0.00000,0.00000,0.00000,21,8,66,21,31,-5,71,4,ok,0,0,0.001,3,-0.54,0.68,9.60,22,0.114,8.36
2.7356,0.05411,-0.02618,0.27053,0.00000,0.00000,0.00000,22,8,66,22,29,-2,72,5,ok,0,0,0.001,3,-0.54,0.68,9.60,22,0.127,8.36
2.7480,0.05411,-0.02618,0.27053,0.00000,0.00000,0.00000,23,7,66,23,28,0,72,6,ok,0,0,0.001,3,-0.54,0.68,9.60,22,0.139,8.36
2.7707,0.05411,-0.02618,0.27053,0.00000,0.00000,0.00000,24,6,66,24,27,4,71,7,ok,0,0,0.001,3,-0.54,0.68,9.60,22,0.152,8.36
2.7738,0.05411,-0.02618,0.27053,0.00000,0.00000,0.00000,26,6,65,25,26,6,72,8,ok,0,0,0.001,3,-0.54,0.68,9.60,22,0.165,8.36
2.7865,0.05411,-0.02618,0.27053,0.00000,0.00000,0.00000,27,5,64,28,28,5,72,9,ok,0,0,0.001,3,-0.54,0.68,9.60,22,0.178,8.36
2.8067,0.05411,-0.02618,0.27053,0.00000,0.00000,0.00000,28,4,64,29,28,5,72,11,ok,0,0,0.001,3,-0.54,0.68,9.60,22,0.190,8.36
2.8118,0.02967,0.00524,0.25307,0.00000,0.00000,0.00000,29,4,65,27,30,3,72,12,ok,0,0,0.001,3,0.58,0.74,10.42,23,0.000,8.36
2.8239,0.02967,0.00524,0.25307,0.00000,0.00000,0.00000,30,3,68,25,31,2,73,14,ok,0,0,0.001,3,0.58,0.74,10.42,23,0.013,8.36
2.8507,0.02967,0.00524,0.25307,0.00000,0.00000,0.00000,32,3,70,21,32,2,73,15,ok,0,0,0.001,3,0.58,0.74,10.42,23,0.025,8.36
2.8539,0.02967,0.00524,0.25307,0.00000,0.00000,0.00000,33,2,71,17,33,2,72,17,ok,0,0,0.001,3,0.58,0.74,10.42,23,0.042,8.36
2.8665,0.02967,0.00524,0.25307,0.00000,0.00000,0.00000,34,2,71,15,34,1,72,19,ok,0,0,0.001,3,0.58,0.74,10.42,23,0.055,8.36
2.8867,0.02967,0.00524,0.25307,0.00000,0.00000,0.00000,36,1,71,14,37,1,73,20,ok,0,0,0.001,3,0.58,0.74,10.42,23,0.068,8.36
2.8915,0.02967,0.00524,0.25307,0.00000,0.00000,0.00000,37,1,71,11,37,1,72,22,ok,0,0,0.001,3,0.58,0.74,10.42,23,0.080,8.36
2.9040,0.02967,0.00524,0.25307,0.00000,0.00000,0.00000,39,1,71,8,39,2,72,23,ok,0,0,0.001,3,0.58,0.74,10.42,23,0.093,8.36
2.9267,0.02967,0.00524,0.25307,0.00000,0.00000,0.00000,40,1,70,5,40,1,73,24,ok,0,0,0.001,3,0.58,0.74,10.42,23,0.105,8.36
2.9300,0.02967,0.00524,0.25307,0.00000,0.00000,0.00000,42,0,70,3,41,1,72,26,ok,0,0,0.001,3,0.58,0.74,10.42,23,0.118,8.36
2.9425,0.02967,0.00524,0.25307,0.00000,0.00000,0.00000,43,0,69,1,42,1,72,27,ok,0,0,0.001,3,0.58,0.74,10.42,23,0.131,8.36
2.9628,0.02967,0.00524,0.25307,0.00000,0.00000,0.00000,45,0,68,-1,44,1,72,29,ok,0,0,0.001,3,0.58,0.74,10.42,23,0.144,8.36
2.9675,0.02967,0.00524,0.25307,0.00000,0.00000,0.00000,45,0,65,-2,45,0,73,29,ok,0,0,0.001,3,0.58,0.74,10.42,23,0.156,8.36
2.9800,0.02967,0.00524,0.25307,0.00000,0.00000,0.00000,46,1,64,-4,46,0,74,28,ok,0,0,0.001,3,0.58,0.74,10.42,23,0.169,8.36
3.0027,0.02967,0.00524,0.25307,0.00000,0.00000,0.00000,48,1,64,-6,48,0,76,26,ok,0,0,0.001,3,0.58,0.74,10.42,23,0.181,8.36
3.0061,-0.09599,-0.00175,0.28972,0.00000,0.00000,0.00000,49,2,61,-7,48,0,78,20,ok,0,0,0.001,3,-0.95,-0.61,9.13,24,0.000,8.36
3.0186,-0.09599,-0.00175,0.28972,0.00000,0.00000,0.00000,50,1,59,-8,49,0,79,17,ok,2,0,0.001,3,-0.95,-0.61,9.13,24,0.013,8.36
3.0387,-0.09599,-0.00175,0.28972,0.00000,0.00000,0.00000,51,1,56,-8,50,0,80,14,ok,2,0,0.001,3,-0.95,-0.61,9.13,24,0.025,8.36
3.0436,-0.09599,-0.00175,0.28972,0.00000,0.00000,0.00000,51,3,54,-9,52,0,81,14,ok,2,0,0.001,3,-0.95,-0.61,9.13,24,0.038,8.36
3.0562,-0.09599,-0.00175,0.28972,0.00000,0.00000,0.00000,52,4,51,-9,53,0,81,11,ok,2,0,0.001,3,-0.95,-0.61,9.13,24,0.050,8.36
3.0787,-0.09599,-0.00175,0.28972,0.00000,0.00000,0.00000,53,4,49,-9,54,0,81,7,ok,2,0,0.001,3,-0.95,-0.61,9.13,24,0.063,8.36
3.0818,-0.09599,-0.00175,0.28972,0.00000,0.00000,0.00000,53,5,46,-9,55,1,80,4,ok,2,0,0.001,3,-0.95,-0.61,9.13,24,0.076,8.36
3.0945,-0.09599,-0.00175,0.28972,0.00000,0.00000,0.00000,53,6,43,-9,56,0,79,2,ok,2,0,0.001,3,-0.95,-0.61,9.13,24,0.089,8.36
3.1147,-0.09599,-0.00175,0.28972,0.00000,0.00000,0.00000,55,6,41,-9,57,1,78,-2,ok,2,0,0.001,3,-0.95,-0.61,9.13,24,0.101,8.36
3.1197,-0.09599,-0.00175,0.28972,0.00000,0.00000,0.00000,56,6,39,-8,58,0,78,-3,ok,2,0,0.001,3,-0.95,-0.61,9.13,24,0.114,8.36
3.1320,-0.09599,-0.00175,0.28972,0.00000,0.00000,0.00000,57,7,36,-7,58,1,76,-5,ok,2,0,0.001,3,-0.95,-0.61,9.13,24,0.126,8.36
3.1547,-0.09599,-0.00175,0.28972,0.00000,0.00000,0.00000,57,8,33,-6,59,1,74,-7,ok,2,0,0.001,3,-0.95,-0.61,9.13,24,0.139,8.36
3.1578,-0.09599,-0.00175,0.28972,0.00000,0.00000,0.00000,58,8,29,-5,60,1,72,-7,ok,2,0,0.001,3,-0.95,-0.61,9.13,24,0.152,8.36
3.1706,-0.09599,-0.00175,0.28972,0.00000,0.00000,0.00000,59,9,26,-3,61,1,70,-9,ok,2,0,0.001,3,-0.95,-0.61,9.13,24,0.165,8.36
3.1907,-0.09599,-0.00175,0.28972,0.00000,0.00000,0.00000,61,10,22,-1,62,0,69,-11,ok,2,0,0.001,3,-0.95,-0.61,9.13,24,0.177,8.36
3.1956,-0.09599,-0.00175,0.28972,0.00000,0.00000,0.00000,61,10,20,0,64,-2,67,-12,ok,2,0,0.001,3,-0.95,-0.61,9.13,24,0.190,8.36
3.2082,-0.09599,-0.00175,0.28972,0.00000,0.00000,0.00000,62,11,18,1,64,-1,65,-13,ok,2,0,0.001,3,-0.95,-0.61,9.13,24,0.202,8.36
3.2307,-0.08552,-0.03316,0.35081,0.00000,0.00000,0.00000,62,12,16,3,65,0,63,-14,ok,2,0,0.001,3,-0.68,-0.28,9.87,25,0.000,8.36
3.2338,-0.08552,-0.03316,0.35081,0.00000,0.00000,0.00000,63,12,14,7,66,0,60,-14,ok,2,0,0.001,3,-0.68,-0.28,9.87,25,0.013,8.36
3.2466,-0.08552,-0.03316,0.35081,0.00000,0.00000,0.00000,63,13,13,10,66,0,58,-15,ok,2,0,0.001,3,-0.68,-0.28,9.87,25,0.026,8.36
3.2667,-0.08552,-0.03316,0.35081,0.00000,0.00000,0.00000,64,14,11,12,67,0,55,-13,ok,2,0,0.001,3,-0.68,-0.28,9.87,25,0.038,8.36
3.2717,-0.08552,-0.03316,0.35081,0.00000,0.00000,0.00000,64,15,13,13,67,0,53,-13,ok,2,0,0.001,3,-0.68,-0.28,9.87,25,0.051,8.36
3.2840,-0.08552,-0.03316,0.35081,0.00000,0.00000,0.00000,64,16,13,12,68,1,50,-12,ok,2,0,0.001,3,-0.68,-0.28,9.87,25,0.063,8.36
3.3067,-0.08552,-0.03316,0.35081,0.00000,0.00000,0.00000,65,17,14,11,69,1,47,-11,ok,2,0,0.001,3,-0.68,-0.28,9.87,25,0.076,8.36
3.3098,-0.08552,-0.03316,0.35081,0.00000,0.00000,0.00000,65,18,15,11,69,2,45,-11,ok,2,0,0.001,3,-0.68,-0.28,9.87,25,0.089,8.36
3.3225,-0.08552,-0.03316,0.35081,0.00000,0.00000,0.00000,66,18,16,10,69,2,41,-9,ok,2,0,0.001,3,-0.68,-0.28,9.87,25,0.102,8.36
3.3427,-0.08552,-0.03316,0.35081,0.00000,0.00000,0.00000,66,18,17,9,70,3,39,-9,ok,2,0,0.001,3,-0.68,-0.28,9.87,25,0.114,8.36
3.3475,-0.08552,-0.03316,0.35081,0.00000,0.00000,0.00000,66,20,18,9,70,4,35,-7,ok,2,0,0.001,3,-0.68,-0.28,9.87,25,0.127,8.36
3.3600,-0.08552,-0.03316,0.35081,0.00000,0.00000,0.00000,67,21,20,8,71,4,34,-6,ok,2,0,0.001,3,-0.68,-0.28,9.87,25,0.139,8.36
3.3827,-0.08552,-0.03316,0.35081,0.00000,0.00000,0.00000,67,22,21,7,71,6,32,-4,ok,2,0,0.001,3,-0.68,-0.28,9.87,25,0.152,8.36
3.3860,-0.08552,-0.03316,0.35081,0.00000,0.00000,0.00000,67,23,22,6,71,7,30,-1,ok,2,0,0.001,3,-0.68,-0.28,9.87,25,0.165,8.36
3.3985,-0.08552,-0.03316,0.35081,0.00000,0.00000,0.00000,67,24,24,6,71,7,28,1,ok,2,0,0.001,3,-0.68,-0.28,9.87,25,0.178,8.36
3.4187,-0.08552,-0.03316,0.35081,0.00000,0.00000,0.00000,66,25,25,5,71,8,27,5,ok,2,0,0.001,3,-0.68,-0.28,9.87,25,0.190,8.36
3.4238,0.05585,-0.06458,0.37176,0.00000,0.00000,0.00000,65,28,26,5,71,10,26,7,ok,2,0,0.001,3,-0.01,0.32,9.35,26,0.000,8.36
3.4360,0.05585,-0.06458,0.37176,0.00000,0.00000,0.00000,64,29,27,4,71,12,29,6,ok,2,0,0.001,3,-0.01,0.32,9.35,26,0.013,8.36
3.4587,0.05585,-0.06458,0.37176,0.00000,0.00000,0.00000,66,28,29,3,71,13,29,5,ok,2,0,0.001,3,-0.01,0.32,9.35,26,0.025,8.36
3.4618,0.05585,-0.06458,0.37176,0.00000,0.00000,0.00000,68,25,30,3,72,14,30,3,ok,2,0,0.001,3,-0.01,0.32,9.35,26,0.038,8.36
3.4745,0.05585,-0.06458,0.37176,0.00000,0.00000,0.00000,70,21,31,2,71,15,31,2,ok,2,0,0.001,3,-0.01,0.32,9.35,26,0.051,8.36
3.4947,0.05585,-0.06458,0.37176,0.00000,0.00000,0.00000,71,17,33,2,71,17,33,2,ok,2,0,0.001,3,-0.01,0.32,9.35,26,0.064,8.36
3.4995,0.05585,-0.06458,0.37176,0.00000,0.00000,0.00000,71,15,34,2,72,18,34,1,ok,2,0,0.001,3,-0.01,0.32,9.35,26,0.076,8.36
3.5119,0.05585,-0.06458,0.37176,0.00000,0.00000,0.00000,71,14,35,1,71,20,36,1,ok,2,0,0.001,3,-0.01,0.32,9.35,26,0.089,8.36
3.5347,0.05585,-0.06458,0.37176,0.00000,0.00000,0.00000,71,11,37,1,71,21,38,1,ok,2,0,0.001,3,-0.01,0.32,9.35,26,0.101,8.36
3.5378,0.05585,-0.06458,0.37176,0.00000,0.00000,0.00000,71,8,38,2,71,23,39,1,ok,2,0,0.001,3,-0.01,0.32,9.35,26,0.114,8.36
3.5505,0.05585,-0.06458,0.37176,0.00000,0.00000,0.00000,70,5,39,2,71,25,40,1,ok,2,0,0.001,3,-0.01,0.32,9.35,26,0.127,8.36
3.5707,0.05585,-0.06458,0.37176,0.00000,0.00000,0.00000,69,1,41,2,70,27,42,1,ok,2,0,0.001,4,-0.01,0.32,9.35,26,0.140,8.36
3.5758,0.05585,-0.06458,0.37176,0.00000,0.00000,0.00000,68,-1,42,1,70,28,43,1,ok,2,0,0.001,4,-0.01,0.32,9.35,26,0.152,8.36
3.5880,0.05585,-0.06458,0.37176,0.00000,0.00000,0.00000,67,-3,44,2,70,28,44,0,ok,2,0,0.001,4,-0.01,0.32,9.35,26,0.165,8.36
3.6107,0.05585,-0.06458,0.37176,0.00000,0.00000,0.00000,64,-4,44,2,72,28,45,0,ok,2,0,0.001,4,-0.01,0.32,9.35,26,0.177,8.36
3.6139,0.05585,-0.06458,0.37176,0.00000,0.00000,0.00000,63,-6,46,2,73,25,46,0,ok,2,0,0.001,4,-0.01,0.32,9.35,26,0.190,8.36
3.6268,0.01745,0.01571,0.42062,0.00000,0.00000,0.00000,63,-8,47,2,75,21,47,0,ok,2,0,0.001,4,0.23,0.22,10.56,27,0.000,8.36
3.6467,0.01745,0.01571,0.42062,0.00000,0.00000,0.00000,60,-9,48,3,77,16,49,0,ok,2,0,0.001,4,0.23,0.22,10.56,27,0.012,8.36
3.6515,0.01745,0.01571,0.42062,0.00000,0.00000,0.00000,58,-10,49,3,78,14,49,0,ok,2,0,0.001,4,0.23,0.22,10.56,27,0.025,8.36
3.6639,0.01745,0.01571,0.42062,0.00000,0.00000,0.00000,56,-11,50,3,78,13,50,0,ok,2,0,0.001,4,0.23,0.22,10.56,27,0.037,8.36
3.6867,0.01745,0.01571,0.42062,0.00000,0.00000,0.00000,53,-12,50,5,78,11,51,0,ok,2,0,0.001,4,0.23,0.22,10.56,27,0.050,8.36
3.6898,0.01745,0.01571,0.42062,0.00000,0.00000,0.00000,51,-11,52,6,78,7,52,0,ok,2,0,0.001,4,0.23,0.22,10.56,27,0.063,8.36
3.7025,0.01745,0.01571,0.42062,0.00000,0.00000,0.00000,48,-11,52,5,78,4,53,0,ok,2,0,0.001,4,0.23,0.22,10.56,27,0.076,8.36
3.7227,0.01745,0.01571,0.42062,0.00000,0.00000,0.00000,46,-11,53,6,77,2,54,0,ok,2,0,0.001,4,0.23,0.22,10.56,27,0.088,8.36
3.7275,0.01745,0.01571,0.42062,0.00000,0.00000,0.00000,43,-11,54,7,76,-1,54,1,ok,2,0,0.001,4,0.23,0.22,10.56,27,0.101,8.36
3.7401,0.01745,0.01571,0.42062,0.00000,0.00000,0.00000,41,-11,56,7,76,-3,55,-1,ok,2,0,0.001,4,0.23,0.22,10.56,27,0.113,8.36
3.7627,0.01745,0.01571,0.42062,0.00000,0.00000,0.00000,39,-10,56,7,75,-5,56,0,ok,2,0,0.001,4,0.23,0.22,10.56,27,0.126,8.36
3.7658,0.01745,0.01571,0.42062,0.00000,0.00000,0.00000,35,-9,57,8,73,-8,57,-1,ok,2,0,0.001,4,0.23,0.22,10.56,27,0.139,8.36
3.7787,0.01745,0.01571,0.42062,0.00000,0.00000,0.00000,33,-8,57,8,71,-7,57,0,ok,2,0,0.001,4,0.23,0.22,10.56,27,0.152,8.36
3.7987,0.01745,0.01571,0.42062,0.00000,0.00000,0.00000,29,-6,58,8,69,-10,58,0,ok,2,0,0.001,4,0.23,0.22,10.56,27,0.165,8.36
3.8036,0.01745,0.01571,0.42062,0.00000,0.00000,0.00000,27,-4,59,9,68,-11,59,0,ok,2,0,0.001,4,0.23,0.22,10.56,27,0.177,8.36
3.8160,0.01745,0.01571,0.42062,0.00000,0.00000,0.00000,22,-2,60,11,66,-12,60,0,ok,2,0,0.001,4,0.23,0.22,10.56,27,0.190,8.36
3.8387,0.06807,-0.01396,0.46251,0.00000,0.00000,0.00000,21,-1,61,11,64,-13,61,0,ok,2,0,0.001,4,0.73,0.61,10.04,28,0.000,8.36
3.8418,0.06807,-0.01396,0.46251,0.00000,0.00000,0.00000,19,0,62,11,62,-13,63,-3,ok,2,0,0.001,4,0.73,0.61,10.04,28,0.013,8.36
3.8545,0.06807,-0.01396,0.46251,0.00000,0.00000,0.00000,17,3,62,12,59,-14,63,-2,ok,2,0,0.001,4,0.73,0.61,10.04,28,0.026,8.36
3.8747,0.06807,-0.01396,0.46251,0.00000,0.00000,0.00000,15,6,63,13,57,-14,64,-2,ok,2,0,0.001,4,0.73,0.61,10.04,28,0.039,8.36
3.8795,0.06807,-0.01396,0.46251,0.00000,0.00000,0.00000,13,10,63,14,55,-14,65,-1,ok,2,0,0.001,4,0.73,0.61,10.04,28,0.051,8.36
3.8920,0.06807,-0.01396,0.46251,0.00000,0.00000,0.00000,11,12,64,15,52,-13,66,-1,ok,2,0,0.001,4,0.73,0.61,10.04,28,0.064,8.36
3.9147,0.06807,-0.01396,0.46251,0.00000,0.00000,0.00000,13,13,64,16,50,-13,66,0,ok,2,0,0.001,4,0.73,0.61,10.04,28,0.076,8.36
3.9178,0.06807,-0.01396,0.46251,0.00000,0.00000,0.00000,13,13,64,17,46,-12,67,-1,ok,2,0,0.001,4,0.73,0.61,10.04,28,0.089,8.36
3.9307,0.06807,-0.01396,0.46251,0.00000,0.00000,0.00000,14,12,65,17,44,-12,68,0,ok,2,0,0.001,4,0.73,0.61,10.04,28,0.102,8.36
3.9507,0.06807,-0.01396,0.46251,0.00000,0.00000,0.00000,16,12,65,18,41,-10,69,0,ok,0,0,0.001,4,0.73,0.61,10.04,28,0.114,8.36
3.9555,0.06807,-0.01396,0.46251,0.00000,0.00000,0.00000,16,11,65,19,38,-10,69,2,ok,0,0,0.001,4,0.73,0.61,10.04,28,0.127,8.36
3.9679,0.06807,-0.01396,0.46251,0.00000,0.00000,0.00000,18,10,65,19,35,-8,70,2,ok,0,0,0.001,4,0.73,0.61,10.04,28,0.139,8.36
3.9907,0.06807,-0.01396,0.46251,0.00000,0.00000,0.00000,19,10,66,21,33,-7,71,3,ok,0,0,0.001,4,0.73,0.61,10.04,28,0.152,8.36
3.9938,0.06807,-0.01396,0.46251,0.00000,0.00000,0.00000,21,8,66,21,31,-5,71,4,ok,0,0,0.001,4,0.73,0.61,10.04,28,0.165,8.36
4.0065,0.06807,-0.01396,0.46251,0.00000,0.00000,0.00000,22,7,66,22,29,-2,72,5,ok,0,0,0.001,4,0.73,0.61,10.04,28,0.178,8.36
4.0267,0.06807,-0.01396,0.46251,0.00000,0.00000,0.00000,24,7,65,23,28,0,72,6,ok,0,0,0.001,4,0.73,0.61,10.04,28,0.190,8.36
4.0318,0.06632,0.04363,0.46600,0.00000,0.00000,0.00000,25,6,65,24,27,4,72,7,ok,0,0,0.001,4,0.70,0.67,8.95,29,0.000,8.36
4.0439,0.06632,0.04363,0.46600,0.00000,0.00000,0.00000,26,6,65,25,26,6,72,8,ok,0,0,0.001,4,0.70,0.67,8.95,29,0.013,8.36
4.0667,0.06632,0.04363,0.46600,0.00000,0.00000,0.00000,27,5,64,28,28,6,72,9,ok,0,0,0.001,4,0.70,0.67,8.95,29,0.025,8.36
4.0698,0.06632,0.04363,0.46600,0.00000,0.00000,0.00000,29,5,63,29,28,6,73,11,ok,0,0,0.001,4,0.70,0.67,8.95,29,0.038,8.36
4.0825,0.06632,0.04363,0.46600,0.00000,0.00000,0.00000,30,4,65,27,29,3,73,12,ok,0,0,0.001,4,0.70,0.67,8.95,29,0.051,8.36
4.1027,0.06632,0.04363,0.46600,0.00000,0.00000,0.00000,31,3,67,24,30,3,73,14,ok,0,0,0.001,4,0.70,0.67,8.95,29,0.063,8.36
4.1076,0.06632,0.04363,0.46600,0.00000,0.00000,0.00000,32,3,70,21,32,3,73,15,ok,0,0,0.001,4,0.70,0.67,8.95,29,0.076,8.36
4.1200,0.06632,0.04363,0.46600,0.00000,0.00000,0.00000,34,2,71,17,33,2,73,17,ok,0,0,0.001,4,0.70,0.67,8.95,29,0.088,8.36
4.1427,0.06632,0.04363,0.46600,0.00000,0.00000,0.00000,35,2,71,15,34,1,73,19,ok,0,0,0.001,4,0.70,0.67,8.95,29,0.101,8.36
4.1458,0.06632,0.04363,0.46600,0.00000,0.00000,0.00000,37,1,71,14,37,2,74,20,ok,0,0,0.001,4,0.70,0.67,8.95,29,0.114,8.36
4.1587,0.06632,0.04363,0.46600,0.00000,0.00000,0.00000,38,1,71,11,37,2,73,22,ok,0,0,0.001,4,0.70,0.67,8.95,29,0.127,8.36
4.1787,0.06632,0.04363,0.46600,0.00000,0.00000,0.00000,40,1,71,8,39,2,72,23,ok,0,0,0.001,4,0.70,0.67,8.95,29,0.139,8.36
4.1835,0.06632,0.04363,0.46600,0.00000,0.00000,0.00000,41,1,70,5,40,1,73,24,ok,0,0,0.001,4,0.70,0.67,8.95,29,0.152,8.36
4.1959,0.06632,0.04363,0.46600,0.00000,0.00000,0.00000,42,0,70,3,41,2,73,26,ok,0,0,0.001,4,0.70,0.67,8.95,29,0.164,8.36
4.2187,0.06632,0.04363,0.46600,0.00000,0.00000,0.00000,43,0,68,1,42,1,72,28,ok,0,0,0.001,4,0.70,0.67,8.95,29,0.177,8.36
4.2221,0.06632,0.04363,0.46600,0.00000,0.00000,0.00000,45,0,67,-1,44,1,72,29,ok,0,0,0.001,4,0.70,0.67,8.95,29,0.190,8.36
4.2349,-0.02094,-0.03316,0.40666,0.00000,0.00000,0.00000,45,0,65,-2,45,0,73,29,ok,0,0,0.001,4,-0.68,-0.72,11.16,30,0.000,8.36
4.2547,-0.02094,-0.03316,0.40666,0.00000,0.00000,0.00000,47,0,64,-4,46,0,74,28,ok,0,0,0.001,4,-0.68,-0.72,11.16,30,0.013,8.36
4.2595,-0.02094,-0.03316,0.40666,0.00000,0.00000,0.00000,48,0,63,-6,47,0,76,26,ok,0,0,0.001,4,-0.68,-0.72,11.16,30,0.025,8.36
4.2720,-0.02094,-0.03316,0.40666,0.00000,0.00000,0.00000,49,1,61,-7,48,0,78,21,ok,0,0,0.001,4,-0.68,-0.72,11.16,30,0.038,8.36
4.2947,-0.02094,-0.03316,0.40666,0.00000,0.00000,0.00000,51,1,59,-8,49,0,79,17,ok,0,0,0.001,4,-0.68,-0.72,11.16,30,0.050,8.36
4.2978,-0.02094,-0.03316,0.40666,0.00000,0.00000,0.00000,51,1,57,-8,50,0,81,14,ok,0,0,0.001,4,-0.68,-0.72,11.16,30,0.063,8.36
4.3105,-0.02094,-0.03316,0.40666,0.00000,0.00000,0.00000,51,3,54,-9,51,0,81,13,ok,2,0,0.001,4,-0.68,-0.72,11.16,30,0.076,8.36
4.3307,-0.02094,-0.03316,0.40666,0.00000,0.00000,0.00000,52,4,51,-9,52,0,81,10,ok,2,0,0.001,4,-0.68,-0.72,11.16,30,0.088,8.36
4.3355,-0.02094,-0.03316,0.40666,0.00000,0.00000,0.00000,53,4,49,-9,54,0,81,7,ok,2,0,0.001,4,-0.68,-0.72,11.16,30,0.101,8.36
4.3481,-0.02094,-0.03316,0.40666,0.00000,0.00000,0.00000,53,5,46,-9,55,1,80,4,ok,2,0,0.001,4,-0.68,-0.72,11.16,30,0.113,8.36
4.3707,-0.02094,-0.03316,0.40666,0.00000,0.00000,0.00000,54,6,44,-9,55,1,80,2,ok,2,0,0.001,4,-0.68,-0.72,11.16,30,0.126,8.36
4.3738,-0.02094,-0.03316,0.40666,0.00000,0.00000,0.00000,56,6,41,-9,57,1,78,-2,ok,2,0,0.001,4,-0.68,-0.72,11.16,30,0.139,8.36
4.3865,-0.02094,-0.03316,0.40666,0.00000,0.00000,0.00000,56,6,39,-8,58,0,78,-3,ok,2,0,0.001,4,-0.68,-0.72,11.16,30,0.152,8.36
4.4067,-0.02094,-0.03316,0.40666,0.00000,0.00000,0.00000,57,7,36,-7,58,1,77,-5,ok,2,0,0.001,4,-0.68,-0.72,11.16,30,0.165,8.36
4.4117,-0.02094,-0.03316,0.40666,0.00000,0.00000,0.00000,58,8,33,-6,59,1,75,-7,ok,2,0,0.001,4,-0.68,-0.72,11.16,30,0.177,8.36
4.4240,-0.02094,-0.03316,0.40666,0.00000,0.00000,0.00000,59,8,29,-5,60,1,72,-7,ok,2,0,0.001,4,-0.68,-0.72,11.16,30,0.190,8.36
4.4467,-0.17453,-0.03142,0.61436,0.00000,0.00000,0.00000,59,9,26,-3,61,1,71,-9,ok,2,0,0.001,4,-0.68,-1.58,9.22,31,0.000,8.36
4.4498,-0.17453,-0.03142,0.61436,0.00000,0.00000,0.00000,61,10,22,-1,62,0,69,-11,ok,2,0,0.001,4,-0.68,-1.58,9.22,31,0.013,8.36
4.4624,-0.17453,-0.03142,0.61436,0.00000,0.00000,0.00000,62,10,20,0,64,-2,67,-12,ok,2,0,0.001,4,-0.68,-1.58,9.22,31,0.026,8.36
4.4827,-0.17453,-0.03142,0.61436,0.00000,0.00000,0.00000,63,11,18,1,64,-1,65,-13,ok,2,0,0.001,4,-0.68,-1.58,9.22,31,0.038,8.36
4.4875,-0.17453,-0.03142,0.61436,0.00000,0.00000,0.00000,63,11,16,4,65,0,63,-13,ok,2,0,0.001,4,-0.68,-1.58,9.22,31,0.051,8.36
4.5001,-0.17453,-0.03142,0.61436,0.00000,0.00000,0.00000,64,12,14,7,65,-1,60,-14,ok,2,0,0.001,4,-0.68,-1.58,9.22,31,0.063,8.36
4.5227,-0.17453,-0.03142,0.61436,0.00000,0.00000,0.00000,64,13,13,10,66,0,59,-14,ok,2,0,0.001,4,-0.68,-1.58,9.22,31,0.076,8.36
4.5258,-0.17453,-0.03142,0.61436,0.00000,0.00000,0.00000,64,14,11,13,67,0,56,-13,ok,2,0,0.001,4,-0.68,-1.58,9.22,31,0.089,8.36
4.5385,-0.17453,-0.03142,0.61436,0.00000,0.00000,0.00000,64,15,13,13,67,0,53,-12,ok,2,0,0.001,4,-0.68,-1.58,9.22,31,0.102,8.36
4.5587,-0.17453,-0.03142,0.61436,0.00000,0.00000,0.00000,65,16,13,13,68,0,50,-12,ok,2,0,0.001,4,-0.68,-1.58,9.22,31,0.114,8.36
4.5635,-0.17453,-0.03142,0.61436,0.00000,0.00000,0.00000,65,16,14,12,68,1,47,-11,ok,2,0,0.001,4,-0.68,-1.58,9.22,31,0.127,8.36
4.5759,-0.17453,-0.03142,0.61436,0.00000,0.00000,0.00000,65,17,15,11,69,2,45,-10,ok,2,0,0.001,5,-0.68,-1.58,9.22,31,0.139,8.36
4.5987,-0.17453,-0.03142,0.61436,0.00000,0.00000,0.00000,66,18,16,10,69,2,41,-9,ok,2,0,0.001,5,-0.68,-1.58,9.22,31,0.152,8.36
4.6018,-0.17453,-0.03142,0.61436,0.00000,0.00000,0.00000,66,18,17,9,70,3,39,-8,ok,2,0,0.001,5,-0.68,-1.58,9.22,31,0.165,8.36
4.6146,-0.17453,-0.03142,0.61436,0.00000,0.00000,0.00000,66,20,18,9,70,4,35,-7,ok,2,0,0.001,5,-0.68,-1.58,9.22,31,0.178,8.36
4.6347,-0.17453,-0.03142,0.61436,0.00000,0.00000,0.00000,67,20,20,8,71,4,34,-5,ok,2,0,0.001,5,-0.68,-1.58,9.22,31,0.191,8.36
4.6398,-0.00873,-0.04014,0.59516,0.00000,0.00000,0.00000,67,22,21,7,71,6,32,-4,ok,2,0,0.001,5,-0.00,-1.01,11.14,32,0.000,8.36
4.6520,-0.00873,-0.04014,0.59516,0.00000,0.00000,0.00000,67,23,22,7,71,7,30,-1,ok,2,0,0.001,5,-0.00,-1.01,11.14,32,0.013,8.36
4.6747,-0.00873,-0.04014,0.59516,0.00000,0.00000,0.00000,67,24,24,6,71,8,28,1,ok,2,0,0.001,5,-0.00,-1.01,11.14,32,0.025,8.36
4.6778,-0.00873,-0.04014,0.59516,0.00000,0.00000,0.00000,66,25,25,5,71,9,27,5,ok,2,0,0.001,5,-0.00,-1.01,11.14,32,0.038,8.36
4.6905,-0.00873,-0.04014,0.59516,0.00000,0.00000,0.00000,65,28,26,5,71,10,26,7,ok,2,0,0.001,5,-0.00,-1.01,11.14,32,0.051,8.36
4.7107,-0.00873,-0.04014,0.59516,0.00000,0.00000,0.00000,64,29,27,4,71,12,28,6,ok,2,0,0.001,5,-0.00,-1.01,11.14,32,0.063,8.36
4.7155,-0.00873,-0.04014,0.59516,0.00000,0.00000,0.00000,66,28,28,3,71,13,29,5,ok,2,0,0.001,5,-0.00,-1.01,11.14,32,0.076,8.36
4.7280,-0.00873,-0.04014,0.59516,0.00000,0.00000,0.00000,68,25,30,3,72,14,30,3,ok,2,0,0.001,5,-0.00,-1.01,11.14,32,0.088,8.36
4.7508,-0.00873,-0.04014,0.59516,0.00000,0.00000,0.00000,71,21,31,2,71,15,31,3,ok,2,0,0.001,5,-0.00,-1.01,11.14,32,0.101,8.36
4.7539,-0.00873,-0.04014,0.59516,0.00000,0.00000,0.00000,72,17,33,2,71,17,33,3,ok,2,0,0.001,5,-0.00,-1.01,11.14,32,0.114,8.36
4.7666,-0.00873,-0.04014,0.59516,0.00000,0.00000,0.00000,72,15,34,2,72,18,34,2,ok,2,0,0.001,5,-0.00,-1.01,11.14,32,0.127,8.36
4.7867,-0.00873,-0.04014,0.59516,0.00000,0.00000,0.00000,72,14,35,1,71,20,36,1,ok,2,0,0.001,5,-0.00,-1.01,11.14,32,0.140,8.36
4.7916,-0.00873,-0.04014,0.59516,0.00000,0.00000,0.00000,71,11,37,2,71,22,38,1,ok,2,0,0.001,5,-0.00,-1.01,11.14,32,0.152,8.36
4.8040,-0.00873,-0.04014,0.59516,0.00000,0.00000,0.00000,71,7,38,2,71,23,39,2,ok,2,0,0.001,5,-0.00,-1.01,11.14,32,0.165,8.36
4.8267,-0.00873,-0.04014,0.59516,0.00000,0.00000,0.00000,70,5,39,2,71,25,40,1,ok,2,0,0.001,5,-0.00,-1.01,11.14,32,0.177,8.36
4.8300,-0.00873,-0.04014,0.59516,0.00000,0.00000,0.00000,69,1,41,2,70,27,42,1,ok,2,0,0.001,5,-0.00,-1.01,11.14,32,0.190,8.36
4.8428,0.05934,0.02094,0.69639,0.00000,0.00000,0.00000,68,-1,42,1,70,28,43,1,ok,2,0,0.001,5,-0.45,0.97,10.38,33,0.000,8.36
4.8627,0.05934,0.02094,0.69639,0.00000,0.00000,0.00000,67,-3,43,2,71,29,44,1,ok,2,0,0.001,5,-0.45,0.97,10.38,33,0.013,8.36
4.8676,0.05934,0.02094,0.69639,0.00000,0.00000,0.00000,65,-4,44,2,72,29,45,0,ok,2,0,0.001,5,-0.45,0.97,10.38,33,0.025,8.36
4.8799,0.05934,0.02094,0.69639,0.00000,0.00000,0.00000,64,-6,45,2,73,26,46,0,ok,2,0,0.001,5,-0.45,0.97,10.38,33,0.038,8.36
4.9027,0.05934,0.02094,0.69639,0.00000,0.00000,0.00000,63,-8,46,2,75,22,47,0,ok,2,0,0.001,5,-0.45,0.97,10.38,33,0.050,8.36
4.9058,0.05934,0.02094,0.69639,0.00000,0.00000,0.00000,61,-9,48,3,77,17,49,0,ok,2,0,0.001,5,-0.45,0.97,10.38,33,0.063,8.36
4.9185,0.05934,0.02094,0.69639,0.00000,0.00000,0.00000,58,-10,49,3,78,14,49,0,ok,2,0,0.001,5,-0.45,0.97,10.38,33,0.076,8.36
4.9387,0.05934,0.02094,0.69639,0.00000,0.00000,0.00000,56,-11,50,3,78,13,50,0,ok,2,0,0.001,5,-0.45,0.97,10.38,33,0.088,8.36
4.9436,0.05934,0.02094,0.69639,0.00000,0.00000,0.00000,54,-11,50,5,78,11,51,0,ok,2,0,0.001,5,-0.45,0.97,10.38,33,0.101,8.36
4.9560,0.05934,0.02094,0.69639,0.00000,0.00000,0.00000,51,-11,51,6,78,8,52,0,ok,2,0,0.001,5,-0.45,0.97,10.38,33,0.113,8.36
4.9787,0.05934,0.02094,0.69639,0.00000,0.00000,0.00000,49,-11,52,5,78,5,53,0,ok,2,0,0.001,5,-0.45,0.97,10.38,33,0.126,8.36
4.9818,0.05934,0.02094,0.69639,0.00000,0.00000,0.00000,46,-11,53,6,77,2,54,0,ok,2,0,0.001,5,-0.45,0.97,10.38,33,0.139,8.36
4.9947,0.05934,0.02094,0.69639,0.00000,0.00000,0.00000,44,-11,54,7,76,-1,55,1,ok,2,0,0.001,5,-0.45,0.97,10.38,33,0.152,8.36
5.0147,0.05934,0.02094,0.69639,0.00000,0.00000,0.00000,42,-11,55,7,76,-3,55,0,ok,2,0,0.001,5,-0.45,0.97,10.38,33,0.164,8.36
5.0264,0.05934,0.02094,0.69639,0.00000,0.00000,0.00000,39,-10,56,7,75,-4,56,0,ok,2,0,0.001,5,-0.45,0.97,10.38,33,0.177,8.36
5.0320,0.05934,0.02094,0.69639,0.00000,0.00000,0.00000,36,-9,57,8,73,-7,57,-1,ok,2,0,0.001,5,-0.45,0.97,10.38,33,0.189,8.36
5.0547,0.12392,-0.00349,0.70162,0.00000,0.00000,0.00000,33,-8,57,8,70,-7,57,0,ok,2,0,0.001,5,0.04,1.30,10.04,34,0.000,8.36
5.0578,0.12392,-0.00349,0.70162,0.00000,0.00000,0.00000,30,-6,58,8,69,-9,58,0,ok,2,0,0.001,5,0.04,1.30,10.04,34,0.013,8.36
5.0705,0.12392,-0.00349,0.70162,0.00000,0.00000,0.00000,27,-4,59,9,68,-11,59,0,ok,2,0,0.001,5,0.04,1.30,10.04,34,0.026,8.36
5.0907,0.12392,-0.00349,0.70162,0.00000,0.00000,0.00000,23,-2,60,11,66,-12,60,0,ok,2,0,0.001,5,0.04,1.30,10.04,34,0.039,8.36
5.0955,0.12392,-0.00349,0.70162,0.00000,0.00000,0.00000,21,-1,61,11,64,-13,61,0,ok,2,0,0.001,5,0.04,1.30,10.04,34,0.051,8.36
5.1082,0.12392,-0.00349,0.70162,0.00000,0.00000,0.00000,19,1,62,11,62,-13,63,-3,ok,2,0,0.001,5,0.04,1.30,10.04,34,0.064,8.36
5.1307,0.12392,-0.00349,0.70162,0.00000,0.00000,0.00000,17,3,62,12,59,-14,64,-1,ok,2,0,0.001,5,0.04,1.30,10.04,34,0.076,8.36
5.1338,0.12392,-0.00349,0.70162,0.00000,0.00000,0.00000,15,7,63,13,57,-14,65,-2,ok,2,0,0.001,5,0.04,1.30,10.04,34,0.089,8.36
5.1465,0.12392,-0.00349,0.70162,0.00000,0.00000,0.00000,14,10,62,14,54,-14,65,-1,ok,2,0,0.001,5,0.04,1.30,10.04,34,0.102,8.36
5.1667,0.12392,-0.00349,0.70162,0.00000,0.00000,0.00000,12,13,63,15,52,-13,66,-1,ok,2,0,0.001,5,0.04,1.30,10.04,34,0.115,8.36
5.1716,0.12392,-0.00349,0.70162,0.00000,0.00000,0.00000,14,13,63,16,49,-13,67,0,ok,0,0,0.001,5,0.04,1.30,10.04,34,0.127,8.36
5.1840,0.12392,-0.00349,0.70162,0.00000,0.00000,0.00000,14,13,63,17,46,-12,67,0,ok,0,0,0.001,5,0.04,1.30,10.04,34,0.140,8.36
5.2067,0.12392,-0.00349,0.70162,0.00000,0.00000,0.00000,15,12,64,17,44,-11,68,0,ok,0,0,0.001,5,0.04,1.30,10.04,34,0.152,8.36
5.2098,0.12392,-0.00349,0.70162,0.00000,0.00000,0.00000,16,12,64,18,41,-10,69,0,ok,0,0,0.001,5,0.04,1.30,10.04,34,0.165,8.36
5.2225,0.12392,-0.00349,0.70162,0.00000,0.00000,0.00000,17,11,65,19,38,-9,70,2,ok,0,0,0.001,5,0.04,1.30,10.04,34,0.178,8.36
5.2427,0.12392,-0.00349,0.70162,0.00000,0.00000,0.00000,19,10,65,19,35,-8,70,2,ok,0,0,0.001,5,0.04,1.30,10.04,34,0.191,8.36
5.2477,0.07854,0.06632,0.72955,0.00000,0.00000,0.00000,19,10,65,21,33,-6,71,3,ok,0,0,0.001,5,1.20,1.12,8.23,35,0.000,8.36
5.2599,0.07854,0.06632,0.72955,0.00000,0.00000,0.00000,22,9,65,21,31,-5,71,5,ok,0,0,0.002,5,1.20,1.12,8.23,35,0.013,8.36
5.2828,0.07854,0.06632,0.72955,0.00000,0.00000,0.00000,23,8,65,22,29,-1,72,5,ok,0,0,0.002,5,1.20,1.12,8.23,35,0.025,8.36
5.2861,0.07854,0.06632,0.72955,0.00000,0.00000,0.00000,24,7,65,23,27,1,72,7,ok,0,0,0.002,5,1.20,1.12,8.23,35,0.038,8.36
5.2989,0.07854,0.06632,0.72955,0.00000,0.00000,0.00000,25,6,65,24,26,4,72,8,ok,0,0,0.002,5,1.20,1.12,8.23,35,0.051,8.36
5.3188,0.07854,0.06632,0.72955,0.00000,0.00000,0.00000,27,6,64,25,26,7,73,9,ok,0,0,0.002,5,1.20,1.12,8.23,35,0.064,8.36
5.3238,0.07854,0.06632,0.72955,0.00000,0.00000,0.00000,28,5,64,28,28,6,73,9,ok,0,0,0.002,5,1.20,1.12,8.23,35,0.076,8.36
5.3360,0.07854,0.06632,0.72955,0.00000,0.00000,0.00000,29,4,63,29,28,6,73,11,ok,0,0,0.002,5,1.20,1.12,8.23,35,0.089,8.36
5.3587,0.07854,0.06632,0.72955,0.00000,0.00000,0.00000,30,4,65,28,29,4,73,12,ok,0,0,0.002,5,1.20,1.12,8.23,35,0.101,8.36
5.3618,0.07854,0.06632,0.72955,0.00000,0.00000,0.00000,31,3,67,25,30,3,74,14,ok,0,0,0.002,5,1.20,1.12,8.23,35,0.114,8.36
5.3744,0.07854,0.06632,0.72955,0.00000,0.00000,0.00000,33,3,70,21,31,3,74,16,ok,0,0,0.002,5,1.20,1.12,8.23,35,0.127,8.36
5.3947,0.07854,0.06632,0.72955,0.00000,0.00000,0.00000,34,2,71,17,33,3,73,18,ok,0,0,0.002,5,1.20,1.12,8.23,35,0.140,8.36
5.3995,0.07854,0.06632,0.72955,0.00000,0.00000,0.00000,35,2,71,15,34,2,73,20,ok,0,0,0.002,5,1.20,1.12,8.23,35,0.152,8.36
5.4119,0.07854,0.06632,0.72955,0.00000,0.00000,0.00000,37,1,71,14,37,2,74,20,ok,0,0,0.002,5,1.20,1.12,8.23,35,0.165,8.36
5.4347,0.07854,0.06632,0.72955,0.00000,0.00000,0.00000,38,1,71,11,37,2,73,22,ok,0,0,0.002,5,1.20,1.12,8.23,35,0.177,8.36
5.4381,0.07854,0.06632,0.72955,0.00000,0.00000,0.00000,40,1,71,8,39,2,73,24,ok,0,0,0.002,5,1.20,1.12,8.23,35,0.191,8.36
5.4509,0.02269,-0.00175,0.73827,0.00000,0.00000,0.00000,41,1,70,5,40,2,73,25,ok,0,0,0.002,5,-1.38,0.26,10.30,36,0.000,8.36
5.4707,0.02269,-0.00175,0.73827,0.00000,0.00000,0.00000,43,0,69,3,41,2,73,26,ok,0,0,0.002,5,-1.38,0.26,10.30,36,0.013,8.36
5.4755,0.02269,-0.00175,0.73827,0.00000,0.00000,0.00000,44,0,68,1,42,1,73,28,ok,0,0,0.002,5,-1.38,0.26,10.30,36,0.025,8.36
5.4882,0.02269,-0.00175,0.73827,0.00000,0.00000,0.00000,46,0,67,-1,43,1,72,29,ok,0,0,0.002,5,-1.38,0.26,10.30,36,0.038,8.36
5.5107,0.02269,-0.00175,0.73827,0.00000,0.00000,0.00000,46,0,65,-2,44,0,73,29,ok,0,0,0.002,5,-1.38,0.26,10.30,36,0.050,8.36
5.5138,0.02269,-0.00175,0.73827,0.00000,0.00000,0.00000,47,0,64,-4,46,0,75,28,ok,0,0,0.002,5,-1.38,0.26,10.30,36,0.063,8.36
5.5264,0.02269,-0.00175,0.73827,0.00000,0.00000,0.00000,49,0,63,-6,47,0,76,26,ok,0,0,0.002,5,-1.38,0.26,10.30,36,0.076,8.36
5.5467,0.02269,-0.00175,0.73827,0.00000,0.00000,0.00000,50,1,61,-7,48,0,78,21,ok,0,0,0.002,5,-1.38,0.26,10.30,36,0.088,8.36
5.5515,0.02269,-0.00175,0.73827,0.00000,0.00000,0.00000,51,1,59,-8,49,0,79,17,ok,0,0,0.002,5,-1.38,0.26,10.30,36,0.101,8.36
5.5640,0.02269,-0.00175,0.73827,0.00000,0.00000,0.00000,51,1,56,-8,50,0,81,14,ok,0,0,0.002,5,-1.38,0.26,10.30,36,0.113,8.36
5.5867,0.02269,-0.00175,0.73827,0.00000,0.00000,0.00000,51,3,54,-9,51,0,81,13,ok,0,0,0.002,5,-1.38,0.26,10.30,36,0.126,8.36
5.5898,0.02269,-0.00175,0.73827,0.00000,0.00000,0.00000,52,4,51,-9,52,0,81,10,ok,2,0,0.002,6,-1.38,0.26,10.30,36,0.139,8.36
5.6025,0.02269,-0.00175,0.73827,0.00000,0.00000,0.00000,53,4,48,-9,54,0,81,7,ok,2,0,0.002,6,-1.38,0.26,10.30,36,0.152,8.36
5.6227,0.02269,-0.00175,0.73827,0.00000,0.00000,0.00000,54,5,46,-9,54,1,80,4,ok,2,0,0.002,6,-1.38,0.26,10.30,36,0.164,8.36
5.6275,0.02269,-0.00175,0.73827,0.00000,0.00000,0.00000,54,6,43,-9,55,1,80,2,ok,2,0,0.002,6,-1.38,0.26,10.30,36,0.177,8.36
5.6402,-0.07854,-0.05585,0.81507,0.00000,0.00000,0.00000,56,6,41,-9,56,1,79,-2,ok,2,0,0.002,6,0.15,-0.70,10.09,37,0.000,8.36
5.6627,-0.07854,-0.05585,0.81507,0.00000,0.00000,0.00000,57,6,39,-8,57,0,78,-3,ok,2,0,0.002,6,0.15,-0.70,10.09,37,0.013,8.36
5.6658,-0.07854,-0.05585,0.81507,0.00000,0.00000,0.00000,58,7,35,-7,58,1,77,-4,ok,2,0,0.002,6,0.15,-0.70,10.09,37,0.026,8.36
5.6785,-0.07854,-0.05585,0.81507,0.00000,0.00000,0.00000,59,7,33,-6,58,1,75,-6,ok,2,0,0.002,6,0.15,-0.70,10.09,37,0.039,8.36
5.6987,-0.07854,-0.05585,0.81507,0.00000,0.00000,0.00000,59,8,29,-5,60,1,72,-7,ok,2,0,0.002,6,0.15,-0.70,10.09,37,0.051,8.36
5.7035,-0.07854,-0.05585,0.81507,0.00000,0.00000,0.00000,60,9,26,-3,60,1,71,-9,ok,2,0,0.002,6,0.15,-0.70,10.09,37,0.064,8.36
5.7159,-0.07854,-0.05585,0.81507,0.00000,0.00000,0.00000,62,10,22,-1,61,0,70,-11,ok,2,0,0.002,6,0.15,-0.70,10.09,37,0.076,8.36
5.7387,-0.07854,-0.05585,0.81507,0.00000,0.00000,0.00000,62,10,20,0,64,-2,68,-12,ok,2,0,0.002,6,0.15,-0.70,10.09,37,0.089,8.36
5.7418,-0.07854,-0.05585,0.81507,0.00000,0.00000,0.00000,63,11,18,1,64,-1,65,-13,ok,2,0,0.002,6,0.15,-0.70,10.09,37,0.102,8.36
5.7545,-0.07854,-0.05585,0.81507,0.00000,0.00000,0.00000,63,12,16,4,65,0,63,-13,ok,2,0,0.002,6,0.15,-0.70,10.09,37,0.115,8.36
5.7747,-0.07854,-0.05585,0.81507,0.00000,0.00000,0.00000,64,12,14,7,65,0,61,-14,ok,2,0,0.002,6,0.15,-0.70,10.09,37,0.127,8.36
5.7795,-0.07854,-0.05585,0.81507,0.00000,0.00000,0.00000,64,14,13,10,66,0,59,-15,ok,2,0,0.002,6,0.15,-0.70,10.09,37,0.140,8.36
5.7919,-0.07854,-0.05585,0.81507,0.00000,0.00000,0.00000,65,14,11,13,67,0,55,-13,ok,2,0,0.002,6,0.15,-0.70,10.09,37,0.152,8.36
5.8147,-0.07854,-0.05585,0.81507,0.00000,0.00000,0.00000,65,15,13,13,67,0,53,-12,ok,2,0,0.002,6,0.15,-0.70,10.09,37,0.165,8.36
5.8180,-0.07854,-0.05585,0.81507,0.00000,0.00000,0.00000,65,16,12,13,68,1,50,-12,ok,2,0,0.002,6,0.15,-0.70,10.09,37,0.178,8.36
5.8305,-0.07854,-0.05585,0.81507,0.00000,0.00000,0.00000,66,17,14,12,68,1,47,-11,ok,2,0,0.002,6,0.15,-0.70,10.09,37,0.191,8.36
5.8507,-0.07854,-0.05585,0.81507,0.00000,0.00000,0.00000,66,18,15,11,69,2,45,-10,ok,2,0,0.002,6,0.15,-0.70,10.09,37,0.203,8.36
5.8558,0.02269,-0.02269,0.81507,0.00000,0.00000,0.00000,67,18,16,10,69,2,42,-9,ok,2,0,0.002,6,0.45,0.65,9.43,38,0.000,8.36
5.8680,0.02269,-0.02269,0.81507,0.00000,0.00000,0.00000,67,18,17,9,69,3,40,-9,ok,2,0,0.002,6,0.45,0.65,9.43,38,0.013,8.36
5.8907,0.02269,-0.02269,0.81507,0.00000,0.00000,0.00000,67,20,18,9,70,5,36,-7,ok,2,0,0.002,6,0.45,0.65,9.43,38,0.025,8.36
5.8938,0.02269,-0.02269,0.81507,0.00000,0.00000,0.00000,68,21,20,8,70,5,34,-6,ok,2,0,0.002,6,0.45,0.65,9.43,38,0.038,8.36
5.9065,0.02269,-0.02269,0.81507,0.00000,0.00000,0.00000,68,22,21,7,70,6,32,-4,ok,2,0,0.002,6,0.45,0.65,9.43,38,0.051,8.36
5.9268,0.02269,-0.02269,0.81507,0.00000,0.00000,0.00000,67,23,22,7,70,7,30,-1,ok,2,0,0.002,6,0.45,0.65,9.43,38,0.064,8.36
5.9317,0.02269,-0.02269,0.81507,0.00000,0.00000,0.00000,67,24,23,6,71,8,29,1,ok,2,0,0.002,6,0.45,0.65,9.43,38,0.076,8.36
5.9440,0.02269,-0.02269,0.81507,0.00000,0.00000,0.00000,67,25,25,5,71,9,27,5,ok,2,0,0.002,6,0.45,0.65,9.43,38,0.089,8.36
5.9667,0.02269,-0.02269,0.81507,0.00000,0.00000,0.00000,66,28,26,5,71,10,27,7,ok,2,0,0.002,6,0.45,0.65,9.43,38,0.101,8.36
5.9698,0.02269,-0.02269,0.81507,0.00000,0.00000,0.00000,65,29,27,4,71,12,29,6,ok,2,0,0.002,6,0.45,0.65,9.43,38,0.114,8.36
5.9824,0.02269,-0.02269,0.81507,0.00000,0.00000,0.00000,67,28,28,4,71,13,29,6,ok,2,0,0.002,6,0.45,0.65,9.43,38,0.127,8.36
6.0027,0.02269,-0.02269,0.81507,0.00000,0.00000,0.00000,69,25,30,3,71,14,31,4,ok,2,0,0.002,6,0.45,0.65,9.43,38,0.140,8.36
6.0075,0.02269,-0.02269,0.81507,0.00000,0.00000,0.00000,71,21,31,3,71,16,32,3,ok,2,0,0.002,6,0.45,0.65,9.43,38,0.152,8.36
6.0201,0.02269,-0.02269,0.81507,0.00000,0.00000,0.00000,72,17,32,2,71,18,33,3,ok,2,0,0.002,6,0.45,0.65,9.43,38,0.164,8.36
6.0427,0.02269,-0.02269,0.81507,0.00000,0.00000,0.00000,73,15,34,2,71,18,35,2,ok,2,0,0.002,6,0.45,0.65,9.43,38,0.177,8.36
6.0460,0.02269,-0.02269,0.81507,0.00000,0.00000,0.00000,72,14,35,2,70,21,36,1,ok,2,0,0.002,6,0.45,0.65,9.43,38,0.190,8.36
6.0588,0.05934,0.01222,0.88663,0.00000,0.00000,0.00000,72,11,36,2,70,22,38,1,ok,2,0,0.002,6,1.71,-0.63,10.79,39,0.000,8.36
6.0787,0.05934,0.01222,0.88663,0.00000,0.00000,0.00000,71,7,38,2,71,24,39,2,ok,2,0,0.002,6,1.71,-0.63,10.79,39,0.013,8.36
6.0835,0.05934,0.01222,0.88663,0.00000,0.00000,0.00000,71,5,39,2,71,26,41,1,ok,2,0,0.002,6,1.71,-0.63,10.79,39,0.025,8.36
6.0960,0.05934,0.01222,0.88663,0.00000,0.00000,0.00000,70,1,40,2,70,28,42,1,ok,2,0,0.002,6,1.71,-0.63,10.79,39,0.038,8.36
6.1187,0.05934,0.01222,0.88663,0.00000,0.00000,0.00000,69,0,41,1,70,29,43,1,ok,2,0,0.002,6,1.71,-0.63,10.79,39,0.050,8.36
6.1218,0.05934,0.01222,0.88663,0.00000,0.00000,0.00000,67,-3,43,2,70,29,44,1,ok,2,0,0.002,6,1.71,-0.63,10.79,39,0.063,8.36
6.1344,0.05934,0.01222,0.88663,0.00000,0.00000,0.00000,65,-4,43,2,72,29,45,1,ok,2,0,0.002,6,1.71,-0.63,10.79,39,0.076,8.36
6.1547,0.05934,0.01222,0.88663,0.00000,0.00000,0.00000,64,-6,45,2,73,26,46,0,ok,2,0,0.002,6,1.71,-0.63,10.79,39,0.088,8.36
6.1595,0.05934,0.01222,0.88663,0.00000,0.00000,0.00000,63,-8,46,2,75,22,48,0,ok,2,0,0.002,6,1.71,-0.63,10.79,39,0.101,8.36
6.1719,0.05934,0.01222,0.88663,0.00000,0.00000,0.00000,61,-9,48,3,77,17,49,0,ok,2,0,0.002,6,1.71,-0.63,10.79,39,0.113,8.36
6.1947,0.05934,0.01222,0.88663,0.00000,0.00000,0.00000,59,-10,49,3,78,14,49,0,ok,2,0,0.002,6,1.71,-0.63,10.79,39,0.126,8.36
6.1979,0.05934,0.01222,0.88663,0.00000,0.00000,0.00000,57,-11,50,3,78,14,50,0,ok,2,0,0.002,6,1.71,-0.63,10.79,39,0.139,8.36
6.2105,0.05934,0.01222,0.88663,0.00000,0.00000,0.00000,54,-12,50,5,78,11,51,0,ok,2,0,0.002,6,1.71,-0.63,10.79,39,0.152,8.36
6.2307,0.05934,0.01222,0.88663,0.00000,0.00000,0.00000,52,-11,51,6,78,8,52,0,ok,2,0,0.002,6,1.71,-0.63,10.79,39,0.165,8.36
6.2355,0.05934,0.01222,0.88663,0.00000,0.00000,0.00000,49,-11,52,5,78,5,53,0,ok,2,0,0.002,6,1.71,-0.63,10.79,39,0.177,8.36
6.2482,0.05061,-0.03665,0.87441,0.00000,0.00000,0.00000,47,-11,53,6,77,3,54,0,ok,2,0,0.002,6,-0.81,0.91,10.38,40,0.000,8.36
6.2707,0.05061,-0.03665,0.87441,0.00000,0.00000,0.00000,44,-11,53,7,76,-1,55,1,ok,2,0,0.002,6,-0.81,0.91,10.38,40,0.013,8.36
6.2738,0.05061,-0.03665,0.87441,0.00000,0.00000,0.00000,42,-11,55,7,76,-3,55,0,ok,2,0,0.002,6,-0.81,0.91,10.38,40,0.026,8.36
6.2865,0.05061,-0.03665,0.87441,0.00000,0.00000,0.00000,40,-10,56,7,75,-4,57,0,ok,2,0,0.002,6,-0.81,0.91,10.38,40,0.039,8.36
6.3067,0.05061,-0.03665,0.87441,0.00000,0.00000,0.00000,36,-9,57,8,73,-8,57,-1,ok,2,0,0.002,6,-0.81,0.91,10.38,40,0.051,8.36
6.3115,0.05061,-0.03665,0.87441,0.00000,0.00000,0.00000,34,-8,57,8,70,-7,58,0,ok,2,0,0.002,6,-0.81,0.91,10.38,40,0.064,8.36
6.3240,0.05061,-0.03665,0.87441,0.00000,0.00000,0.00000,30,-6,58,9,69,-9,58,0,ok,2,0,0.002,6,-0.81,0.91,10.38,40,0.076,8.36
6.3467,0.05061,-0.03665,0.87441,0.00000,0.00000,0.00000,27,-4,59,9,68,-11,59,1,ok,2,0,0.002,6,-0.81,0.91,10.38,40,0.089,8.36
6.3499,0.05061,-0.03665,0.87441,0.00000,0.00000,0.00000,23,-2,60,11,66,-12,60,0,ok,2,0,0.002,6,-0.81,0.91,10.38,40,0.102,8.36
6.3625,0.05061,-0.03665,0.87441,0.00000,0.00000,0.00000,22,-1,61,11,64,-13,61,0,ok,2,0,0.002,6,-0.81,0.91,10.38,40,0.114,8.36
6.3827,0.05061,-0.03665,0.87441,0.00000,0.00000,0.00000,20,1,62,12,62,-13,63,-2,ok,2,0,0.002,6,-0.81,0.91,10.38,40,0.127,8.36
6.3875,0.05061,-0.03665,0.87441,0.00000,0.00000,0.00000,18,3,62,12,59,-14,64,-1,ok,2,0,0.002,6,-0.81,0.91,10.38,40,0.139,8.36
6.4000,0.05061,-0.03665,0.87441,0.00000,0.00000,0.00000,15,6,63,13,57,-15,65,-1,ok,0,0,0.002,6,-0.81,0.91,10.38,40,0.152,8.36
6.4227,0.05061,-0.03665,0.87441,0.00000,0.00000,0.00000,14,10,63,14,54,-14,65,-1,ok,0,0,0.002,6,-0.81,0.91,10.38,40,0.164,8.36
6.4257,0.05061,-0.03665,0.87441,0.00000,0.00000,0.00000,12,12,63,15,51,-13,66,-1,ok,0,0,0.002,6,-0.81,0.91,10.38,40,0.178,8.36
6.4384,0.05061,-0.03665,0.87441,0.00000,0.00000,0.00000,14,13,64,16,49,-13,67,0,ok,0,0,0.002,6,-0.81,0.91,10.38,40,0.190,8.36
6.4587,0.03840,0.00524,0.90583,0.00000,0.00000,0.00000,14,13,64,17,46,-12,67,0,ok,0,0,0.002,6,-0.22,0.15,10.31,41,0.000,8.36
6.4635,0.03840,0.00524,0.90583,0.00000,0.00000,0.00000,15,12,64,17,44,-11,68,1,ok,0,0,0.002,6,-0.22,0.15,10.31,41,0.012,8.36
6.4760,0.03840,0.00524,0.90583,0.00000,0.00000,0.00000,17,11,64,18,41,-10,69,1,ok,0,0,0.002,6,-0.22,0.15,10.31,41,0.025,8.36
6.4987,0.03840,0.00524,0.90583,0.00000,0.00000,0.00000,17,11,65,19,38,-9,70,2,ok,0,0,0.002,6,-0.22,0.15,10.31,41,0.038,8.36
6.5020,0.03840,0.00524,0.90583,0.00000,0.00000,0.00000,19,10,65,20,35,-8,70,2,ok,0,0,0.002,6,-0.22,0.15,10.31,41,0.051,8.36
6.5144,0.03840,0.00524,0.90583,0.00000,0.00000,0.00000,19,10,65,21,33,-6,71,3,ok,0,0,0.002,6,-0.22,0.15,10.31,41,0.063,8.36
6.5347,0.03840,0.00524,0.90583,0.00000,0.00000,0.00000,22,8,65,21,31,-5,71,5,ok,0,0,0.002,6,-0.22,0.15,10.31,41,0.076,8.36
6.5395,0.03840,0.00524,0.90583,0.00000,0.00000,0.00000,23,8,65,23,29,-2,72,5,ok,0,0,0.002,6,-0.22,0.15,10.31,41,0.088,8.36
6.5520,0.03840,0.00524,0.90583,0.00000,0.00000,0.00000,24,7,65,23,27,1,72,6,ok,0,0,0.002,6,-0.22,0.15,10.31,41,0.101,8.36
6.5747,0.03840,0.00524,0.90583,0.00000,0.00000,0.00000,25,6,65,24,26,4,72,8,ok,0,0,0.002,6,-0.22,0.15,10.31,41,0.114,8.36
6.5780,0.03840,0.00524,0.90583,0.00000,0.00000,0.00000,27,6,65,25,26,6,72,9,ok,0,0,0.002,6,-0.22,0.15,10.31,41,0.127,8.36
6.5905,0.03840,0.00524,0.90583,0.00000,0.00000,0.00000,28,5,64,28,28,6,73,9,ok,0,0,0.002,6,-0.22,0.15,10.31,41,0.140,8.36
6.6107,0.03840,0.00524,0.90583,0.00000,0.00000,0.00000,29,4,63,29,28,6,73,11,ok,0,0,0.002,7,-0.22,0.15,10.31,41,0.152,8.36
6.6155,0.03840,0.00524,0.90583,0.00000,0.00000,0.00000,30,4,65,28,29,4,73,12,ok,0,0,0.002,7,-0.22,0.15,10.31,41,0.164,8.36
6.6279,0.03840,0.00524,0.90583,0.00000,0.00000,0.00000,32,3,67,25,30,3,73,15,ok,0,0,0.002,7,-0.22,0.15,10.31,41,0.177,8.36
6.6507,0.03840,0.00524,0.90583,0.00000,0.00000,0.00000,33,3,70,21,31,3,73,16,ok,0,0,0.002,7,-0.22,0.15,10.31,41,0.190,8.36
6.6541,0.05411,0.05585,0.87790,0.00000,0.00000,0.00000,34,2,71,17,33,2,73,18,ok,0,0,0.002,7,0.98,0.88,9.71,42,0.000,8.36
6.6665,0.05411,0.05585,0.87790,0.00000,0.00000,0.00000,35,2,71,15,34,1,73,20,ok,0,0,0.002,7,0.98,0.88,9.71,42,0.013,8.36
6.6867,0.05411,0.05585,0.87790,0.00000,0.00000,0.00000,37,1,71,14,36,2,74,20,ok,0,0,0.002,7,0.98,0.88,9.71,42,0.025,8.36
6.6917,0.05411,0.05585,0.87790,0.00000,0.00000,0.00000,38,1,71,11,37,2,73,22,ok,0,0,0.002,7,0.98,0.88,9.71,42,0.038,8.36
6.7040,0.05411,0.05585,0.87790,0.00000,0.00000,0.00000,40,1,71,8,39,2,72,24,ok,0,0,0.002,7,0.98,0.88,9.71,42,0.050,8.36
6.7267,0.05411,0.05585,0.87790,0.00000,0.00000,0.00000,41,1,70,5,40,2,73,25,ok,0,0,0.002,7,0.98,0.88,9.71,42,0.063,8.36
6.7298,0.05411,0.05585,0.87790,0.00000,0.00000,0.00000,43,0,69,3,41,2,73,26,ok,0,0,0.002,7,0.98,0.88,9.71,42,0.076,8.36
6.7426,0.05411,0.05585,0.87790,0.00000,0.00000,0.00000,44,0,68,1,42,1,72,28,ok,0,0,0.002,7,0.98,0.88,9.71,42,0.089,8.36
6.7627,0.05411,0.05585,0.87790,0.00000,0.00000,0.00000,46,0,67,-1,43,1,72,29,ok,0,0,0.002,7,0.98,0.88,9.71,42,0.101,8.36
6.7675,0.05411,0.05585,0.87790,0.00000,0.00000,0.00000,46,0,65,-2,44,0,73,29,ok,0,0,0.002,7,0.98,0.88,9.71,42,0.114,8.36
6.7799,0.05411,0.05585,0.87790,0.00000,0.00000,0.00000,48,1,64,-4,46,1,74,28,ok,0,0,0.002,7,0.98,0.88,9.71,42,0.126,8.36
6.8027,0.05411,0.05585,0.87790,0.00000,0.00000,0.00000,49,1,63,-6,47,1,76,26,ok,0,0,0.002,7,0.98,0.88,9.71,42,0.139,8.36
6.8058,0.05411,0.05585,0.87790,0.00000,0.00000,0.00000,50,2,61,-7,48,1,78,21,ok,0,0,0.002,7,0.98,0.88,9.71,42,0.152,8.36
6.8185,0.05411,0.05585,0.87790,0.00000,0.00000,0.00000,51,1,58,-8,49,1,79,17,ok,0,0,0.002,7,0.98,0.88,9.71,42,0.165,8.36
6.8387,0.05411,0.05585,0.87790,0.00000,0.00000,0.00000,52,1,56,-8,50,1,81,14,ok,0,0,0.002,7,0.98,0.88,9.71,42,0.177,8.36
6.8435,0.05411,0.05585,0.87790,0.00000,0.00000,0.00000,52,4,54,-9,51,1,81,14,ok,0,0,0.002,7,0.98,0.88,9.71,42,0.190,8.36
6.8562,-0.10472,-0.00349,0.95295,0.00000,0.00000,0.00000,53,5,51,-9,52,1,81,11,ok,0,0,0.002,7,-1.27,-0.66,9.00,43,0.000,8.36
6.8787,-0.10472,-0.00349,0.95295,0.00000,0.00000,0.00000,54,4,48,-9,53,0,81,7,ok,2,0,0.002,7,-1.27,-0.66,9.00,43,0.012,8.36
6.8818,-0.10472,-0.00349,0.95295,0.00000,0.00000,0.00000,54,5,46,-8,54,1,81,4,ok,2,0,0.002,7,-1.27,-0.66,9.00,43,0.026,8.36
6.8945,-0.10472,-0.00349,0.95295,0.00000,0.00000,0.00000,55,5,43,-9,55,1,80,3,ok,2,0,0.002,7,-1.27,-0.66,9.00,43,0.039,8.36
6.9147,-0.10472,-0.00349,0.95295,0.00000,0.00000,0.00000,57,6,41,-9,56,1,79,-1,ok,2,0,0.002,7,-1.27,-0.66,9.00,43,0.051,8.36
6.9195,-0.10472,-0.00349,0.95295,0.00000,0.00000,0.00000,57,6,39,-8,57,1,79,-3,ok,2,0,0.002,7,-1.27,-0.66,9.00,43,0.063,8.36
6.9319,-0.10472,-0.00349,0.95295,0.00000,0.00000,0.00000,58,7,35,-7,58,1,77,-4,ok,2,0,0.002,7,-1.27,-0.66,9.00,43,0.076,8.36
6.9547,-0.10472,-0.00349,0.95295,0.00000,0.00000,0.00000,59,7,33,-6,59,2,75,-6,ok,2,0,0.002,7,-1.27,-0.66,9.00,43,0.089,8.36
6.9578,-0.10472,-0.00349,0.95295,0.00000,0.00000,0.00000,59,8,29,-5,60,2,73,-7,ok,2,0,0.002,7,-1.27,-0.66,9.00,43,0.102,8.36
6.9705,-0.10472,-0.00349,0.95295,0.00000,0.00000,0.00000,60,8,26,-3,61,2,71,-9,ok,2,0,0.002,7,-1.27,-0.66,9.00,43,0.115,8.36
6.9907,-0.10472,-0.00349,0.95295,0.00000,0.00000,0.00000,62,10,22,-1,62,1,70,-11,ok,2,0,0.002,7,-1.27,-0.66,9.00,43,0.127,8.36
6.9955,-0.10472,-0.00349,0.95295,0.00000,0.00000,0.00000,62,10,20,0,64,-1,67,-12,ok,2,0,0.002,7,-1.27,-0.66,9.00,43,0.140,8.36
7.0082,-0.10472,-0.00349,0.95295,0.00000,0.00000,0.00000,63,11,18,1,64,-1,65,-13,ok,2,0,0.002,7,-1.27,-0.66,9.00,43,0.152,8.36
7.0307,-0.10472,-0.00349,0.95295,0.00000,0.00000,0.00000,63,12,16,4,65,0,63,-13,ok,2,0,0.002,7,-1.27,-0.66,9.00,43,0.165,8.36
7.0338,-0.10472,-0.00349,0.95295,0.00000,0.00000,0.00000,64,12,14,7,65,0,61,-14,ok,2,0,0.002,7,-1.27,-0.66,9.00,43,0.178,8.36
7.0468,-0.10472,-0.00349,0.95295,0.00000,0.00000,0.00000,64,13,12,10,66,1,59,-14,ok,2,0,0.002,7,-1.27,-0.66,9.00,43,0.191,8.36
7.0667,-0.02793,-0.05760,0.97564,0.00000,0.00000,0.00000,65,14,11,13,67,0,55,-12,ok,2,0,0.002,7,1.29,-0.42,12.36,44,0.000,8.36
7.0715,-0.02793,-0.05760,0.97564,0.00000,0.00000,0.00000,65,15,12,13,67,1,53,-12,ok,2,0,0.002,7,1.29,-0.42,12.36,44,0.012,8.36
7.0839,-0.02793,-0.05760,0.97564,0.00000,0.00000,0.00000,65,16,12,13,68,1,51,-12,ok,2,0,0.002,7,1.29,-0.42,12.36,44,0.025,8.36
7.1067,-0.02793,-0.05760,0.97564,0.00000,0.00000,0.00000,66,16,14,12,68,1,47,-11,ok,2,0,0.002,7,1.29,-0.42,12.36,44,0.038,8.36
7.1098,-0.02793,-0.05760,0.97564,0.00000,0.00000,0.00000,66,18,15,11,69,2,45,-11,ok,2,0,0.002,7,1.29,-0.42,12.36,44,0.051,8.36
7.1226,-0.02793,-0.05760,0.97564,0.00000,0.00000,0.00000,67,18,16,10,69,3,42,-9,ok,2,0,0.002,7,1.29,-0.42,12.36,44,0.064,8.36
7.1427,-0.02793,-0.05760,0.97564,0.00000,0.00000,0.00000,67,19,17,9,69,3,39,-9,ok,2,0,0.002,7,1.29,-0.42,12.36,44,0.076,8.36
7.1475,-0.02793,-0.05760,0.97564,0.00000,0.00000,0.00000,67,20,18,9,70,4,36,-7,ok,2,0,0.002,7,1.29,-0.42,12.36,44,0.089,8.36
7.1600,-0.02793,-0.05760,0.97564,0.00000,0.00000,0.00000,68,21,20,8,71,5,34,-5,ok,2,0,0.002,7,1.29,-0.42,12.36,44,0.101,8.36
7.1827,-0.02793,-0.05760,0.97564,0.00000,0.00000,0.00000,68,22,21,7,71,6,32,-4,ok,2,0,0.002,7,1.29,-0.42,12.36,44,0.114,8.36
7.1858,-0.02793,-0.05760,0.97564,0.00000,0.00000,0.00000,68,23,22,7,70,7,30,-1,ok,2,0,0.002,7,1.29,-0.42,12.36,44,0.127,8.36
7.1984,-0.02793,-0.05760,0.97564,0.00000,0.00000,0.00000,68,24,23,6,71,8,29,2,ok,2,0,0.002,7,1.29,-0.42,12.36,44,0.140,8.36
7.2187,-0.02793,-0.05760,0.97564,0.00000,0.00000,0.00000,67,25,25,5,71,9,28,5,ok,2,0,0.002,7,1.29,-0.42,12.36,44,0.152,8.36
7.2235,-0.02793,-0.05760,0.97564,0.00000,0.00000,0.00000,66,28,26,5,71,10,27,7,ok,2,0,0.002,7,1.29,-0.42,12.36,44,0.164,8.36
7.2361,-0.02793,-0.05760,0.97564,0.00000,0.00000,0.00000,65,29,27,4,71,12,29,6,ok,2,0,0.002,7,1.29,-0.42,12.36,44,0.177,8.36
7.2587,0.05061,-0.03316,1.02102,0.00000,0.00000,0.00000,67,28,28,4,71,13,29,6,ok,2,0,0.002,7,1.42,1.53,9.18,45,0.000,8.36
7.2618,0.05061,-0.03316,1.02102,0.00000,0.00000,0.00000,69,25,30,3,71,14,31,3,ok,2,0,0.002,7,1.42,1.53,9.18,45,0.013,8.36
7.2745,0.05061,-0.03316,1.02102,0.00000,0.00000,0.00000,71,21,31,3,71,16,32,3,ok,2,0,0.002,7,1.42,1.53,9.18,45,0.026,8.36
7.2948,0.05061,-0.03316,1.02102,0.00000,0.00000,0.00000,72,17,33,2,71,18,33,3,ok,2,0,0.002,7,1.42,1.53,9.18,45,0.039,8.36
7.2995,0.05061,-0.03316,1.02102,0.00000,0.00000,0.00000,73,15,34,2,71,19,35,2,ok,2,0,0.002,7,1.42,1.53,9.18,45,0.051,8.36
7.3119,0.05061,-0.03316,1.02102,0.00000,0.00000,0.00000,72,14,35,2,70,21,36,1,ok,2,0,0.002,7,1.42,1.53,9.18,45,0.064,8.36
7.3347,0.05061,-0.03316,1.02102,0.00000,0.00000,0.00000,72,11,36,2,70,22,38,1,ok,2,0,0.002,7,1.42,1.53,9.18,45,0.076,8.36
7.3378,0.05061,-0.03316,1.02102,0.00000,0.00000,0.00000,72,8,38,2,71,24,39,2,ok,2,0,0.002,7,1.42,1.53,9.18,45,0.089,8.36
7.3507,0.05061,-0.03316,1.02102,0.00000,0.00000,0.00000,71,5,39,2,71,25,41,1,ok,2,0,0.002,7,1.42,1.53,9.18,45,0.102,8.36
7.3707,0.05061,-0.03316,1.02102,0.00000,0.00000,0.00000,70,1,40,2,70,27,42,1,ok,2,0,0.002,7,1.42,1.53,9.18,45,0.115,8.36
7.3755,0.05061,-0.03316,1.02102,0.00000,0.00000,0.00000,69,-1,41,2,70,28,43,1,ok,2,0,0.002,7,1.42,1.53,9.18,45,0.127,8.36
7.3879,0.05061,-0.03316,1.02102,0.00000,0.00000,0.00000,68,-3,43,2,70,29,44,1,ok,2,0,0.002,7,1.42,1.53,9.18,45,0.140,8.36
7.4107,0.05061,-0.03316,1.02102,0.00000,0.00000,0.00000,66,-4,44,2,71,29,45,1,ok,2,0,0.002,7,1.42,1.53,9.18,45,0.152,8.36
7.4138,0.05061,-0.03316,1.02102,0.00000,0.00000,0.00000,65,-6,45,3,73,26,46,0,ok,2,0,0.002,7,1.42,1.53,9.18,45,0.165,8.36
7.4265,0.05061,-0.03316,1.02102,0.00000,0.00000,0.00000,64,-8,46,3,75,21,48,0,ok,2,0,0.002,7,1.42,1.53,9.18,45,0.178,8.36
7.4467,0.05061,-0.03316,1.02102,0.00000,0.00000,0.00000,61,-9,48,4,76,17,49,0,ok,2,0,0.002,7,1.42,1.53,9.18,45,0.191,8.36
7.4515,0.05061,-0.03316,1.02102,0.00000,0.00000,0.00000,59,-10,49,3,78,14,49,0,ok,2,0,0.002,7,1.42,1.53,9.18,45,0.203,8.36
7.4642,0.06458,0.02967,1.05941,0.00000,0.00000,0.00000,57,-10,50,3,78,13,50,0,ok,2,0,0.002,7,0.96,1.12,8.84,46,0.000,8.36
7.4867,0.06458,0.02967,1.05941,0.00000,0.00000,0.00000,55,-11,50,5,78,11,51,0,ok,2,0,0.002,7,0.96,1.12,8.84,46,0.012,8.36
7.4898,0.06458,0.02967,1.05941,0.00000,0.00000,0.00000,52,-11,51,6,78,8,52,0,ok,2,0,0.002,7,0.96,1.12,8.84,46,0.026,8.36
7.5025,0.06458,0.02967,1.05941,0.00000,0.00000,0.00000,49,-11,52,6,78,5,53,0,ok,2,0,0.002,7,0.96,1.12,8.84,46,0.039,8.36
7.5227,0.06458,0.02967,1.05941,0.00000,0.00000,0.00000,47,-11,53,6,77,3,54,0,ok,2,0,0.002,7,0.96,1.12,8.84,46,0.051,8.36
7.5277,0.06458,0.02967,1.05941,0.00000,0.00000,0.00000,44,-11,53,7,76,-1,55,1,ok,2,0,0.002,7,0.96,1.12,8.84,46,0.063,8.36
7.5400,0.06458,0.02967,1.05941,0.00000,0.00000,0.00000,42,-11,55,7,76,-3,55,0,ok,2,0,0.002,7,0.96,1.12,8.84,46,0.076,8.36
7.5627,0.06458,0.02967,1.05941,0.00000,0.00000,0.00000,40,-10,55,7,75,-4,57,1,ok,2,0,0.002,7,0.96,1.12,8.84,46,0.089,8.36
7.5660,0.06458,0.02967,1.05941,0.00000,0.00000,0.00000,37,-9,56,8,73,-7,57,-1,ok,2,0,0.002,7,0.96,1.12,8.84,46,0.102,8.36
7.5784,0.06458,0.02967,1.05941,0.00000,0.00000,0.00000,34,-8,57,8,70,-7,58,0,ok,2,0,0.002,7,0.96,1.12,8.84,46,0.114,8.36
7.5987,0.06458,0.02967,1.05941,0.00000,0.00000,0.00000,31,-6,58,9,69,-9,58,0,ok,2,0,0.002,7,0.96,1.12,8.84,46,0.127,8.36
7.6037,0.06458,0.02967,1.05941,0.00000,0.00000,0.00000,28,-4,58,9,68,-10,60,1,ok,2,0,0.002,7,0.96,1.12,8.84,46,0.139,8.36
7.6159,0.06458,0.02967,1.05941,0.00000,0.00000,0.00000,24,-2,60,11,66,-12,60,0,ok,2,0,0.002,8,0.96,1.12,8.84,46,0.152,8.36
7.6387,0.06458,0.02967,1.05941,0.00000,0.00000,0.00000,22,-1,61,11,64,-12,61,0,ok,2,0,0.002,8,0.96,1.12,8.84,46,0.164,8.36
7.6418,0.06458,0.02967,1.05941,0.00000,0.00000,0.00000,20,0,61,11,62,-13,64,-2,ok,2,0,0.002,8,0.96,1.12,8.84,46,0.178,8.36
7.6546,0.06458,0.02967,1.05941,0.00000,0.00000,0.00000,18,3,62,12,59,-14,64,-1,ok,0,0,0.002,8,0.96,1.12,8.84,46,0.190,8.36
7.6747,0.07330,-0.01222,1.07338,0.00000,0.00000,0.00000,16,7,62,13,57,-14,65,-1,ok,0,0,0.002,8,0.25,0.77,10.41,47,0.000,8.36
7.6795,0.07330,-0.01222,1.07338,0.00000,0.00000,0.00000,14,10,62,14,54,-13,66,-1,ok,0,0,0.002,8,0.25,0.77,10.41,47,0.012,8.36
7.6920,0.07330,-0.01222,1.07338,0.00000,0.00000,0.00000,12,12,63,15,51,-12,66,-1,ok,0,0,0.002,8,0.25,0.77,10.41,47,0.025,8.36
7.7147,0.07330,-0.01222,1.07338,0.00000,0.00000,0.00000,14,13,63,16,49,-12,67,0,ok,0,0,0.002,8,0.25,0.77,10.41,47,0.037,8.36
7.7179,0.07330,-0.01222,1.07338,0.00000,0.00000,0.00000,14,13,63,17,46,-11,68,0,ok,0,0,0.002,8,0.25,0.77,10.41,47,0.051,8.36
7.7305,0.07330,-0.01222,1.07338,0.00000,0.00000,0.00000,15,12,64,17,44,-11,68,1,ok,0,0,0.002,8,0.25,0.77,10.41,47,0.063,8.36
7.7507,0.07330,-0.01222,1.07338,0.00000,0.00000,0.00000,17,12,64,18,41,-10,69,1,ok,0,0,0.002,8,0.25,0.77,10.41,47,0.076,8.36
7.7555,0.07330,-0.01222,1.07338,0.00000,0.00000,0.00000,17,11,65,19,38,-9,70,2,ok,0,0,0.002,8,0.25,0.77,10.41,47,0.088,8.36
7.7679,0.07330,-0.01222,1.07338,0.00000,0.00000,0.00000,19,10,65,20,35,-7,70,2,ok,0,0,0.002,8,0.25,0.77,10.41,47,0.101,8.36
7.7907,0.07330,-0.01222,1.07338,0.00000,0.00000,0.00000,20,10,65,21,33,-6,71,3,ok,0,0,0.002,8,0.25,0.77,10.41,47,0.113,8.36
7.7938,0.07330,-0.01222,1.07338,0.00000,0.00000,0.00000,22,8,66,21,31,-5,71,5,ok,0,0,0.002,8,0.25,0.77,10.41,47,0.127,8.36
7.8065,0.07330,-0.01222,1.07338,0.00000,0.00000,0.00000,23,8,66,23,29,-2,72,5,ok,0,0,0.002,8,0.25,0.77,10.41,47,0.140,8.36
7.8267,0.07330,-0.01222,1.07338,0.00000,0.00000,0.00000,25,7,65,23,27,1,72,7,ok,0,0,0.002,8,0.25,0.77,10.41,47,0.152,8.36
7.8315,0.07330,-0.01222,1.07338,0.00000,0.00000,0.00000,26,6,65,24,26,4,72,8,ok,0,0,0.002,8,0.25,0.77,10.41,47,0.164,8.36
7.8439,0.07330,-0.01222,1.07338,0.00000,0.00000,0.00000,27,6,65,25,26,7,73,9,ok,0,0,0.002,8,0.25,0.77,10.41,47,0.177,8.36
7.8667,0.00698,0.02967,1.10479,0.00000,0.00000,0.00000,28,5,64,28,27,6,73,9,ok,0,0,0.002,8,1.85,0.35,10.44,48,0.000,8.36
7.8698,0.00698,0.02967,1.10479,0.00000,0.00000,0.00000,30,4,63,29,28,6,73,12,ok,0,0,0.002,8,1.85,0.35,10.44,48,0.013,8.36
7.8825,0.00698,0.02967,1.10479,0.00000,0.00000,0.00000,31,4,65,28,29,3,73,13,ok,0,0,0.002,8,1.85,0.35,10.44,48,0.026,8.36
7.9027,0.00698,0.02967,1.10479,0.00000,0.00000,0.00000,32,3,67,25,30,3,73,15,ok,0,0,0.002,8,1.85,0.35,10.44,48,0.039,8.36
7.9076,0.00698,0.02967,1.10479,0.00000,0.00000,0.00000,33,3,69,21,31,3,74,16,ok,0,0,0.002,8,1.85,0.35,10.44,48,0.051,8.36
7.9200,0.00698,0.02967,1.10479,0.00000,0.00000,0.00000,35,2,70,17,32,2,73,18,ok,0,0,0.002,8,1.85,0.35,10.44,48,0.064,8.36
7.9427,0.00698,0.02967,1.10479,0.00000,0.00000,0.00000,36,2,71,15,34,1,73,20,ok,0,0,0.002,8,1.85,0.35,10.44,48,0.076,8.36
7.9458,0.00698,0.02967,1.10479,0.00000,0.00000,0.00000,38,1,71,15,36,2,74,20,ok,0,0,0.002,8,1.85,0.35,10.44,48,0.089,8.36
7.9587,0.00698,0.02967,1.10479,0.00000,0.00000,0.00000,39,1,71,11,36,2,73,23,ok,0,0,0.002,8,1.85,0.35,10.44,48,0.102,8.36
7.9787,0.00698,0.02967,1.10479,0.00000,0.00000,0.00000,41,1,71,8,38,2,73,24,ok,0,0,0.002,8,1.85,0.35,10.44,48,0.115,8.36
7.9835,0.00698,0.02967,1.10479,0.00000,0.00000,0.00000,42,1,70,6,40,2,73,25,ok,0,0,0.002,8,1.85,0.35,10.44,48,0.127,8.36
7.9959,0.00698,0.02967,1.10479,0.00000,0.00000,0.00000,43,0,69,3,41,2,73,26,ok,0,0,0.002,8,1.85,0.35,10.44,48,0.140,8.36
8.0187,0.00698,0.02967,1.10479,0.00000,0.00000,0.00000,44,0,68,1,42,1,72,28,ok,0,0,0.002,8,1.85,0.35,10.44,48,0.152,8.36
8.0218,0.00698,0.02967,1.10479,0.00000,0.00000,0.00000,46,0,67,0,43,1,72,29,ok,0,0,0.002,8,1.85,0.35,10.44,48,0.165,8.36
8.0345,0.00698,0.02967,1.10479,0.00000,0.00000,0.00000,46,0,65,-2,44,0,73,29,ok,0,0,0.002,8,1.85,0.35,10.44,48,0.178,8.36
8.0547,0.00698,0.02967,1.10479,0.00000,0.00000,0.00000,48,0,64,-4,46,0,74,29,ok,0,0,0.002,8,1.85,0.35,10.44,48,0.191,8.36
8.0597,-0.07330,-0.01920,1.06989,0.00000,0.00000,0.00000,49,0,63,-6,47,0,76,26,ok,0,0,0.002,8,-0.07,-0.51,10.59,49,0.000,8.36
8.0719,-0.07330,-0.01920,1.06989,0.00000,0.00000,0.00000,50,1,61,-7,48,0,78,21,ok,0,0,0.002,8,-0.07,-0.51,10.59,49,0.013,8.36
8.0947,-0.07330,-0.01920,1.06989,0.00000,0.00000,0.00000,52,1,59,-8,48,0,79,18,ok,0,0,0.002,8,-0.07,-0.51,10.59,49,0.025,8.36
8.0978,-0.07330,-0.01920,1.06989,0.00000,0.00000,0.00000,52,1,56,-8,50,0,81,14,ok,0,0,0.002,8,-0.07,-0.51,10.59,49,0.038,8.36
8.1105,-0.07330,-0.01920,1.06989,0.00000,0.00000,0.00000,52,3,54,-9,51,0,81,14,ok,0,0,0.002,8,-0.07,-0.51,10.59,49,0.051,8.36
8.1307,-0.07330,-0.01920,1.06989,0.00000,0.00000,0.00000,53,4,51,-9,52,0,81,11,ok,0,0,0.002,8,-0.07,-0.51,10.59,49,0.064,8.36
8.1355,-0.07330,-0.01920,1.06989,0.00000,0.00000,0.00000,54,4,48,-9,53,0,81,7,ok,0,0,0.002,8,-0.07,-0.51,10.59,49,0.076,8.36
8.1481,-0.07330,-0.01920,1.06989,0.00000,0.00000,0.00000,54,5,46,-8,54,1,80,4,ok,2,0,0.002,8,-0.07,-0.51,10.59,49,0.089,8.36
8.1707,-0.07330,-0.01920,1.06989,0.00000,0.00000,0.00000,55,6,43,-9,55,1,80,2,ok,2,0,0.002,8,-0.07,-0.51,10.59,49,0.101,8.36
8.1738,-0.07330,-0.01920,1.06989,0.00000,0.00000,0.00000,57,6,41,-9,56,1,78,-1,ok,2,0,0.002,8,-0.07,-0.51,10.59,49,0.114,8.36
8.1866,-0.07330,-0.01920,1.06989,0.00000,0.00000,0.00000,57,6,39,-8,57,1,78,-3,ok,2,0,0.002,8,-0.07,-0.51,10.59,49,0.127,8.36
8.2067,-0.07330,-0.01920,1.06989,0.00000,0.00000,0.00000,58,7,35,-7,58,1,77,-5,ok,2,0,0.002,8,-0.07,-0.51,10.59,49,0.140,8.36
8.2117,-0.07330,-0.01920,1.06989,0.00000,0.00000,0.00000,59,8,32,-6,59,1,75,-7,ok,2,0,0.002,8,-0.07,-0.51,10.59,49,0.152,8.36
8.2240,-0.07330,-0.01920,1.06989,0.00000,0.00000,0.00000,60,8,29,-5,60,2,72,-7,ok,2,0,0.002,8,-0.07,-0.51,10.59,49,0.165,8.36
8.2467,-0.07330,-0.01920,1.06989,0.00000,0.00000,0.00000,60,9,26,-3,61,2,71,-9,ok,2,0,0.002,8,-0.07,-0.51,10.59,49,0.177,8.36
8.2498,-0.07330,-0.01920,1.06989,0.00000,0.00000,0.00000,62,10,21,-1,61,1,70,-11,ok,2,0,0.002,8,-0.07,-0.51,10.59,49,0.190,8.36
8.2626,-0.07330,-0.01920,1.06989,0.00000,0.00000,0.00000,62,10,20,0,64,-1,67,-12,ok,2,0,0.002,8,-0.07,-0.51,10.59,49,0.203,8.36
8.2827,-0.11694,-0.04363,1.22348,0.00000,0.00000,0.00000,63,11,18,1,64,-1,65,-13,ok,2,0,0.002,8,0.18,-1.29,11.12,50,0.000,8.36
8.2875,-0.11694,-0.04363,1.22348,0.00000,0.00000,0.00000,64,12,16,4,65,0,63,-13,ok,2,0,0.002,8,0.18,-1.29,11.12,50,0.012,8.36
8.3001,-0.11694,-0.04363,1.22348,0.00000,0.00000,0.00000,64,12,14,7,65,0,61,-13,ok,2,0,0.002,8,0.18,-1.29,11.12,50,0.025,8.36
8.3227,-0.11694,-0.04363,1.22348,0.00000,0.00000,0.00000,64,13,12,10,66,0,59,-14,ok,2,0,0.002,8,0.18,-1.29,11.12,50,0.037,8.36
8.3259,-0.11694,-0.04363,1.22348,0.00000,0.00000,0.00000,65,14,11,13,67,0,56,-12,ok,2,0,0.002,8,0.18,-1.29,11.12,50,0.051,8.36
8.3385,-0.11694,-0.04363,1.22348,0.00000,0.00000,0.00000,65,15,12,13,67,1,53,-12,ok,2,0,0.002,8,0.18,-1.29,11.12,50,0.063,8.36
8.3587,-0.11694,-0.04363,1.22348,0.00000,0.00000,0.00000,66,16,12,13,68,1,51,-12,ok,2,0,0.002,8,0.18,-1.29,11.12,50,0.076,8.36
8.3635,-0.11694,-0.04363,1.22348,0.00000,0.00000,0.00000,66,17,14,12,68,1,48,-11,ok,2,0,0.002,8,0.18,-1.29,11.12,50,0.088,8.36
8.3760,-0.11694,-0.04363,1.22348,0.00000,0.00000,0.00000,66,18,15,11,69,2,45,-10,ok,2,0,0.002,8,0.18,-1.29,11.12,50,0.101,8.36
8.3987,-0.11694,-0.04363,1.22348,0.00000,0.00000,0.00000,67,18,15,11,69,3,42,-9,ok,2,0,0.002,8,0.18,-1.29,11.12,50,0.113,8.36
8.4018,-0.11694,-0.04363,1.22348,0.00000,0.00000,0.00000,67,19,17,9,69,3,39,-8,ok,2,0,0.002,8,0.18,-1.29,11.12,50,0.127,8.36
8.4145,-0.11694,-0.04363,1.22348,0.00000,0.00000,0.00000,67,20,18,9,70,4,36,-7,ok,2,0,0.002,8,0.18,-1.29,11.12,50,0.139,8.36
8.4347,-0.11694,-0.04363,1.22348,0.00000,0.00000,0.00000,68,21,20,8,71,5,34,-5,ok,2,0,0.002,8,0.18,-1.29,11.12,50,0.152,8.36
8.4395,-0.11694,-0.04363,1.22348,0.00000,0.00000,0.00000,68,22,21,7,71,6,32,-3,ok,2,0,0.002,8,0.18,-1.29,11.12,50,0.164,8.36
8.4520,-0.11694,-0.04363,1.22348,0.00000,0.00000,0.00000,68,23,22,7,70,7,30,0,ok,2,0,0.002,8,0.18,-1.29,11.12,50,0.177,8.36
8.4747,-0.04014,-0.00000,1.21475,0.00000,0.00000,0.00000,68,24,23,6,71,8,29,2,ok,2,0,0.002,8,0.45,-0.76,7.91,51,0.000,8.36
8.4778,-0.04014,-0.00000,1.21475,0.00000,0.00000,0.00000,67,25,25,5,71,9,27,5,ok,2,0,0.002,8,0.45,-0.76,7.91,51,0.013,8.36
8.4905,-0.04014,-0.00000,1.21475,0.00000,0.00000,0.00000,66,28,26,5,71,10,27,7,ok,2,0,0.002,8,0.45,-0.76,7.91,51,0.026,8.36
8.5107,-0.04014,-0.00000,1.21475,0.00000,0.00000,0.00000,65,29,27,4,71,12,29,6,ok,2,0,0.002,8,0.45,-0.76,7.91,51,0.039,8.36
8.5154,-0.04014,-0.00000,1.21475,0.00000,0.00000,0.00000,67,28,28,4,71,13,29,6,ok,2,0,0.002,8,0.45,-0.76,7.91,51,0.051,8.36
8.5279,-0.04014,-0.00000,1.21475,0.00000,0.00000,0.00000,69,25,29,3,72,15,30,4,ok,2,0,0.002,8,0.45,-0.76,7.91,51,0.064,8.36
8.5507,-0.04014,-0.00000,1.21475,0.00000,0.00000,0.00000,72,21,31,3,71,16,32,3,ok,2,0,0.002,8,0.45,-0.76,7.91,51,0.076,8.36
8.5538,-0.04014,-0.00000,1.21475,0.00000,0.00000,0.00000,73,17,32,2,71,18,33,3,ok,2,0,0.002,8,0.45,-0.76,7.91,51,0.089,8.36
8.5664,-0.04014,-0.00000,1.21475,0.00000,0.00000,0.00000,73,15,33,2,72,19,34,2,ok,2,0,0.002,8,0.45,-0.76,7.91,51,0.102,8.36
8.5867,-0.04014,-0.00000,1.21475,0.00000,0.00000,0.00000,72,14,35,2,71,21,36,1,ok,2,0,0.002,8,0.45,-0.76,7.91,51,0.115,8.36
8.5915,-0.04014,-0.00000,1.21475,0.00000,0.00000,0.00000,72,11,36,2,71,22,38,1,ok,2,0,0.002,8,0.45,-0.76,7.91,51,0.127,8.36
8.6039,-0.04014,-0.00000,1.21475,0.00000,0.00000,0.00000,72,8,37,2,71,24,39,2,ok,2,0,0.002,8,0.45,-0.76,7.91,51,0.140,8.36
8.6267,-0.04014,-0.00000,1.21475,0.00000,0.00000,0.00000,71,5,39,2,71,25,41,2,ok,2,0,0.002,8,0.45,-0.76,7.91,51,0.152,8.36
8.6299,-0.04014,-0.00000,1.21475,0.00000,0.00000,0.00000,70,1,40,2,70,27,42,2,ok,2,0,0.002,9,0.45,-0.76,7.91,51,0.165,8.36
8.6425,-0.04014,-0.00000,1.21475,0.00000,0.00000,0.00000,69,-1,41,2,70,29,43,2,ok,2,0,0.002,9,0.45,-0.76,7.91,51,0.178,8.36
8.6627,-0.04014,-0.00000,1.21475,0.00000,0.00000,0.00000,68,-3,43,2,70,29,44,1,ok,2,0,0.002,9,0.45,-0.76,7.91,51,0.191,8.36
8.6677,0.10472,0.03142,1.28631,0.00000,0.00000,0.00000,66,-4,43,2,72,29,45,1,ok,2,0,0.002,9,-0.10,1.06,9.34,52,0.000,8.36
8.6799,0.10472,0.03142,1.28631,0.00000,0.00000,0.00000,65,-6,45,2,73,27,46,0,ok,2,0,0.002,9,-0.10,1.06,9.34,52,0.013,8.36
8.7027,0.10472,0.03142,1.28631,0.00000,0.00000,0.00000,64,-8,46,2,75,22,48,0,ok,2,0,0.002,9,-0.10,1.06,9.34,52,0.025,8.36
8.7058,0.10472,0.03142,1.28631,0.00000,0.00000,0.00000,61,-9,48,3,77,18,49,0,ok,2,0,0.002,9,-0.10,1.06,9.34,52,0.038,8.36
8.7185,0.10472,0.03142,1.28631,0.00000,0.00000,0.00000,59,-10,49,3,78,15,49,0,ok,2,0,0.002,9,-0.10,1.06,9.34,52,0.051,8.36
8.7387,0.10472,0.03142,1.28631,0.00000,0.00000,0.00000,57,-10,50,3,78,14,50,0,ok,2,0,0.002,9,-0.10,1.06,9.34,52,0.064,8.36
8.7436,0.10472,0.03142,1.28631,0.00000,0.00000,0.00000,55,-11,50,5,78,12,51,0,ok,2,0,0.002,9,-0.10,1.06,9.34,52,0.076,8.36
8.7561,0.10472,0.03142,1.28631,0.00000,0.00000,0.00000,52,-11,51,6,78,8,52,0,ok,2,0,0.002,9,-0.10,1.06,9.34,52,0.089,8.36
8.7787,0.10472,0.03142,1.28631,0.00000,0.00000,0.00000,50,-11,52,5,78,5,53,0,ok,2,0,0.002,9,-0.10,1.06,9.34,52,0.101,8.36
8.7818,0.10472,0.03142,1.28631,0.00000,0.00000,0.00000,47,-10,53,6,77,3,54,0,ok,2,0,0.002,9,-0.10,1.06,9.34,52,0.114,8.36
8.7945,0.10472,0.03142,1.28631,0.00000,0.00000,0.00000,45,-11,53,7,76,-1,55,1,ok,2,0,0.002,9,-0.10,1.06,9.34,52,0.127,8.36
8.8147,0.10472,0.03142,1.28631,0.00000,0.00000,0.00000,43,-11,55,7,76,-3,56,0,ok,2,0,0.002,9,-0.10,1.06,9.34,52,0.140,8.36
8.8197,0.10472,0.03142,1.28631,0.00000,0.00000,0.00000,40,-10,55,7,74,-4,57,1,ok,2,0,0.002,9,-0.10,1.06,9.34,52,0.152,8.36
8.8319,0.10472,0.03142,1.28631,0.00000,0.00000,0.00000,37,-9,56,8,73,-7,58,-1,ok,2,0,0.003,9,-0.10,1.06,9.34,52,0.165,8.36
8.8547,0.10472,0.03142,1.28631,0.00000,0.00000,0.00000,34,-8,57,8,70,-6,58,0,ok,2,0,0.003,9,-0.10,1.06,9.34,52,0.177,8.36
8.8578,0.10472,0.03142,1.28631,0.00000,0.00000,0.00000,31,-6,58,9,69,-9,58,0,ok,2,0,0.003,9,-0.10,1.06,9.34,52,0.190,8.36
8.8708,0.10472,0.03142,1.28631,0.00000,0.00000,0.00000,28,-4,58,9,68,-10,60,1,ok,2,0,0.003,9,-0.10,1.06,9.34,52,0.203,8.36
8.8907,0.13439,-0.04538,1.29329,0.00000,0.00000,0.00000,24,-2,59,11,66,-11,61,0,ok,2,0,0.003,9,-0.35,1.25,9.84,53,0.000,8.36
8.8955,0.13439,-0.04538,1.29329,0.00000,0.00000,0.00000,22,-1,61,11,63,-12,62,0,ok,2,0,0.003,9,-0.35,1.25,9.84,53,0.012,8.36
8.9081,0.13439,-0.04538,1.29329,0.00000,0.00000,0.00000,20,1,61,12,62,-13,64,-2,ok,2,0,0.003,9,-0.35,1.25,9.84,53,0.025,8.36
8.9307,0.13439,-0.04538,1.29329,0.00000,0.00000,0.00000,18,3,62,12,59,-14,64,-1,ok,0,0,0.003,9,-0.35,1.25,9.84,53,0.037,8.36
8.9338,0.13439,-0.04538,1.29329,0.00000,0.00000,0.00000,16,7,62,13,57,-14,65,-1,ok,0,0,0.003,9,-0.35,1.25,9.84,53,0.051,8.36
8.9465,0.13439,-0.04538,1.29329,0.00000,0.00000,0.00000,14,10,62,14,54,-13,66,-1,ok,0,0,0.003,9,-0.35,1.25,9.84,53,0.063,8.36
8.9667,0.13439,-0.04538,1.29329,0.00000,0.00000,0.00000,13,13,63,15,51,-12,66,-1,ok,0,0,0.003,9,-0.35,1.25,9.84,53,0.076,8.36
8.9715,0.13439,-0.04538,1.29329,0.00000,0.00000,0.00000,15,13,63,16,49,-12,67,0,ok,0,0,0.003,9,-0.35,1.25,9.84,53,0.088,8.36
8.9841,0.13439,-0.04538,1.29329,0.00000,0.00000,0.00000,14,13,63,17,46,-11,68,0,ok,0,0,0.003,9,-0.35,1.25,9.84,53,0.101,8.36
9.0067,0.13439,-0.04538,1.29329,0.00000,0.00000,0.00000,16,12,64,17,43,-11,69,1,ok,0,0,0.003,9,-0.35,1.25,9.84,53,0.113,8.36
9.0098,0.13439,-0.04538,1.29329,0.00000,0.00000,0.00000,17,12,64,18,40,-10,69,1,ok,0,0,0.003,9,-0.35,1.25,9.84,53,0.127,8.36
9.0225,0.13439,-0.04538,1.29329,0.00000,0.00000,0.00000,18,11,65,19,37,-9,70,2,ok,0,0,0.003,9,-0.35,1.25,9.84,53,0.139,8.36
9.0427,0.13439,-0.04538,1.29329,0.00000,0.00000,0.00000,20,10,65,20,34,-8,70,2,ok,0,0,0.003,9,-0.35,1.25,9.84,53,0.152,8.36
9.0475,0.13439,-0.04538,1.29329,0.00000,0.00000,0.00000,20,10,65,21,32,-6,71,3,ok,0,0,0.003,9,-0.35,1.25,9.84,53,0.164,8.36
9.0599,0.13439,-0.04538,1.29329,0.00000,0.00000,0.00000,23,9,65,22,31,-5,71,5,ok,0,0,0.003,9,-0.35,1.25,9.84,53,0.177,8.36
9.0827,0.13439,-0.04538,1.29329,0.00000,0.00000,0.00000,24,8,65,23,28,-2,72,5,ok,0,0,0.003,9,-0.35,1.25,9.84,53,0.189,8.36
9.0860,0.06109,0.06981,1.30202,0.00000,0.00000,0.00000,25,7,65,23,27,1,72,7,ok,0,0,0.003,9,0.21,1.30,9.80,54,0.000,8.36
9.0985,0.06109,0.06981,1.30202,0.00000,0.00000,0.00000,26,6,65,25,26,4,72,8,ok,0,0,0.003,9,0.21,1.30,9.80,54,0.013,8.36
9.1187,0.06109,0.06981,1.30202,0.00000,0.00000,0.00000,28,6,64,25,25,7,73,9,ok,0,0,0.003,9,0.21,1.30,9.80,54,0.025,8.36
9.1235,0.06109,0.06981,1.30202,0.00000,0.00000,0.00000,29,6,63,28,27,6,73,10,ok,0,0,0.003,9,0.21,1.30,9.80,54,0.038,8.36
9.1360,0.06109,0.06981,1.30202,0.00000,0.00000,0.00000,30,5,63,29,28,6,73,12,ok,0,0,0.003,9,0.21,1.30,9.80,54,0.050,8.36
9.1587,0.06109,0.06981,1.30202,0.00000,0.00000,0.00000,31,4,64,28,29,4,73,13,ok,0,0,0.003,9,0.21,1.30,9.80,54,0.063,8.36
9.1618,0.06109,0.06981,1.30202,0.00000,0.00000,0.00000,33,3,67,25,30,3,74,15,ok,0,0,0.003,9,0.21,1.30,9.80,54,0.076,8.36
9.1745,0.06109,0.06981,1.30202,0.00000,0.00000,0.00000,34,3,69,21,31,3,74,16,ok,0,0,0.003,9,0.21,1.30,9.80,54,0.089,8.36
9.1947,0.06109,0.06981,1.30202,0.00000,0.00000,0.00000,35,2,70,17,32,3,73,18,ok,0,0,0.003,9,0.21,1.30,9.80,54,0.101,8.36
9.1995,0.06109,0.06981,1.30202,0.00000,0.00000,0.00000,36,2,71,15,34,2,73,20,ok,0,0,0.003,9,0.21,1.30,9.80,54,0.114,8.36
9.2119,0.06109,0.06981,1.30202,0.00000,0.00000,0.00000,38,1,71,15,36,2,74,21,ok,0,0,0.003,9,0.21,1.30,9.80,54,0.126,8.36
9.2347,0.06109,0.06981,1.30202,0.00000,0.00000,0.00000,39,1,71,11,36,2,73,23,ok,0,0,0.003,9,0.21,1.30,9.80,54,0.139,8.36
9.2377,0.06109,0.06981,1.30202,0.00000,0.00000,0.00000,41,1,70,8,38,3,73,24,ok,0,0,0.003,9,0.21,1.30,9.80,54,0.152,8.36
9.2504,0.06109,0.06981,1.30202,0.00000,0.00000,0.00000,42,1,70,5,40,2,73,25,ok,0,0,0.003,9,0.21,1.30,9.80,54,0.165,8.36
9.2707,0.06109,0.06981,1.30202,0.00000,0.00000,0.00000,44,0,69,3,41,3,73,27,ok,0,0,0.003,9,0.21,1.30,9.80,54,0.177,8.36
9.2758,-0.04538,-0.03142,1.31947,0.00000,0.00000,0.00000,45,0,68,1,42,2,73,28,ok,0,0,0.003,9,-0.54,-2.05,10.55,55,0.000,8.36
9.2880,-0.04538,-0.03142,1.31947,0.00000,0.00000,0.00000,47,0,67,0,43,1,73,30,ok,0,0,0.003,9,-0.54,-2.05,10.55,55,0.013,8.36
9.3107,-0.04538,-0.03142,1.31947,0.00000,0.00000,0.00000,47,0,65,-1,44,0,74,30,ok,0,0,0.003,9,-0.54,-2.05,10.55,55,0.025,8.36
9.3138,-0.04538,-0.03142,1.31947,0.00000,0.00000,0.00000,48,0,64,-3,46,0,75,29,ok,0,0,0.003,9,-0.54,-2.05,10.55,55,0.038,8.36
9.3265,-0.04538,-0.03142,1.31947,0.00000,0.00000,0.00000,49,0,63,-5,47,0,77,27,ok,0,0,0.003,9,-0.54,-2.05,10.55,55,0.051,8.36
9.3467,-0.04538,-0.03142,1.31947,0.00000,0.00000,0.00000,51,1,61,-7,47,0,79,21,ok,0,0,0.003,9,-0.54,-2.05,10.55,55,0.064,8.36
9.3515,-0.04538,-0.03142,1.31947,0.00000,0.00000,0.00000,52,1,59,-8,48,0,80,17,ok,0,0,0.003,9,-0.54,-2.05,10.55,55,0.076,8.36
9.3641,-0.04538,-0.03142,1.31947,0.00000,0.00000,0.00000,52,1,56,-8,50,0,81,14,ok,0,0,0.003,9,-0.54,-2.05,10.55,55,0.089,8.36
9.3867,-0.04538,-0.03142,1.31947,0.00000,0.00000,0.00000,52,3,54,-9,51,0,81,14,ok,0,0,0.003,9,-0.54,-2.05,10.55,55,0.101,8.36
9.3899,-0.04538,-0.03142,1.31947,0.00000,0.00000,0.00000,53,4,51,-9,52,0,81,11,ok,0,0,0.003,9,-0.54,-2.05,10.55,55,0.114,8.36
9.4025,-0.04538,-0.03142,1.31947,0.00000,0.00000,0.00000,54,4,48,-9,53,0,81,7,ok,0,0,0.003,9,-0.54,-2.05,10.55,55,0.127,8.36
9.4228,-0.04538,-0.03142,1.31947,0.00000,0.00000,0.00000,55,5,46,-8,54,1,80,4,ok,0,0,0.003,9,-0.54,-2.05,10.55,55,0.140,8.36
9.4280,-0.04538,-0.03142,1.31947,0.00000,0.00000,0.00000,55,6,43,-9,55,1,80,2,ok,2,0,0.003,9,-0.54,-2.05,10.55,55,0.152,8.36
9.4401,-0.04538,-0.03142,1.31947,0.00000,0.00000,0.00000,57,6,41,-9,56,1,79,-1,ok,2,0,0.003,9,-0.54,-2.05,10.55,55,0.165,8.36
9.4627,-0.04538,-0.03142,1.31947,0.00000,0.00000,0.00000,57,6,38,-8,57,1,78,-3,ok,2,0,0.003,9,-0.54,-2.05,10.55,55,0.177,8.36
9.4658,-0.04538,-0.03142,1.31947,0.00000,0.00000,0.00000,59,7,35,-7,58,1,77,-5,ok,2,0,0.003,9,-0.54,-2.05,10.55,55,0.190,8.36
9.4788,-0.04538,-0.03142,1.31947,0.00000,0.00000,0.00000,59,8,32,-6,58,2,75,-7,ok,2,0,0.003,9,-0.54,-2.05,10.55,55,0.203,8.36
9.5027,-0.07505,-0.04887,1.38056,0.00000,0.00000,0.00000,60,8,29,-5,59,2,72,-7,ok,2,0,0.003,9,-0.32,-0.55,11.24,56,0.000,8.36
9.5060,-0.07505,-0.04887,1.38056,0.00000,0.00000,0.00000,61,9,26,-3,60,2,71,-9,ok,2,0,0.003,9,-0.32,-0.55,11.24,56,0.015,8.36
9.5185,-0.07505,-0.04887,1.38056,0.00000,0.00000,0.00000,62,10,21,-1,61,1,70,-10,ok,2,0,0.003,9,-0.32,-0.55,11.24,56,0.028,8.36
9.5387,-0.07505,-0.04887,1.38056,0.00000,0.00000,0.00000,63,10,20,1,63,-1,68,-12,ok,2,0,0.003,9,-0.32,-0.55,11.24,56,0.040,8.36
9.5435,-0.07505,-0.04887,1.38056,0.00000,0.00000,0.00000,64,11,18,2,64,-1,65,-13,ok,2,0,0.003,9,-0.32,-0.55,11.24,56,0.052,8.36
9.5560,-0.07505,-0.04887,1.38056,0.00000,0.00000,0.00000,64,12,16,4,64,0,64,-13,ok,2,0,0.003,9,-0.32,-0.55,11.24,56,0.065,8.36
9.5787,-0.07505,-0.04887,1.38056,0.00000,0.00000,0.00000,65,12,14,7,65,0,61,-14,ok,2,0,0.003,9,-0.32,-0.55,11.24,56,0.078,8.36
9.5818,-0.07505,-0.04887,1.38056,0.00000,0.00000,0.00000,64,14,12,11,66,1,59,-14,ok,2,0,0.003,9,-0.32,-0.55,11.24,56,0.091,8.36
9.5946,-0.07505,-0.04887,1.38056,0.00000,0.00000,0.00000,65,14,11,13,66,1,56,-12,ok,2,0,0.003,9,-0.32,-0.55,11.24,56,0.103,8.36
9.6147,-0.07505,-0.04887,1.38056,0.00000,0.00000,0.00000,66,15,12,13,67,1,53,-12,ok,2,0,0.003,9,-0.32,-0.55,11.24,56,0.116,8.36
9.6194,-0.07505,-0.04887,1.38056,0.00000,0.00000,0.00000,66,16,12,13,68,1,51,-12,ok,2,0,0.003,9,-0.32,-0.55,11.24,56,0.128,8.36
9.6320,-0.07505,-0.04887,1.38056,0.00000,0.00000,0.00000,67,17,14,12,68,1,48,-11,ok,2,0,0.003,9,-0.32,-0.55,11.24,56,0.141,8.36
9.6547,-0.07505,-0.04887,1.38056,0.00000,0.00000,0.00000,67,18,15,11,68,2,45,-10,ok,2,0,0.003,9,-0.32,-0.55,11.24,56,0.153,8.36
9.6579,-0.07505,-0.04887,1.38056,0.00000,0.00000,0.00000,67,18,15,11,68,3,42,-9,ok,2,0,0.003,10,-0.32,-0.55,11.24,56,0.167,8.36
9.6704,-0.07505,-0.04887,1.38056,0.00000,0.00000,0.00000,68,19,17,9,69,3,40,-8,ok,2,0,0.003,10,-0.32,-0.55,11.24,56,0.180,8.36
9.6907,0.06632,0.03316,1.39103,0.00000,0.00000,0.00000,68,20,17,9,69,5,36,-6,ok,2,0,0.003,10,-1.11,1.08,10.03,57,0.000,8.36
9.6958,0.06632,0.03316,1.39103,0.00000,0.00000,0.00000,68,21,20,8,70,6,35,-5,ok,2,0,0.003,10,-1.11,1.08,10.03,57,0.013,8.36
9.7081,0.06632,0.03316,1.39103,0.00000,0.00000,0.00000,68,22,21,7,70,7,32,-4,ok,2,0,0.003,10,-1.11,1.08,10.03,57,0.025,8.36
9.7347,0.06632,0.03316,1.39103,0.00000,0.00000,0.00000,68,23,22,7,70,8,30,-1,ok,2,0,0.003,10,-1.11,1.08,10.03,57,0.038,8.36
9.7378,0.06632,0.03316,1.39103,0.00000,0.00000,0.00000,68,24,23,6,70,9,29,2,ok,2,0,0.003,10,-1.11,1.08,10.03,57,0.055,8.36
9.7504,0.06632,0.03316,1.39103,0.00000,0.00000,0.00000,67,25,24,5,71,10,28,5,ok,2,0,0.003,10,-1.11,1.08,10.03,57,0.067,8.36
9.7707,0.06632,0.03316,1.39103,0.00000,0.00000,0.00000,67,28,25,5,71,11,27,7,ok,2,0,0.003,10,-1.11,1.08,10.03,57,0.080,8.36
9.7754,0.06632,0.03316,1.39103,0.00000,0.00000,0.00000,66,29,27,4,71,13,29,6,ok,2,0,0.003,10,-1.11,1.08,10.03,57,0.092,8.36
9.7881,0.06632,0.03316,1.39103,0.00000,0.00000,0.00000,68,28,28,4,71,14,30,6,ok,2,0,0.003,10,-1.11,1.08,10.03,57,0.105,8.36
9.8107,0.06632,0.03316,1.39103,0.00000,0.00000,0.00000,70,25,29,3,71,15,31,4,ok,2,0,0.003,10,-1.11,1.08,10.03,57,0.117,8.36
9.8138,0.06632,0.03316,1.39103,0.00000,0.00000,0.00000,72,21,30,3,70,16,32,3,ok,2,0,0.003,10,-1.11,1.08,10.03,57,0.131,8.36
9.8264,0.06632,0.03316,1.39103,0.00000,0.00000,0.00000,73,17,32,2,70,18,34,3,ok,2,0,0.003,10,-1.11,1.08,10.03,57,0.143,8.36
9.8467,0.06632,0.03316,1.39103,0.00000,0.00000,0.00000,73,15,33,2,71,19,35,2,ok,2,0,0.003,10,-1.11,1.08,10.03,57,0.156,8.36
9.8516,0.06632,0.03316,1.39103,0.00000,0.00000,0.00000,73,14,35,2,70,22,37,2,ok,2,0,0.003,10,-1.11,1.08,10.03,57,0.168,8.36
9.8640,0.06632,0.03316,1.39103,0.00000,0.00000,0.00000,73,11,36,2,70,23,39,2,ok,2,0,0.003,10,-1.11,1.08,10.03,57,0.181,8.36
9.8867,0.06632,0.03316,1.39103,0.00000,0.00000,0.00000,72,7,37,2,70,24,40,2,ok,2,0,0.003,10,-1.11,1.08,10.03,57,0.193,8.36
9.8901,0.05236,0.05411,1.48178,0.00000,0.00000,0.00000,72,5,39,2,70,26,41,2,ok,2,0,0.003,10,-0.31,0.51,10.03,58,0.000,8.36
9.9025,0.05236,0.05411,1.48178,0.00000,0.00000,0.00000,71,1,40,2,70,28,43,2,ok,2,0,0.003,10,-0.31,0.51,10.03,58,0.013,8.36
9.9227,0.05236,0.05411,1.48178,0.00000,0.00000,0.00000,70,-1,41,2,70,29,44,2,ok,2,0,0.003,10,-0.31,0.51,10.03,58,0.025,8.36
9.9276,0.05236,0.05411,1.48178,0.00000,0.00000,0.00000,68,-3,43,2,70,30,45,1,ok,2,0,0.003,10,-0.31,0.51,10.03,58,0.038,8.36
9.9400,0.05236,0.05411,1.48178,0.00000,0.00000,0.00000,66,-4,43,2,71,29,46,1,ok,2,0,0.003,10,-0.31,0.51,10.03,58,0.050,8.36
9.9627,0.05236,0.05411,1.48178,0.00000,0.00000,0.00000,65,-6,45,3,73,27,47,0,ok,2,0,0.003,10,-0.31,0.51,10.03,58,0.063,8.36
9.9659,0.05236,0.05411,1.48178,0.00000,0.00000,0.00000,64,-8,46,3,75,22,48,0,ok,2,0,0.003,10,-0.31,0.51,10.03,58,0.076,8.36
9.9784,0.05236,0.05411,1.48178,0.00000,0.00000,0.00000,62,-9,47,4,76,18,49,1,ok,2,0,0.003,10,-0.31,0.51,10.03,58,0.089,8.36
9.9987,0.05236,0.05411,1.48178,0.00000,0.00000,0.00000,60,-10,49,3,78,15,50,1,ok,2,0,0.003,10,-0.31,0.51,10.03,58,0.101,8.36
10.0034,0.05236,0.05411,1.48178,0.00000,0.00000,0.00000,57,-11,49,3,78,14,51,1,ok,2,0,0.003,10,-0.31,0.51,10.03,58,0.114,8.36
10.0160,0.05236,0.05411,1.48178,0.00000,0.00000,0.00000,55,-12,49,5,78,12,52,1,ok,2,0,0.003,10,-0.31,0.51,10.03,58,0.126,8.36
10.0427,0.05236,0.05411,1.48178,0.00000,0.00000,0.00000,52,-11,51,6,78,9,53,1,ok,2,0,0.003,10,-0.31,0.51,10.03,58,0.139,8.36
10.0458,0.05236,0.05411,1.48178,0.00000,0.00000,0.00000,50,-11,52,6,78,5,54,1,ok,2,0,0.003,10,-0.31,0.51,10.03,58,0.156,8.36
10.0584,0.05236,0.05411,1.48178,0.00000,0.00000,0.00000,48,-11,53,6,77,3,55,0,ok,2,0,0.003,10,-0.31,0.51,10.03,58,0.169,8.36
10.0787,0.05236,0.05411,1.48178,0.00000,0.00000,0.00000,45,-11,53,7,76,0,55,1,ok,2,0,0.003,10,-0.31,0.51,10.03,58,0.181,8.36
10.0834,0.05236,0.05411,1.48178,0.00000,0.00000,0.00000,43,-11,55,7,76,-2,56,0,ok,2,0,0.003,10,-0.31,0.51,10.03,58,0.194,8.36
10.0962,0.05236,0.05411,1.48178,0.00000,0.00000,0.00000,40,-10,55,7,75,-4,57,1,ok,2,0,0.003,10,-0.31,0.51,10.03,58,0.206,8.36
10.1187,0.07156,-0.06981,1.47829,0.00000,0.00000,0.00000,37,-9,56,8,73,-7,58,0,ok,2,0,0.003,10,-0.86,0.88,10.62,59,0.000,8.13
10.1219,0.07156,-0.06981,1.47829,0.00000,0.00000,0.00000,35,-8,57,9,70,-7,58,0,ok,2,0,0.003,10,-0.86,0.88,10.62,59,0.013,8.13
10.1344,0.07156,-0.06981,1.47829,0.00000,0.00000,0.00000,31,-6,58,9,69,-9,59,0,ok,2,0,0.003,10,-0.86,0.88,10.62,59,0.026,8.13
10.1547,0.07156,-0.06981,1.47829,0.00000,0.00000,0.00000,28,-4,58,10,68,-10,60,1,ok,2,0,0.003,10,-0.86,0.88,10.62,59,0.039,8.13
10.1594,0.07156,-0.06981,1.47829,0.00000,0.00000,0.00000,24,-2,60,11,65,-12,61,0,ok,2,0,0.003,10,-0.86,0.88,10.62,59,0.051,8.13
10.1720,0.07156,-0.06981,1.47829,0.00000,0.00000,0.00000,22,-1,61,11,63,-12,62,0,ok,2,0,0.003,10,-0.86,0.88,10.62,59,0.064,8.13
10.1947,0.07156,-0.06981,1.47829,0.00000,0.00000,0.00000,21,1,62,12,62,-13,64,-2,ok,2,0,0.003,10,-0.86,0.88,10.62,59,0.076,8.13
10.1978,0.07156,-0.06981,1.47829,0.00000,0.00000,0.00000,19,3,62,13,59,-14,64,-1,ok,2,0,0.003,10,-0.86,0.88,10.62,59,0.089,8.13
10.2105,0.07156,-0.06981,1.47829,0.00000,0.00000,0.00000,16,7,62,13,57,-14,65,-1,ok,0,0,0.003,10,-0.86,0.88,10.62,59,0.102,8.13
10.2307,0.07156,-0.06981,1.47829,0.00000,0.00000,0.00000,15,10,62,15,54,-13,66,0,ok,0,0,0.003,10,-0.86,0.88,10.62,59,0.115,8.13
10.2354,0.07156,-0.06981,1.47829,0.00000,0.00000,0.00000,13,13,63,15,51,-13,66,-1,ok,0,0,0.003,10,-0.86,0.88,10.62,59,0.127,8.13
10.2480,0.07156,-0.06981,1.47829,0.00000,0.00000,0.00000,15,13,63,16,49,-13,67,0,ok,0,0,0.003,10,-0.86,0.88,10.62,59,0.140,8.13
10.2707,0.07156,-0.06981,1.47829,0.00000,0.00000,0.00000,15,13,63,17,46,-11,68,0,ok,0,0,0.003,10,-0.86,0.88,10.62,59,0.152,8.13
10.2739,0.07156,-0.06981,1.47829,0.00000,0.00000,0.00000,16,12,64,18,43,-11,68,1,ok,0,0,0.003,10,-0.86,0.88,10.62,59,0.165,8.13
10.2866,0.07156,-0.06981,1.47829,0.00000,0.00000,0.00000,17,12,64,19,40,-10,69,1,ok,0,0,0.003,10,-0.86,0.88,10.62,59,0.178,8.13
10.3067,0.07156,-0.06981,1.47829,0.00000,0.00000,0.00000,18,11,65,19,37,-9,70,2,ok,0,0,0.003,10,-0.86,0.88,10.62,59,0.191,8.13
10.3117,0.04538,-0.07679,1.49051,0.00000,0.00000,0.00000,20,10,65,20,34,-8,70,2,ok,0,0,0.003,10,-1.13,0.70,9.25,60,0.000,8.13
10.3240,0.04538,-0.07679,1.49051,0.00000,0.00000,0.00000,20,10,65,21,32,-6,71,3,ok,0,0,0.003,10,-1.13,0.70,9.25,60,0.013,8.13
10.3467,0.04538,-0.07679,1.49051,0.00000,0.00000,0.00000,23,8,65,22,30,-5,71,5,ok,0,0,0.003,10,-1.13,0.70,9.25,60,0.025,8.13
10.3498,0.04538,-0.07679,1.49051,0.00000,0.00000,0.00000,24,8,65,23,28,-2,72,5,ok,0,0,0.003,10,-1.13,0.70,9.25,60,0.038,8.13
10.3624,0.04538,-0.07679,1.49051,0.00000,0.00000,0.00000,25,7,65,24,27,0,72,7,ok,0,0,0.003,10,-1.13,0.70,9.25,60,0.051,8.13
10.3827,0.04538,-0.07679,1.49051,0.00000,0.00000,0.00000,26,6,65,25,26,4,72,8,ok,0,0,0.003,10,-1.13,0.70,9.25,60,0.064,8.13
10.3874,0.04538,-0.07679,1.49051,0.00000,0.00000,0.00000,28,6,65,25,25,6,73,9,ok,0,0,0.003,10,-1.13,0.70,9.25,60,0.076,8.13
10.4001,0.04538,-0.07679,1.49051,0.00000,0.00000,0.00000,29,5,64,28,27,6,73,10,ok,0,0,0.003,10,-1.13,0.70,9.25,60,0.089,8.13
10.4227,0.04538,-0.07679,1.49051,0.00000,0.00000,0.00000,30,4,63,30,27,5,73,12,ok,0,0,0.003,10,-1.13,0.70,9.25,60,0.101,8.13
10.4259,0.04538,-0.07679,1.49051,0.00000,0.00000,0.00000,31,4,65,28,29,3,73,13,ok,0,0,0.003,10,-1.13,0.70,9.25,60,0.114,8.13
10.4384,0.04538,-0.07679,1.49051,0.00000,0.00000,0.00000,32,3,67,25,30,3,74,15,ok,0,0,0.003,10,-1.13,0.70,9.25,60,0.127,8.13
10.4587,0.04538,-0.07679,1.49051,0.00000,0.00000,0.00000,34,3,70,22,31,3,74,16,ok,0,0,0.003,10,-1.13,0.70,9.25,60,0.139,8.13
10.4634,0.04538,-0.07679,1.49051,0.00000,0.00000,0.00000,35,2,71,18,32,2,73,18,ok,0,0,0.003,10,-1.13,0.70,9.25,60,0.152,8.13
10.4761,0.04538,-0.07679,1.49051,0.00000,0.00000,0.00000,36,2,71,16,33,1,73,20,ok,0,0,0.003,10,-1.13,0.70,9.25,60,0.165,8.13
10.4987,0.04538,-0.07679,1.49051,0.00000,0.00000,0.00000,38,1,71,15,36,1,74,20,ok,0,0,0.003,10,-1.13,0.70,9.25,60,0.177,8.13
10.5021,0.04538,-0.07679,1.49051,0.00000,0.00000,0.00000,39,1,71,12,36,1,73,22,ok,0,0,0.003,10,-1.13,0.70,9.25,60,0.190,8.13
10.5147,-0.02967,-0.01920,1.48702,0.00000,0.00000,0.00000,41,1,71,9,38,2,73,24,ok,0,0,0.003,10,0.89,0.74,10.09,61,0.000,8.13
10.5347,-0.02967,-0.01920,1.48702,0.00000,0.00000,0.00000,42,1,70,6,39,1,73,25,ok,0,0,0.003,10,0.89,0.74,10.09,61,0.013,8.13
10.5394,-0.02967,-0.01920,1.48702,0.00000,0.00000,0.00000,44,0,69,4,40,2,73,27,ok,0,0,0.003,10,0.89,0.74,10.09,61,0.025,8.13
10.5520,-0.02967,-0.01920,1.48702,0.00000,0.00000,0.00000,45,0,68,2,41,1,72,28,ok,0,0,0.003,10,0.89,0.74,10.09,61,0.038,8.13
10.5747,-0.02967,-0.01920,1.48702,0.00000,0.00000,0.00000,47,0,67,0,43,1,72,29,ok,0,0,0.003,10,0.89,0.74,10.09,61,0.050,8.13
10.5778,-0.02967,-0.01920,1.48702,0.00000,0.00000,0.00000,47,0,65,-1,44,0,73,29,ok,0,0,0.003,10,0.89,0.74,10.09,61,0.063,8.13
10.5904,-0.02967,-0.01920,1.48702,0.00000,0.00000,0.00000,48,0,64,-3,45,0,74,29,ok,0,0,0.003,10,0.89,0.74,10.09,61,0.076,8.13
10.6107,-0.02967,-0.01920,1.48702,0.00000,0.00000,0.00000,49,0,63,-5,46,0,76,26,ok,0,0,0.003,10,0.89,0.74,10.09,61,0.089,8.13
10.6156,-0.02967,-0.01920,1.48702,0.00000,0.00000,0.00000,51,1,61,-6,47,0,78,21,ok,0,0,0.003,10,0.89,0.74,10.09,61,0.101,8.13
10.6280,-0.02967,-0.01920,1.48702,0.00000,0.00000,0.00000,52,1,58,-7,48,0,79,17,ok,0,0,0.003,10,0.89,0.74,10.09,61,0.114,8.13
10.6507,-0.02967,-0.01920,1.48702,0.00000,0.00000,0.00000,52,1,56,-8,49,0,81,14,ok,0,0,0.003,10,0.89,0.74,10.09,61,0.126,8.13
10.6539,-0.02967,-0.01920,1.48702,0.00000,0.00000,0.00000,52,3,54,-9,51,0,81,14,ok,0,0,0.003,10,0.89,0.74,10.09,61,0.139,8.13
10.6667,-0.02967,-0.01920,1.48702,0.00000,0.00000,0.00000,53,4,51,-9,52,0,81,11,ok,0,0,0.003,10,0.89,0.74,10.09,61,0.152,8.13
10.6867,-0.02967,-0.01920,1.48702,0.00000,0.00000,0.00000,54,4,48,-9,53,0,81,7,ok,2,0,0.003,11,0.89,0.74,10.09,61,0.165,8.13
10.6915,-0.02967,-0.01920,1.48702,0.00000,0.00000,0.00000,55,5,46,-8,54,1,80,4,ok,2,0,0.003,11,0.89,0.74,10.09,61,0.177,8.13
10.7040,-0.02967,-0.01920,1.48702,0.00000,0.00000,0.00000,55,6,43,-8,55,1,80,3,ok,2,0,0.003,11,0.89,0.74,10.09,61,0.190,8.13
10.7267,-0.11868,0.02094,1.56382,0.00000,0.00000,0.00000,57,6,41,-9,56,1,79,-1,ok,2,0,0.003,11,-0.06,-1.60,10.01,62,0.000,8.13
10.7301,-0.11868,0.02094,1.56382,0.00000,0.00000,0.00000,57,6,38,-8,57,1,78,-3,ok,2,0,0.003,11,-0.06,-1.60,10.01,62,0.013,8.13
10.7424,-0.11868,0.02094,1.56382,0.00000,0.00000,0.00000,59,7,35,-7,57,1,77,-4,ok,2,0,0.003,11,-0.06,-1.60,10.01,62,0.026,8.13
10.7627,-0.11868,0.02094,1.56382,0.00000,0.00000,0.00000,59,8,32,-5,58,2,75,-6,ok,2,0,0.003,11,-0.06,-1.60,10.01,62,0.038,8.13
10.7674,-0.11868,0.02094,1.56382,0.00000,0.00000,0.00000,60,8,28,-4,59,2,72,-6,ok,2,0,0.003,11,-0.06,-1.60,10.01,62,0.051,8.13
10.7800,-0.11868,0.02094,1.56382,0.00000,0.00000,0.00000,61,9,25,-3,60,2,71,-8,ok,2,0,0.003,11,-0.06,-1.60,10.01,62,0.063,8.13
10.8027,-0.11868,0.02094,1.56382,0.00000,0.00000,0.00000,63,10,21,-1,61,1,70,-10,ok,2,0,0.003,11,-0.06,-1.60,10.01,62,0.076,8.13
10.8058,-0.11868,0.02094,1.56382,0.00000,0.00000,0.00000,63,10,19,1,63,-1,68,-11,ok,2,0,0.003,11,-0.06,-1.60,10.01,62,0.089,8.13
10.8185,-0.11868,0.02094,1.56382,0.00000,0.00000,0.00000,64,11,18,2,64,0,66,-12,ok,2,0,0.003,11,-0.06,-1.60,10.01,62,0.102,8.13
10.8387,-0.11868,0.02094,1.56382,0.00000,0.00000,0.00000,64,11,16,4,65,1,64,-13,ok,2,0,0.003,11,-0.06,-1.60,10.01,62,0.114,8.13
10.8434,-0.11868,0.02094,1.56382,0.00000,0.00000,0.00000,64,12,14,7,65,1,61,-13,ok,2,0,0.003,11,-0.06,-1.60,10.01,62,0.127,8.13
10.8560,-0.11868,0.02094,1.56382,0.00000,0.00000,0.00000,64,13,12,11,66,1,59,-14,ok,2,0,0.003,11,-0.06,-1.60,10.01,62,0.139,8.13
10.8787,-0.11868,0.02094,1.56382,0.00000,0.00000,0.00000,65,14,10,13,67,1,56,-12,ok,2,0,0.003,11,-0.06,-1.60,10.01,62,0.152,8.13
10.8819,-0.11868,0.02094,1.56382,0.00000,0.00000,0.00000,65,15,12,13,67,1,53,-12,ok,2,0,0.003,11,-0.06,-1.60,10.01,62,0.165,8.13
10.8944,-0.11868,0.02094,1.56382,0.00000,0.00000,0.00000,66,16,12,13,68,2,51,-11,ok,2,0,0.003,11,-0.06,-1.60,10.01,62,0.178,8.13
10.9147,-0.11868,0.02094,1.56382,0.00000,0.00000,0.00000,67,16,13,12,68,2,48,-10,ok,2,0,0.003,11,-0.06,-1.60,10.01,62,0.190,8.13
10.9197,-0.05061,-0.02618,1.61967,0.00000,0.00000,0.00000,67,17,15,11,69,3,45,-10,ok,2,0,0.003,11,-0.89,0.51,10.00,63,0.000,8.13
10.9321,-0.05061,-0.02618,1.61967,0.00000,0.00000,0.00000,67,18,15,11,69,3,42,-9,ok,2,0,0.003,11,-0.89,0.51,10.00,63,0.013,8.13
10.9547,-0.05061,-0.02618,1.61967,0.00000,0.00000,0.00000,68,18,17,9,69,4,40,-8,ok,2,0,0.003,11,-0.89,0.51,10.00,63,0.025,8.13
10.9579,-0.05061,-0.02618,1.61967,0.00000,0.00000,0.00000,68,20,18,9,69,5,36,-6,ok,2,0,0.003,11,-0.89,0.51,10.00,63,0.038,8.13
10.9703,-0.05061,-0.02618,1.61967,0.00000,0.00000,0.00000,69,21,20,8,70,5,35,-5,ok,2,0,0.003,11,-0.89,0.51,10.00,63,0.051,8.13
10.9907,-0.05061,-0.02618,1.61967,0.00000,0.00000,0.00000,69,22,21,7,70,7,32,-3,ok,2,0,0.003,11,-0.89,0.51,10.00,63,0.063,8.13
10.9954,-0.05061,-0.02618,1.61967,0.00000,0.00000,0.00000,68,23,22,7,70,8,30,0,ok,2,0,0.003,11,-0.89,0.51,10.00,63,0.076,8.13
11.0080,-0.05061,-0.02618,1.61967,0.00000,0.00000,0.00000,68,24,23,6,71,8,29,2,ok,2,0,0.003,11,-0.89,0.51,10.00,63,0.088,8.13
11.0307,-0.05061,-0.02618,1.61967,0.00000,0.00000,0.00000,68,25,24,6,71,9,28,6,ok,2,0,0.003,11,-0.89,0.51,10.00,63,0.101,8.13
11.0338,-0.05061,-0.02618,1.61967,0.00000,0.00000,0.00000,67,28,26,5,71,10,27,8,ok,2,0,0.003,11,-0.89,0.51,10.00,63,0.114,8.13
11.0463,-0.05061,-0.02618,1.61967,0.00000,0.00000,0.00000,66,29,27,4,71,12,29,7,ok,2,0,0.003,11,-0.89,0.51,10.00,63,0.127,8.13
11.0667,-0.05061,-0.02618,1.61967,0.00000,0.00000,0.00000,68,28,28,4,71,13,29,6,ok,2,0,0.003,11,-0.89,0.51,10.00,63,0.139,8.13
11.0716,-0.05061,-0.02618,1.61967,0.00000,0.00000,0.00000,70,25,29,3,71,15,31,4,ok,2,0,0.003,11,-0.89,0.51,10.00,63,0.152,8.13
11.0840,-0.05061,-0.02618,1.61967,0.00000,0.00000,0.00000,72,21,31,3,71,16,32,3,ok,2,0,0.003,11,-0.89,0.51,10.00,63,0.164,8.13
11.1067,-0.05061,-0.02618,1.61967,0.00000,0.00000,0.00000,73,17,32,3,70,18,33,3,ok,2,0,0.003,11,-0.89,0.51,10.00,63,0.177,8.13
11.1100,-0.05061,-0.02618,1.61967,0.00000,0.00000,0.00000,74,15,33,3,71,19,35,2,ok,2,0,0.003,11,-0.89,0.51,10.00,63,0.190,8.13
11.1227,0.06109,0.02269,1.71217,0.00000,0.00000,0.00000,73,14,35,2,70,21,36,2,ok,2,0,0.003,11,2.34,-0.29,10.18,64,0.000,8.13
11.1427,0.06109,0.02269,1.71217,0.00000,0.00000,0.00000,73,11,36,2,70,23,38,1,ok,2,0,0.003,11,2.34,-0.29,10.18,64,0.013,8.13
11.1476,0.06109,0.02269,1.71217,0.00000,0.00000,0.00000,72,8,37,2,70,24,39,2,ok,2,0,0.003,11,2.34,-0.29,10.18,64,0.025,8.13
11.1600,0.06109,0.02269,1.71217,0.00000,0.00000,0.00000,72,5,39,2,71,26,41,1,ok,2,0,0.003,11,2.34,-0.29,10.18,64,0.038,8.13
11.1827,0.06109,0.02269,1.71217,0.00000,0.00000,0.00000,71,2,40,2,70,28,42,2,ok,2,0,0.003,11,2.34,-0.29,10.18,64,0.050,8.13
11.1858,0.06109,0.02269,1.71217,0.00000,0.00000,0.00000,70,0,41,2,70,29,43,2,ok,2,0,0.003,11,2.34,-0.29,10.18,64,0.063,8.13
11.1986,0.06109,0.02269,1.71217,0.00000,0.00000,0.00000,68,-3,43,2,70,29,44,1,ok,2,0,0.003,11,2.34,-0.29,10.18,64,0.076,8.13
11.2187,0.06109,0.02269,1.71217,0.00000,0.00000,0.00000,66,-4,43,2,71,29,45,1,ok,2,0,0.003,11,2.34,-0.29,10.18,64,0.089,8.13
11.2235,0.06109,0.02269,1.71217,0.00000,0.00000,0.00000,65,-6,45,3,73,27,47,0,ok,2,0,0.003,11,2.34,-0.29,10.18,64,0.101,8.13
11.2360,0.06109,0.02269,1.71217,0.00000,0.00000,0.00000,65,-8,46,3,75,22,48,0,ok,2,0,0.003,11,2.34,-0.29,10.18,64,0.114,8.13
11.2587,0.06109,0.02269,1.71217,0.00000,0.00000,0.00000,62,-9,47,4,76,17,49,1,ok,2,0,0.003,11,2.34,-0.29,10.18,64,0.126,8.13
11.2618,0.06109,0.02269,1.71217,0.00000,0.00000,0.00000,60,-10,48,3,78,15,50,1,ok,2,0,0.003,11,2.34,-0.29,10.18,64,0.139,8.13
11.2745,0.06109,0.02269,1.71217,0.00000,0.00000,0.00000,58,-10,49,3,78,14,51,1,ok,2,0,0.003,11,2.34,-0.29,10.18,64,0.152,8.13
11.2947,0.06109,0.02269,1.71217,0.00000,0.00000,0.00000,55,-11,49,5,78,12,52,1,ok,2,0,0.003,11,2.34,-0.29,10.18,64,0.165,8.13
11.2994,0.06109,0.02269,1.71217,0.00000,0.00000,0.00000,53,-11,51,6,78,8,53,1,ok,2,0,0.003,11,2.34,-0.29,10.18,64,0.177,8.13
11.3123,0.10123,0.01920,1.71042,0.00000,0.00000,0.00000,50,-11,52,6,78,5,54,1,ok,2,0,0.003,11,-0.73,0.79,10.05,65,0.000,8.13
11.3347,0.10123,0.01920,1.71042,0.00000,0.00000,0.00000,48,-10,53,6,77,3,55,0,ok,2,0,0.003,11,-0.73,0.79,10.05,65,0.013,8.13
11.3378,0.10123,0.01920,1.71042,0.00000,0.00000,0.00000,45,-11,53,7,76,0,55,1,ok,2,0,0.003,11,-0.73,0.79,10.05,65,0.026,8.13
11.3503,0.10123,0.01920,1.71042,0.00000,0.00000,0.00000,43,-11,55,8,76,-2,56,0,ok,2,0,0.003,11,-0.73,0.79,10.05,65,0.039,8.13
11.3707,0.10123,0.01920,1.71042,0.00000,0.00000,0.00000,41,-10,55,7,74,-4,57,1,ok,2,0,0.003,11,-0.73,0.79,10.05,65,0.051,8.13
11.3755,0.10123,0.01920,1.71042,0.00000,0.00000,0.00000,37,-9,56,8,73,-7,58,0,ok,2,0,0.003,11,-0.73,0.79,10.05,65,0.064,8.13
11.3880,0.10123,0.01920,1.71042,0.00000,0.00000,0.00000,35,-7,57,9,70,-6,58,0,ok,2,0,0.003,11,-0.73,0.79,10.05,65,0.076,8.13
11.4107,0.10123,0.01920,1.71042,0.00000,0.00000,0.00000,31,-6,57,9,69,-8,59,1,ok,2,0,0.003,11,-0.73,0.79,10.05,65,0.089,8.13
11.4138,0.10123,0.01920,1.71042,0.00000,0.00000,0.00000,29,-4,58,9,68,-10,60,1,ok,2,0,0.003,11,-0.73,0.79,10.05,65,0.102,8.13
11.4264,0.10123,0.01920,1.71042,0.00000,0.00000,0.00000,25,-1,59,11,65,-11,61,1,ok,2,0,0.003,11,-0.73,0.79,10.05,65,0.115,8.13
11.4467,0.10123,0.01920,1.71042,0.00000,0.00000,0.00000,23,-1,60,11,63,-12,62,0,ok,2,0,0.003,11,-0.73,0.79,10.05,65,0.127,8.13
11.4515,0.10123,0.01920,1.71042,0.00000,0.00000,0.00000,21,1,61,12,61,-12,64,-2,ok,0,0,0.003,11,-0.73,0.79,10.05,65,0.140,8.13
11.4640,0.10123,0.01920,1.71042,0.00000,0.00000,0.00000,19,3,61,12,59,-13,64,-1,ok,0,0,0.003,11,-0.73,0.79,10.05,65,0.152,8.13
11.4867,0.10123,0.01920,1.71042,0.00000,0.00000,0.00000,17,7,62,13,57,-13,65,-1,ok,0,0,0.003,11,-0.73,0.79,10.05,65,0.165,8.13
11.4899,0.10123,0.01920,1.71042,0.00000,0.00000,0.00000,15,10,62,14,54,-13,66,0,ok,0,0,0.003,11,-0.73,0.79,10.05,65,0.178,8.13
11.5024,0.10123,0.01920,1.71042,0.00000,0.00000,0.00000,13,13,63,15,51,-12,66,-1,ok,0,0,0.003,11,-0.73,0.79,10.05,65,0.191,8.13
11.5267,0.04363,-0.04014,1.74533,0.00000,0.00000,0.00000,15,13,63,16,49,-12,67,0,ok,0,0,0.003,11,-0.32,0.39,10.16,66,0.000,8.13
11.5300,0.04363,-0.04014,1.74533,0.00000,0.00000,0.00000,15,13,63,17,46,-11,68,0,ok,0,0,0.003,11,-0.32,0.39,10.16,66,0.015,8.13
11.5425,0.04363,-0.04014,1.74533,0.00000,0.00000,0.00000,17,12,64,17,44,-11,69,1,ok,0,0,0.003,11,-0.32,0.39,10.16,66,0.028,8.13
11.5627,0.04363,-0.04014,1.74533,0.00000,0.00000,0.00000,18,12,64,19,40,-9,70,1,ok,0,0,0.003,11,-0.32,0.39,10.16,66,0.040,8.13
11.5675,0.04363,-0.04014,1.74533,0.00000,0.00000,0.00000,18,11,65,19,38,-9,70,2,ok,0,0,0.003,11,-0.32,0.39,10.16,66,0.053,8.13
11.5800,0.04363,-0.04014,1.74533,0.00000,0.00000,0.00000,20,10,65,20,34,-7,70,3,ok,0,0,0.003,11,-0.32,0.39,10.16,66,0.065,8.13
11.6027,0.04363,-0.04014,1.74533,0.00000,0.00000,0.00000,21,10,65,21,33,-6,71,4,ok,0,0,0.003,11,-0.32,0.39,10.16,66,0.078,8.13
11.6058,0.04363,-0.04014,1.74533,0.00000,0.00000,0.00000,23,8,65,22,31,-5,72,5,ok,0,0,0.003,11,-0.32,0.39,10.16,66,0.091,8.13
11.6186,0.04363,-0.04014,1.74533,0.00000,0.00000,0.00000,24,8,65,23,28,-1,73,5,ok,0,0,0.003,11,-0.32,0.39,10.16,66,0.104,8.13
11.6387,0.04363,-0.04014,1.74533,0.00000,0.00000,0.00000,26,7,65,23,27,1,72,7,ok,0,0,0.003,11,-0.32,0.39,10.16,66,0.116,8.13
11.6437,0.04363,-0.04014,1.74533,0.00000,0.00000,0.00000,27,6,65,25,26,4,72,8,ok,0,0,0.003,11,-0.32,0.39,10.16,66,0.129,8.13
11.6560,0.04363,-0.04014,1.74533,0.00000,0.00000,0.00000,28,6,64,25,25,7,73,9,ok,0,0,0.003,11,-0.32,0.39,10.16,66,0.141,8.13
11.6787,0.04363,-0.04014,1.74533,0.00000,0.00000,0.00000,29,6,64,28,27,6,73,10,ok,0,0,0.003,11,-0.32,0.39,10.16,66,0.154,8.13
11.6819,0.04363,-0.04014,1.74533,0.00000,0.00000,0.00000,30,5,63,29,28,6,73,12,ok,0,0,0.003,11,-0.32,0.39,10.16,66,0.167,8.13
11.6945,0.04363,-0.04014,1.74533,0.00000,0.00000,0.00000,32,4,64,28,29,4,73,13,ok,0,0,0.003,12,-0.32,0.39,10.16,66,0.180,8.13
11.7147,0.04363,-0.04014,1.74533,0.00000,0.00000,0.00000,33,3,67,25,30,3,74,15,ok,0,0,0.003,12,-0.32,0.39,10.16,66,0.192,8.13
11.7198,-0.02793,0.03142,1.77849,0.00000,0.00000,0.00000,34,3,69,21,31,3,74,16,ok,0,0,0.003,12,0.81,-0.21,10.22,67,0.000,8.13
11.7322,-0.02793,0.03142,1.77849,0.00000,0.00000,0.00000,36,2,70,18,32,3,73,18,ok,0,0,0.003,12,0.81,-0.21,10.22,67,0.013,8.13
11.7547,-0.02793,0.03142,1.77849,0.00000,0.00000,0.00000,37,2,71,16,33,1,73,20,ok,0,0,0.003,12,0.81,-0.21,10.22,67,0.025,8.13
11.7578,-0.02793,0.03142,1.77849,0.00000,0.00000,0.00000,39,1,70,15,36,2,74,21,ok,0,0,0.003,12,0.81,-0.21,10.22,67,0.038,8.13
11.7705,-0.02793,0.03142,1.77849,0.00000,0.00000,0.00000,40,1,70,11,36,2,73,23,ok,0,0,0.003,12,0.81,-0.21,10.22,67,0.051,8.13
11.7907,-0.02793,0.03142,1.77849,0.00000,0.00000,0.00000,42,1,70,9,38,2,73,24,ok,0,0,0.003,12,0.81,-0.21,10.22,67,0.064,8.13
11.7956,-0.02793,0.03142,1.77849,0.00000,0.00000,0.00000,43,1,69,6,39,2,73,25,ok,0,0,0.003,12,0.81,-0.21,10.22,67,0.076,8.13
11.8081,-0.02793,0.03142,1.77849,0.00000,0.00000,0.00000,44,1,69,3,40,2,73,27,ok,0,0,0.003,12,0.81,-0.21,10.22,67,0.089,8.13
11.8307,-0.02793,0.03142,1.77849,0.00000,0.00000,0.00000,45,0,68,1,42,1,73,28,ok,0,0,0.003,12,0.81,-0.21,10.22,67,0.101,8.13
11.8338,-0.02793,0.03142,1.77849,0.00000,0.00000,0.00000,47,0,67,0,43,1,72,29,ok,0,0,0.003,12,0.81,-0.21,10.22,67,0.114,8.13
11.8466,-0.02793,0.03142,1.77849,0.00000,0.00000,0.00000,47,0,65,-1,44,1,73,29,ok,0,0,0.003,12,0.81,-0.21,10.22,67,0.127,8.13
11.8667,-0.02793,0.03142,1.77849,0.00000,0.00000,0.00000,49,1,64,-4,46,1,74,29,ok,0,0,0.003,12,0.81,-0.21,10.22,67,0.140,8.13
11.8716,-0.02793,0.03142,1.77849,0.00000,0.00000,0.00000,50,1,63,-6,47,1,76,27,ok,0,0,0.003,12,0.81,-0.21,10.22,67,0.152,8.13
11.8840,-0.02793,0.03142,1.77849,0.00000,0.00000,0.00000,51,2,60,-7,48,1,78,21,ok,0,0,0.003,12,0.81,-0.21,10.22,67,0.164,8.13
11.9067,-0.02793,0.03142,1.77849,0.00000,0.00000,0.00000,52,2,58,-8,48,1,79,18,ok,0,0,0.003,12,0.81,-0.21,10.22,67,0.177,8.13
11.9100,-0.02793,0.03142,1.77849,0.00000,0.00000,0.00000,52,2,56,-8,50,1,81,14,ok,0,0,0.003,12,0.81,-0.21,10.22,67,0.190,8.13
11.9235,-0.05061,-0.00698,1.85878,0.00000,0.00000,0.00000,53,4,53,-9,51,1,81,14,ok,0,0,0.003,12,-0.82,-0.10,10.55,68,0.000,8.13
11.9427,-0.05061,-0.00698,1.85878,0.00000,0.00000,0.00000,54,5,51,-9,52,1,81,11,ok,0,0,0.003,12,-0.82,-0.10,10.55,68,0.013,8.13
11.9476,-0.05061,-0.00698,1.85878,0.00000,0.00000,0.00000,54,4,48,-9,53,1,81,8,ok,0,0,0.003,12,-0.82,-0.10,10.55,68,0.025,8.13
11.9601,-0.05061,-0.00698,1.85878,0.00000,0.00000,0.00000,55,5,45,-8,54,2,81,4,ok,2,0,0.003,12,-0.82,-0.10,10.55,68,0.037,8.13
11.9827,-0.05061,-0.00698,1.85878,0.00000,0.00000,0.00000,55,6,43,-8,55,1,80,3,ok,2,0,0.003,12,-0.82,-0.10,10.55,68,0.050,8.13
11.9858,-0.05061,-0.00698,1.85878,0.00000,0.00000,0.00000,58,6,40,-9,56,2,79,-1,ok,2,0,0.003,12,-0.82,-0.10,10.55,68,0.063,8.13
11.9985,-0.05061,-0.00698,1.85878,0.00000,0.00000,0.00000,58,6,38,-8,57,1,79,-3,ok,2,0,0.003,12,-0.82,-0.10,10.55,68,0.076,8.13
12.0187,-0.05061,-0.00698,1.85878,0.00000,0.00000,0.00000,59,7,35,-7,57,2,77,-4,ok,2,0,0.003,12,-0.82,-0.10,10.55,68,0.088,8.13
12.0235,-0.05061,-0.00698,1.85878,0.00000,0.00000,0.00000,59,8,32,-5,58,2,75,-6,ok,2,0,0.003,12,-0.82,-0.10,10.55,68,0.101,8.13
12.0360,-0.05061,-0.00698,1.85878,0.00000,0.00000,0.00000,60,8,28,-5,59,2,73,-6,ok,2,0,0.003,12,-0.82,-0.10,10.55,68,0.113,8.13
12.0587,-0.05061,-0.00698,1.85878,0.00000,0.00000,0.00000,61,9,25,-3,60,2,71,-8,ok,2,0,0.003,12,-0.82,-0.10,10.55,68,0.126,8.13
12.0618,-0.05061,-0.00698,1.85878,0.00000,0.00000,0.00000,63,10,21,-1,61,1,70,-10,ok,2,0,0.003,12,-0.82,-0.10,10.55,68,0.139,8.13
12.0745,-0.05061,-0.00698,1.85878,0.00000,0.00000,0.00000,63,10,19,1,63,-1,68,-11,ok,2,0,0.003,12,-0.82,-0.10,10.55,68,0.152,8.13
12.0947,-0.05061,-0.00698,1.85878,0.00000,0.00000,0.00000,64,11,18,2,64,0,66,-12,ok,2,0,0.003,12,-0.82,-0.10,10.55,68,0.165,8.13
12.0996,-0.05061,-0.00698,1.85878,0.00000,0.00000,0.00000,64,12,16,4,64,1,64,-13,ok,2,0,0.003,12,-0.82,-0.10,10.55,68,0.177,8.13
12.1120,-0.05061,-0.00698,1.85878,0.00000,0.00000,0.00000,65,12,14,7,65,1,61,-13,ok,2,0,0.003,12,-0.82,-0.10,10.55,68,0.190,8.13
12.1347,-0.05236,-0.01222,1.87797,0.00000,0.00000,0.00000,65,14,12,11,65,1,59,-14,ok,2,0,0.003,12,0.38,0.61,10.97,69,0.000,8.13
12.1380,-0.05236,-0.01222,1.87797,0.00000,0.00000,0.00000,66,14,10,13,66,1,56,-12,ok,2,0,0.003,12,0.38,0.61,10.97,69,0.013,8.13
12.1505,-0.05236,-0.01222,1.87797,0.00000,0.00000,0.00000,66,15,12,13,66,1,54,-12,ok,2,0,0.003,12,0.38,0.61,10.97,69,0.026,8.13
12.1707,-0.05236,-0.01222,1.87797,0.00000,0.00000,0.00000,66,16,12,13,67,2,51,-11,ok,2,0,0.003,12,0.38,0.61,10.97,69,0.038,8.13
12.1755,-0.05236,-0.01222,1.87797,0.00000,0.00000,0.00000,67,17,13,12,68,2,48,-11,ok,2,0,0.003,12,0.38,0.61,10.97,69,0.051,8.13
12.1879,-0.05236,-0.01222,1.87797,0.00000,0.00000,0.00000,67,18,15,11,68,3,46,-10,ok,2,0,0.003,12,0.38,0.61,10.97,69,0.063,8.13
12.2107,-0.05236,-0.01222,1.87797,0.00000,0.00000,0.00000,68,18,15,11,68,4,42,-9,ok,2,0,0.003,12,0.38,0.61,10.97,69,0.076,8.13
