# run_gait log  cmd_fwd=0.100 hz=80.0 fw_balance=off policy_yaw_sign=-1
t,roll,pitch,yaw,gx,gy,gz,j0,j1,j2,j3,j4,j5,j6,j7,guard_state,hottest_j,hottest_tier,hottest_frac,duty_s,ax,ay,az,imu_n,imu_age_s,volt
0.0348,-0.02793,0.00873,0.00000,0.00000,0.00000,0.00000,21,-1,59,7,66,-12,61,0,ok,4,0,0.000,0,0.11,-0.24,10.00,9,0.021,nan
0.0383,-0.02793,0.00873,0.00000,0.00000,0.00000,0.00000,19,0,61,8,64,-12,63,-1,ok,4,0,0.000,0,0.11,-0.24,10.00,9,0.047,nan
0.0512,-0.02793,0.00873,0.00000,0.00000,0.00000,0.00000,17,2,61,9,61,-13,64,0,ok,4,0,0.000,0,0.11,-0.24,10.00,9,0.059,8.28
0.0708,-0.02793,0.00873,0.00000,0.00000,0.00000,0.00000,15,5,62,9,59,-13,64,0,ok,4,0,0.000,0,0.11,-0.24,10.00,9,0.072,8.28
0.0758,-0.02793,0.00873,0.00000,0.00000,0.00000,0.00000,13,9,62,11,56,-13,65,1,ok,4,0,0.000,0,0.11,-0.24,10.00,9,0.084,8.28
0.0881,-0.02793,0.00873,0.00000,0.00000,0.00000,0.00000,11,11,63,11,53,-12,65,1,ok,4,0,0.000,0,0.11,-0.24,10.00,9,0.097,8.28
0.1108,-0.02793,0.00873,0.00000,0.00000,0.00000,0.00000,13,12,63,12,51,-12,66,2,ok,4,0,0.000,0,0.11,-0.24,10.00,9,0.109,8.28
0.1141,-0.02793,0.00873,0.00000,0.00000,0.00000,0.00000,13,11,63,13,48,-12,66,2,ok,4,0,0.000,0,0.11,-0.24,10.00,9,0.123,8.28
0.1268,-0.02793,0.00873,0.00000,0.00000,0.00000,0.00000,14,10,64,14,45,-12,66,3,ok,4,0,0.000,0,0.11,-0.24,10.00,9,0.135,8.28
0.1468,-0.01920,-0.02269,0.00000,0.00000,0.00000,0.00000,15,9,64,15,42,-11,67,3,ok,4,0,0.000,0,-1.16,0.23,10.43,10,0.000,8.28
0.1516,-0.01920,-0.02269,0.00000,0.00000,0.00000,0.00000,16,9,65,15,39,-10,68,4,ok,4,0,0.000,0,-1.16,0.23,10.43,10,0.013,8.28
0.1641,-0.01920,-0.02269,0.00000,0.00000,0.00000,0.00000,18,8,65,16,36,-9,68,4,ok,4,0,0.000,0,-1.16,0.23,10.43,10,0.025,8.28
0.1868,-0.01920,-0.02269,0.00000,0.00000,0.00000,0.00000,18,7,65,17,34,-7,69,5,ok,4,0,0.000,0,-1.16,0.23,10.43,10,0.038,8.28
0.1899,-0.01920,-0.02269,0.00000,0.00000,0.00000,0.00000,21,6,67,18,32,-6,69,6,ok,4,0,0.000,0,-1.16,0.23,10.43,10,0.051,8.28
0.2024,-0.01920,-0.02269,0.00000,0.00000,0.00000,0.00000,22,5,67,19,30,-3,70,6,ok,4,0,0.000,0,-1.16,0.23,10.43,10,0.063,8.28
0.2228,-0.01920,-0.02269,0.00000,0.00000,0.00000,0.00000,23,5,66,21,28,0,70,8,ok,4,0,0.000,0,-1.16,0.23,10.43,10,0.076,8.28
0.2277,-0.01920,-0.02269,0.00000,0.00000,0.00000,0.00000,24,4,66,22,27,3,70,9,ok,4,0,0.000,0,-1.16,0.23,10.43,10,0.088,8.28
0.2400,-0.01920,-0.02269,0.00000,0.00000,0.00000,0.00000,26,4,66,23,27,6,71,9,ok,4,0,0.000,0,-1.16,0.23,10.43,10,0.101,8.28
0.2628,-0.01920,-0.02269,0.00000,0.00000,0.00000,0.00000,27,4,65,26,29,5,71,10,ok,4,0,0.000,0,-1.16,0.23,10.43,10,0.113,8.28
0.2658,-0.01920,-0.02269,0.00000,0.00000,0.00000,0.00000,28,3,65,28,29,5,72,11,ok,4,0,0.000,0,-1.16,0.23,10.43,10,0.127,8.28
0.2785,-0.01920,-0.02269,0.00000,0.00000,0.00000,0.00000,29,3,66,26,30,3,72,12,ok,4,0,0.000,0,-1.16,0.23,10.43,10,0.139,8.28
0.2988,-0.01920,-0.02269,0.00000,0.00000,0.00000,0.00000,30,2,69,24,31,3,73,13,ok,4,0,0.000,0,-1.16,0.23,10.43,10,0.152,8.28
0.3035,-0.01920,-0.02269,0.00000,0.00000,0.00000,0.00000,31,1,72,20,32,3,73,14,ok,4,0,0.000,0,-1.16,0.23,10.43,10,0.164,8.28
0.3160,-0.01920,-0.02269,0.00000,0.00000,0.00000,0.00000,32,0,73,17,33,3,72,16,ok,4,0,0.000,0,-1.16,0.23,10.43,10,0.177,8.28
0.3388,-0.01920,-0.02269,0.00000,0.00000,0.00000,0.00000,33,0,73,15,35,2,72,18,ok,4,0,0.000,0,-1.16,0.23,10.43,10,0.189,8.28
0.3422,-0.15010,-0.09076,0.03491,0.00000,0.00000,0.00000,34,-1,73,15,37,2,74,19,ok,4,0,0.000,0,-1.03,-1.62,9.08,11,0.000,8.28
0.3546,-0.15010,-0.09076,0.03491,0.00000,0.00000,0.00000,36,-1,73,12,37,1,73,21,ok,4,0,0.000,0,-1.03,-1.62,9.08,11,0.013,8.28
0.3748,-0.15010,-0.09076,0.03491,0.00000,0.00000,0.00000,37,-1,73,9,39,1,72,22,ok,4,0,0.000,0,-1.03,-1.62,9.08,11,0.025,8.28
0.3796,-0.15010,-0.09076,0.03491,0.00000,0.00000,0.00000,38,-1,72,6,40,1,73,24,ok,4,0,0.000,0,-1.03,-1.62,9.08,11,0.038,8.28
0.3922,-0.15010,-0.09076,0.03491,0.00000,0.00000,0.00000,39,-2,72,4,41,1,72,26,ok,4,0,0.000,0,-1.03,-1.62,9.08,11,0.050,8.28
0.4148,-0.15010,-0.09076,0.03491,0.00000,0.00000,0.00000,40,-2,71,2,42,0,72,27,ok,4,0,0.000,0,-1.03,-1.62,9.08,11,0.063,8.28
0.4178,-0.15010,-0.09076,0.03491,0.00000,0.00000,0.00000,42,-2,69,0,43,0,71,28,ok,4,0,0.000,0,-1.03,-1.62,9.08,11,0.076,8.28
0.4306,-0.15010,-0.09076,0.03491,0.00000,0.00000,0.00000,42,-2,67,-1,45,-1,72,28,ok,4,0,0.000,0,-1.03,-1.62,9.08,11,0.089,8.28
0.4508,-0.15010,-0.09076,0.03491,0.00000,0.00000,0.00000,44,-2,66,-3,46,-1,73,28,ok,4,0,0.000,0,-1.03,-1.62,9.08,11,0.101,8.28
0.4556,-0.15010,-0.09076,0.03491,0.00000,0.00000,0.00000,45,-2,65,-6,47,-2,75,25,ok,4,0,0.000,0,-1.03,-1.62,9.08,11,0.114,8.28
0.4682,-0.15010,-0.09076,0.03491,0.00000,0.00000,0.00000,47,0,63,-7,48,-2,76,20,ok,4,0,0.000,0,-1.03,-1.62,9.08,11,0.126,8.28
0.4908,-0.15010,-0.09076,0.03491,0.00000,0.00000,0.00000,48,0,61,-8,49,-2,77,17,ok,4,0,0.000,0,-1.03,-1.62,9.08,11,0.139,8.28
0.4939,-0.15010,-0.09076,0.03491,0.00000,0.00000,0.00000,49,0,58,-9,51,-2,79,14,ok,4,0,0.000,0,-1.03,-1.62,9.08,11,0.152,8.28
0.5067,-0.15010,-0.09076,0.03491,0.00000,0.00000,0.00000,49,2,55,-10,52,-2,79,13,ok,4,0,0.000,0,-1.03,-1.62,9.08,11,0.165,8.28
0.5268,-0.15010,-0.09076,0.03491,0.00000,0.00000,0.00000,51,4,52,-10,54,-1,79,11,ok,4,0,0.000,1,-1.03,-1.62,9.08,11,0.177,8.28
0.5318,-0.15010,-0.09076,0.03491,0.00000,0.00000,0.00000,51,4,49,-10,55,-1,79,7,ok,4,0,0.000,1,-1.03,-1.62,9.08,11,0.190,8.28
0.5443,-0.04712,0.03316,0.05760,0.00000,0.00000,0.00000,52,5,47,-10,56,0,78,4,ok,4,0,0.000,1,0.93,-0.36,10.23,12,0.000,8.28
0.5668,-0.04712,0.03316,0.05760,0.00000,0.00000,0.00000,53,6,44,-10,57,0,78,2,ok,4,0,0.000,1,0.93,-0.36,10.23,12,0.013,8.28
0.5700,-0.04712,0.03316,0.05760,0.00000,0.00000,0.00000,55,6,41,-11,58,1,77,-2,ok,4,0,0.000,1,0.93,-0.36,10.23,12,0.026,8.28
0.5826,-0.04712,0.03316,0.05760,0.00000,0.00000,0.00000,55,6,39,-10,59,0,77,-3,ok,4,0,0.000,1,0.93,-0.36,10.23,12,0.039,8.28
0.6028,-0.04712,0.03316,0.05760,0.00000,0.00000,0.00000,56,7,36,-8,59,1,76,-5,ok,4,0,0.000,1,0.93,-0.36,10.23,12,0.051,8.28
0.6076,-0.04712,0.03316,0.05760,0.00000,0.00000,0.00000,57,7,33,-7,60,1,74,-7,ok,4,0,0.000,1,0.93,-0.36,10.23,12,0.064,8.28
0.6202,-0.04712,0.03316,0.05760,0.00000,0.00000,0.00000,58,7,29,-6,60,1,71,-7,ok,2,0,0.000,1,0.93,-0.36,10.23,12,0.076,8.28
0.6428,-0.04712,0.03316,0.05760,0.00000,0.00000,0.00000,59,8,26,-4,61,1,70,-9,ok,2,0,0.000,1,0.93,-0.36,10.23,12,0.089,8.28
0.6458,-0.04712,0.03316,0.05760,0.00000,0.00000,0.00000,60,10,22,-2,62,1,69,-10,ok,2,0,0.000,1,0.93,-0.36,10.23,12,0.102,8.28
0.6585,-0.04712,0.03316,0.05760,0.00000,0.00000,0.00000,60,10,20,-1,64,-1,67,-11,ok,2,0,0.000,1,0.93,-0.36,10.23,12,0.115,8.28
0.6788,-0.04712,0.03316,0.05760,0.00000,0.00000,0.00000,61,10,19,0,65,0,65,-13,ok,2,0,0.000,1,0.93,-0.36,10.23,12,0.127,8.28
0.6837,-0.04712,0.03316,0.05760,0.00000,0.00000,0.00000,62,11,17,3,66,1,63,-13,ok,2,0,0.000,1,0.93,-0.36,10.23,12,0.139,8.28
0.6960,-0.04712,0.03316,0.05760,0.00000,0.00000,0.00000,62,12,14,6,67,0,60,-14,ok,2,0,0.000,1,0.93,-0.36,10.23,12,0.152,8.28
0.7188,-0.04712,0.03316,0.05760,0.00000,0.00000,0.00000,62,13,13,10,67,1,59,-14,ok,2,0,0.000,1,0.93,-0.36,10.23,12,0.165,8.28
0.7218,-0.04712,0.03316,0.05760,0.00000,0.00000,0.00000,63,14,11,12,68,1,55,-13,ok,2,0,0.000,1,0.93,-0.36,10.23,12,0.178,8.28
0.7348,0.01222,0.00000,0.07854,0.00000,0.00000,0.00000,63,15,13,13,68,1,53,-13,ok,2,0,0.000,1,0.23,0.39,10.12,13,0.000,8.28
0.7548,0.01222,0.00000,0.07854,0.00000,0.00000,0.00000,63,16,12,13,69,1,51,-12,ok,2,0,0.000,1,0.23,0.39,10.12,13,0.013,8.28
0.7596,0.01222,0.00000,0.07854,0.00000,0.00000,0.00000,64,16,14,11,69,1,47,-11,ok,2,0,0.000,1,0.23,0.39,10.12,13,0.025,8.28
0.7722,0.01222,0.00000,0.07854,0.00000,0.00000,0.00000,64,18,15,10,70,2,45,-11,ok,2,0,0.000,1,0.23,0.39,10.12,13,0.038,8.28
0.7948,0.01222,0.00000,0.07854,0.00000,0.00000,0.00000,65,18,16,10,70,3,42,-9,ok,2,0,0.000,1,0.23,0.39,10.12,13,0.050,8.28
0.7978,0.01222,0.00000,0.07854,0.00000,0.00000,0.00000,66,19,17,9,70,3,39,-9,ok,2,0,0.000,1,0.23,0.39,10.12,13,0.063,8.28
0.8107,0.01222,0.00000,0.07854,0.00000,0.00000,0.00000,66,20,18,8,71,5,35,-7,ok,2,0,0.000,1,0.23,0.39,10.12,13,0.076,8.28
0.8308,0.01222,0.00000,0.07854,0.00000,0.00000,0.00000,67,21,20,7,72,5,34,-5,ok,2,0,0.000,1,0.23,0.39,10.12,13,0.089,8.28
0.8356,0.01222,0.00000,0.07854,0.00000,0.00000,0.00000,67,22,21,6,72,6,32,-4,ok,2,0,0.000,1,0.23,0.39,10.12,13,0.101,8.28
0.8480,0.01222,0.00000,0.07854,0.00000,0.00000,0.00000,66,23,22,6,71,7,30,-1,ok,2,0,0.000,1,0.23,0.39,10.12,13,0.113,8.28
0.8708,0.01222,0.00000,0.07854,0.00000,0.00000,0.00000,66,24,23,5,72,8,29,2,ok,2,0,0.000,1,0.23,0.39,10.12,13,0.126,8.28
0.8738,0.01222,0.00000,0.07854,0.00000,0.00000,0.00000,66,25,25,5,72,9,27,5,ok,2,0,0.000,1,0.23,0.39,10.12,13,0.139,8.28
0.8864,0.01222,0.00000,0.07854,0.00000,0.00000,0.00000,65,28,26,4,72,10,27,7,ok,2,0,0.000,1,0.23,0.39,10.12,13,0.152,8.28
0.9068,0.01222,0.00000,0.07854,0.00000,0.00000,0.00000,64,29,27,3,72,12,29,6,ok,2,0,0.000,1,0.23,0.39,10.12,13,0.164,8.28
0.9115,0.01222,0.00000,0.07854,0.00000,0.00000,0.00000,66,28,28,3,72,13,29,6,ok,2,0,0.000,1,0.23,0.39,10.12,13,0.177,8.28
0.9242,0.01222,0.00000,0.07854,0.00000,0.00000,0.00000,68,25,30,3,72,14,30,4,ok,2,0,0.000,1,0.23,0.39,10.12,13,0.189,8.28
0.9468,0.01222,0.00000,0.07854,0.00000,0.00000,0.00000,70,21,31,2,72,15,31,3,ok,2,0,0.000,1,0.23,0.39,10.12,13,0.202,8.28
0.9501,0.03840,-0.01571,0.09599,0.00000,0.00000,0.00000,71,17,33,2,71,17,33,3,ok,2,0,0.000,1,0.73,-1.00,8.96,14,0.000,8.28
0.9626,0.03840,-0.01571,0.09599,0.00000,0.00000,0.00000,71,15,34,2,72,18,34,2,ok,2,0,0.000,1,0.73,-1.00,8.96,14,0.013,8.28
0.9828,0.03840,-0.01571,0.09599,0.00000,0.00000,0.00000,71,14,36,1,71,21,36,1,ok,2,0,0.000,1,0.73,-1.00,8.96,14,0.025,8.28
0.9875,0.03840,-0.01571,0.09599,0.00000,0.00000,0.00000,71,11,37,1,71,22,38,1,ok,2,0,0.000,1,0.73,-1.00,8.96,14,0.038,8.28
1.0000,0.03840,-0.01571,0.09599,0.00000,0.00000,0.00000,70,7,38,2,71,24,39,1,ok,2,0,0.000,1,0.73,-1.00,8.96,14,0.050,8.28
1.0228,0.03840,-0.01571,0.09599,0.00000,0.00000,0.00000,69,5,39,2,71,25,40,1,ok,2,0,0.000,1,0.73,-1.00,8.96,14,0.063,8.28
1.0258,0.03840,-0.01571,0.09599,0.00000,0.00000,0.00000,68,1,41,1,71,27,42,1,ok,2,0,0.000,1,0.73,-1.00,8.96,14,0.076,8.28
1.0387,0.03840,-0.01571,0.09599,0.00000,0.00000,0.00000,67,-1,42,1,71,28,42,1,ok,2,0,0.000,1,0.73,-1.00,8.96,14,0.089,8.28
1.0588,0.03840,-0.01571,0.09599,0.00000,0.00000,0.00000,66,-3,44,2,71,29,44,0,ok,2,0,0.000,1,0.73,-1.00,8.96,14,0.101,8.28
1.0635,0.03840,-0.01571,0.09599,0.00000,0.00000,0.00000,64,-4,44,2,72,28,45,0,ok,2,0,0.000,1,0.73,-1.00,8.96,14,0.114,8.28
1.0760,0.03840,-0.01571,0.09599,0.00000,0.00000,0.00000,63,-6,46,2,74,26,46,0,ok,2,0,0.000,1,0.73,-1.00,8.96,14,0.126,8.28
1.0988,0.03840,-0.01571,0.09599,0.00000,0.00000,0.00000,62,-8,47,2,76,21,47,0,ok,2,0,0.000,1,0.73,-1.00,8.96,14,0.139,8.28
1.1019,0.03840,-0.01571,0.09599,0.00000,0.00000,0.00000,60,-9,49,3,77,16,48,0,ok,2,0,0.000,1,0.73,-1.00,8.96,14,0.152,8.28
1.1146,0.03840,-0.01571,0.09599,0.00000,0.00000,0.00000,57,-10,50,3,79,14,49,0,ok,2,0,0.000,1,0.73,-1.00,8.96,14,0.165,8.28
1.1348,0.03840,-0.01571,0.09599,0.00000,0.00000,0.00000,55,-11,50,3,79,13,50,0,ok,2,0,0.000,1,0.73,-1.00,8.96,14,0.177,8.28
1.1397,0.03840,-0.01571,0.09599,0.00000,0.00000,0.00000,53,-12,50,5,79,11,51,0,ok,2,0,0.000,1,0.73,-1.00,8.96,14,0.190,8.28
1.1522,0.08203,0.02094,0.08029,0.00000,0.00000,0.00000,50,-11,52,5,79,7,52,0,ok,2,0,0.000,1,-0.15,1.04,9.55,15,0.000,8.28
1.1748,0.08203,0.02094,0.08029,0.00000,0.00000,0.00000,47,-11,53,5,78,4,53,0,ok,2,0,0.000,1,-0.15,1.04,9.55,15,0.013,8.28
1.1780,0.08203,0.02094,0.08029,0.00000,0.00000,0.00000,45,-11,54,6,78,2,54,0,ok,2,0,0.000,1,-0.15,1.04,9.55,15,0.026,8.28
1.1906,0.08203,0.02094,0.08029,0.00000,0.00000,0.00000,42,-11,54,7,77,-1,54,0,ok,2,0,0.000,1,-0.15,1.04,9.55,15,0.039,8.28
1.2108,0.08203,0.02094,0.08029,0.00000,0.00000,0.00000,40,-11,56,7,76,-3,55,-1,ok,2,0,0.000,1,-0.15,1.04,9.55,15,0.051,8.28
1.2158,0.08203,0.02094,0.08029,0.00000,0.00000,0.00000,38,-10,56,7,75,-5,56,0,ok,2,0,0.000,1,-0.15,1.04,9.55,15,0.064,8.28
1.2280,0.08203,0.02094,0.08029,0.00000,0.00000,0.00000,35,-9,57,7,74,-8,57,-1,ok,2,0,0.000,1,-0.15,1.04,9.55,15,0.076,8.28
1.2508,0.08203,0.02094,0.08029,0.00000,0.00000,0.00000,32,-8,57,8,71,-7,57,0,ok,2,0,0.000,1,-0.15,1.04,9.55,15,0.089,8.28
1.2538,0.08203,0.02094,0.08029,0.00000,0.00000,0.00000,29,-6,58,8,70,-9,57,0,ok,2,0,0.000,1,-0.15,1.04,9.55,15,0.102,8.28
1.2666,0.08203,0.02094,0.08029,0.00000,0.00000,0.00000,26,-4,59,9,69,-11,59,0,ok,2,0,0.000,1,-0.15,1.04,9.55,15,0.115,8.28
1.2868,0.08203,0.02094,0.08029,0.00000,0.00000,0.00000,22,-2,60,10,66,-12,60,0,ok,2,0,0.000,1,-0.15,1.04,9.55,15,0.127,8.28
1.2916,0.08203,0.02094,0.08029,0.00000,0.00000,0.00000,20,-1,61,11,64,-13,61,0,ok,2,0,0.000,1,-0.15,1.04,9.55,15,0.139,8.28
1.3042,0.08203,0.02094,0.08029,0.00000,0.00000,0.00000,18,0,62,11,62,-13,63,-3,ok,2,0,0.000,1,-0.15,1.04,9.55,15,0.152,8.28
1.3268,0.08203,0.02094,0.08029,0.00000,0.00000,0.00000,16,3,62,12,59,-14,63,-2,ok,2,0,0.000,1,-0.15,1.04,9.55,15,0.165,8.28
1.3298,0.08203,0.02094,0.08029,0.00000,0.00000,0.00000,14,7,63,13,58,-14,64,-2,ok,2,0,0.000,1,-0.15,1.04,9.55,15,0.178,8.28
1.3428,0.08203,0.02094,0.08029,0.00000,0.00000,0.00000,12,10,63,14,55,-14,65,-1,ok,2,0,0.000,1,-0.15,1.04,9.55,15,0.191,8.28
1.3668,0.09774,-0.00873,0.08029,0.00000,0.00000,0.00000,11,13,64,14,52,-13,65,-1,ok,2,0,0.000,1,0.15,0.92,10.53,16,0.000,8.28
1.3699,0.09774,-0.00873,0.08029,0.00000,0.00000,0.00000,12,13,64,15,50,-13,66,0,ok,2,0,0.000,1,0.15,0.92,10.53,16,0.015,8.28
1.3827,0.09774,-0.00873,0.08029,0.00000,0.00000,0.00000,12,13,64,17,47,-12,67,-1,ok,2,0,0.000,1,0.15,0.92,10.53,16,0.028,8.28
1.4028,0.09774,-0.00873,0.08029,0.00000,0.00000,0.00000,14,12,65,17,44,-11,68,0,ok,2,0,0.000,1,0.15,0.92,10.53,16,0.040,8.28
1.4075,0.09774,-0.00873,0.08029,0.00000,0.00000,0.00000,15,12,65,18,41,-10,69,0,ok,2,0,0.000,1,0.15,0.92,10.53,16,0.052,8.28
1.4201,0.09774,-0.00873,0.08029,0.00000,0.00000,0.00000,16,11,66,18,38,-9,69,1,ok,4,0,0.000,1,0.15,0.92,10.53,16,0.065,8.28
1.4428,0.09774,-0.00873,0.08029,0.00000,0.00000,0.00000,18,10,66,19,35,-8,70,2,ok,4,0,0.000,1,0.15,0.92,10.53,16,0.078,8.28
1.4459,0.09774,-0.00873,0.08029,0.00000,0.00000,0.00000,18,10,66,20,33,-7,70,3,ok,4,0,0.000,1,0.15,0.92,10.53,16,0.091,8.28
1.4585,0.09774,-0.00873,0.08029,0.00000,0.00000,0.00000,20,9,66,21,31,-5,71,4,ok,4,0,0.000,1,0.15,0.92,10.53,16,0.104,8.28
1.4788,0.09774,-0.00873,0.08029,0.00000,0.00000,0.00000,21,8,66,22,29,-2,72,4,ok,4,0,0.000,1,0.15,0.92,10.53,16,0.116,8.28
1.4835,0.09774,-0.00873,0.08029,0.00000,0.00000,0.00000,23,7,66,23,28,0,72,6,ok,4,0,0.000,1,0.15,0.92,10.53,16,0.129,8.28
1.4960,0.09774,-0.00873,0.08029,0.00000,0.00000,0.00000,24,6,66,24,27,4,72,7,ok,4,0,0.000,1,0.15,0.92,10.53,16,0.141,8.28
1.5188,0.09774,-0.00873,0.08029,0.00000,0.00000,0.00000,25,6,65,25,26,6,72,8,ok,4,0,0.000,1,0.15,0.92,10.53,16,0.154,8.28
1.5219,0.09774,-0.00873,0.08029,0.00000,0.00000,0.00000,27,6,64,28,28,6,72,9,ok,4,0,0.000,1,0.15,0.92,10.53,16,0.167,8.28
1.5344,0.09774,-0.00873,0.08029,0.00000,0.00000,0.00000,28,5,64,29,28,5,72,11,ok,4,0,0.000,1,0.15,0.92,10.53,16,0.180,8.28
1.5548,0.06807,0.04014,0.04363,0.00000,0.00000,0.00000,29,4,65,27,30,3,72,12,ok,4,0,0.000,2,0.62,0.85,9.21,17,0.000,8.28
1.5595,0.06807,0.04014,0.04363,0.00000,0.00000,0.00000,30,3,68,24,31,2,73,14,ok,4,0,0.000,2,0.62,0.85,9.21,17,0.012,8.28
1.5721,0.06807,0.04014,0.04363,0.00000,0.00000,0.00000,31,3,70,21,32,2,73,15,ok,4,0,0.000,2,0.62,0.85,9.21,17,0.025,8.28
1.5948,0.06807,0.04014,0.04363,0.00000,0.00000,0.00000,33,2,71,17,33,2,72,17,ok,4,0,0.000,2,0.62,0.85,9.21,17,0.038,8.28
1.5979,0.06807,0.04014,0.04363,0.00000,0.00000,0.00000,34,2,71,15,34,1,72,19,ok,4,0,0.000,2,0.62,0.85,9.21,17,0.051,8.28
1.6106,0.06807,0.04014,0.04363,0.00000,0.00000,0.00000,36,1,71,14,37,1,73,20,ok,4,0,0.000,2,0.62,0.85,9.21,17,0.064,8.28
1.6308,0.06807,0.04014,0.04363,0.00000,0.00000,0.00000,37,1,71,11,37,1,72,22,ok,4,0,0.000,2,0.62,0.85,9.21,17,0.076,8.28
1.6356,0.06807,0.04014,0.04363,0.00000,0.00000,0.00000,39,1,71,8,39,2,72,23,ok,4,0,0.000,2,0.62,0.85,9.21,17,0.089,8.28
1.6481,0.06807,0.04014,0.04363,0.00000,0.00000,0.00000,40,1,70,5,40,1,73,24,ok,4,0,0.000,2,0.62,0.85,9.21,17,0.101,8.28
1.6708,0.06807,0.04014,0.04363,0.00000,0.00000,0.00000,41,0,70,3,41,2,72,26,ok,4,0,0.000,2,0.62,0.85,9.21,17,0.114,8.28
1.6740,0.06807,0.04014,0.04363,0.00000,0.00000,0.00000,43,0,69,1,42,1,72,27,ok,4,0,0.000,2,0.62,0.85,9.21,17,0.127,8.28
1.6864,0.06807,0.04014,0.04363,0.00000,0.00000,0.00000,44,0,68,-1,44,1,72,29,ok,4,0,0.000,2,0.62,0.85,9.21,17,0.140,8.28
1.7068,0.06807,0.04014,0.04363,0.00000,0.00000,0.00000,44,0,65,-2,45,0,73,29,ok,4,0,0.000,2,0.62,0.85,9.21,17,0.152,8.28
1.7115,0.06807,0.04014,0.04363,0.00000,0.00000,0.00000,46,0,64,-4,46,0,74,28,ok,4,0,0.001,2,0.62,0.85,9.21,17,0.165,8.28
1.7240,0.06807,0.04014,0.04363,0.00000,0.00000,0.00000,47,1,64,-7,48,0,76,26,ok,4,0,0.001,2,0.62,0.85,9.21,17,0.177,8.28
1.7468,0.06807,0.04014,0.04363,0.00000,0.00000,0.00000,49,2,61,-7,48,0,78,20,ok,4,0,0.001,2,0.62,0.85,9.21,17,0.190,8.28
1.7502,0.06807,0.04014,0.04363,0.00000,0.00000,0.00000,50,1,59,-9,49,0,79,17,ok,4,0,0.001,2,0.62,0.85,9.21,17,0.203,8.28
1.7628,-0.13439,-0.01396,0.06283,0.00000,0.00000,0.00000,50,1,56,-9,51,0,81,13,ok,4,0,0.001,2,-0.16,-1.65,8.49,18,0.000,8.28
1.7828,-0.13439,-0.01396,0.06283,0.00000,0.00000,0.00000,50,3,54,-9,52,0,81,13,ok,4,0,0.001,2,-0.16,-1.65,8.49,18,0.013,8.28
1.7875,-0.13439,-0.01396,0.06283,0.00000,0.00000,0.00000,52,4,51,-9,53,-1,81,11,ok,4,0,0.001,2,-0.16,-1.65,8.49,18,0.025,8.28
1.8001,-0.13439,-0.01396,0.06283,0.00000,0.00000,0.00000,52,4,49,-9,54,-1,81,7,ok,2,0,0.001,2,-0.16,-1.65,8.49,18,0.038,8.28
1.8228,-0.13439,-0.01396,0.06283,0.00000,0.00000,0.00000,53,5,46,-9,55,1,80,4,ok,2,0,0.001,2,-0.16,-1.65,8.49,18,0.050,8.28
1.8261,-0.13439,-0.01396,0.06283,0.00000,0.00000,0.00000,53,5,44,-9,56,0,80,2,ok,2,0,0.001,2,-0.16,-1.65,8.49,18,0.063,8.28
1.8384,-0.13439,-0.01396,0.06283,0.00000,0.00000,0.00000,55,6,41,-9,57,1,78,-2,ok,2,0,0.001,2,-0.16,-1.65,8.49,18,0.076,8.28
1.8588,-0.13439,-0.01396,0.06283,0.00000,0.00000,0.00000,55,6,39,-8,58,0,78,-3,ok,2,0,0.001,2,-0.16,-1.65,8.49,18,0.088,8.28
1.8635,-0.13439,-0.01396,0.06283,0.00000,0.00000,0.00000,56,7,36,-7,58,1,77,-5,ok,2,0,0.001,2,-0.16,-1.65,8.49,18,0.101,8.28
1.8761,-0.13439,-0.01396,0.06283,0.00000,0.00000,0.00000,57,7,33,-6,59,1,74,-7,ok,2,0,0.001,2,-0.16,-1.65,8.49,18,0.113,8.28
1.8988,-0.13439,-0.01396,0.06283,0.00000,0.00000,0.00000,58,8,30,-5,60,1,72,-7,ok,2,0,0.001,2,-0.16,-1.65,8.49,18,0.126,8.28
1.9021,-0.13439,-0.01396,0.06283,0.00000,0.00000,0.00000,58,9,27,-3,61,1,70,-9,ok,2,0,0.001,2,-0.16,-1.65,8.49,18,0.139,8.28
1.9144,-0.13439,-0.01396,0.06283,0.00000,0.00000,0.00000,60,10,22,-1,62,0,69,-11,ok,2,0,0.001,2,-0.16,-1.65,8.49,18,0.152,8.28
1.9348,-0.13439,-0.01396,0.06283,0.00000,0.00000,0.00000,60,10,20,0,64,-2,67,-12,ok,2,0,0.001,2,-0.16,-1.65,8.49,18,0.164,8.28
1.9395,-0.13439,-0.01396,0.06283,0.00000,0.00000,0.00000,61,11,19,1,65,-1,64,-13,ok,2,0,0.001,2,-0.16,-1.65,8.49,18,0.177,8.28
1.9521,-0.13439,-0.01396,0.06283,0.00000,0.00000,0.00000,62,11,17,3,65,0,63,-14,ok,2,0,0.001,2,-0.16,-1.65,8.49,18,0.189,8.28
1.9748,-0.05934,-0.03142,0.05934,0.00000,0.00000,0.00000,62,12,15,7,66,-1,60,-14,ok,2,0,0.001,2,-0.06,-0.25,10.61,19,0.000,8.28
1.9779,-0.05934,-0.03142,0.05934,0.00000,0.00000,0.00000,62,13,13,10,66,0,58,-15,ok,2,0,0.001,2,-0.06,-0.25,10.61,19,0.013,8.28
1.9907,-0.05934,-0.03142,0.05934,0.00000,0.00000,0.00000,63,14,11,12,67,0,55,-13,ok,2,0,0.001,2,-0.06,-0.25,10.61,19,0.026,8.28
2.0108,-0.05934,-0.03142,0.05934,0.00000,0.00000,0.00000,63,15,13,13,67,0,53,-13,ok,2,0,0.001,2,-0.06,-0.25,10.61,19,0.039,8.28
2.0155,-0.05934,-0.03142,0.05934,0.00000,0.00000,0.00000,63,16,13,12,68,1,50,-12,ok,2,0,0.001,2,-0.06,-0.25,10.61,19,0.051,8.28
2.0281,-0.05934,-0.03142,0.05934,0.00000,0.00000,0.00000,64,17,14,11,69,1,47,-12,ok,2,0,0.001,2,-0.06,-0.25,10.61,19,0.064,8.28
2.0508,-0.05934,-0.03142,0.05934,0.00000,0.00000,0.00000,64,18,15,10,69,2,45,-11,ok,2,0,0.001,2,-0.06,-0.25,10.61,19,0.076,8.28
2.0539,-0.05934,-0.03142,0.05934,0.00000,0.00000,0.00000,65,18,16,10,69,2,41,-10,ok,2,0,0.001,2,-0.06,-0.25,10.61,19,0.089,8.28
2.0664,-0.05934,-0.03142,0.05934,0.00000,0.00000,0.00000,66,19,18,9,70,3,39,-9,ok,2,0,0.001,2,-0.06,-0.25,10.61,19,0.102,8.28
2.0868,-0.05934,-0.03142,0.05934,0.00000,0.00000,0.00000,66,20,18,8,70,4,35,-7,ok,2,0,0.001,2,-0.06,-0.25,10.61,19,0.115,8.28
2.0915,-0.05934,-0.03142,0.05934,0.00000,0.00000,0.00000,67,21,20,7,71,4,34,-6,ok,2,0,0.001,2,-0.06,-0.25,10.61,19,0.127,8.28
2.1041,-0.05934,-0.03142,0.05934,0.00000,0.00000,0.00000,67,22,21,6,71,6,32,-4,ok,2,0,0.001,2,-0.06,-0.25,10.61,19,0.140,8.28
2.1268,-0.05934,-0.03142,0.05934,0.00000,0.00000,0.00000,66,23,23,6,71,7,30,-1,ok,2,0,0.001,2,-0.06,-0.25,10.61,19,0.152,8.28
2.1299,-0.05934,-0.03142,0.05934,0.00000,0.00000,0.00000,66,24,24,6,71,8,28,1,ok,2,0,0.001,2,-0.06,-0.25,10.61,19,0.165,8.28
2.1424,-0.05934,-0.03142,0.05934,0.00000,0.00000,0.00000,65,25,25,5,72,8,27,5,ok,2,0,0.001,2,-0.06,-0.25,10.61,19,0.178,8.28
2.1628,-0.05934,-0.03142,0.05934,0.00000,0.00000,0.00000,64,28,26,5,72,10,26,7,ok,2,0,0.001,2,-0.06,-0.25,10.61,19,0.191,8.28
2.1677,0.09076,-0.03491,0.08203,0.00000,0.00000,0.00000,64,29,28,4,71,11,29,6,ok,2,0,0.001,2,0.12,0.57,9.09,20,0.000,8.28
2.1801,0.09076,-0.03491,0.08203,0.00000,0.00000,0.00000,65,28,29,3,71,13,29,5,ok,2,0,0.001,2,0.12,0.57,9.09,20,0.013,8.28
2.2028,0.09076,-0.03491,0.08203,0.00000,0.00000,0.00000,67,25,30,2,72,15,30,3,ok,2,0,0.001,2,0.12,0.57,9.09,20,0.025,8.28
2.2059,0.09076,-0.03491,0.08203,0.00000,0.00000,0.00000,70,21,32,2,71,16,31,2,ok,2,0,0.001,2,0.12,0.57,9.09,20,0.038,8.28
2.2184,0.09076,-0.03491,0.08203,0.00000,0.00000,0.00000,70,17,33,2,71,18,33,2,ok,2,0,0.001,2,0.12,0.57,9.09,20,0.051,8.28
2.2388,0.09076,-0.03491,0.08203,0.00000,0.00000,0.00000,71,15,34,2,72,18,34,1,ok,2,0,0.001,2,0.12,0.57,9.09,20,0.064,8.28
2.2437,0.09076,-0.03491,0.08203,0.00000,0.00000,0.00000,70,14,36,1,71,21,36,0,ok,2,0,0.001,2,0.12,0.57,9.09,20,0.076,8.28
2.2561,0.09076,-0.03491,0.08203,0.00000,0.00000,0.00000,70,11,37,1,71,22,38,0,ok,2,0,0.001,2,0.12,0.57,9.09,20,0.089,8.28
2.2788,0.09076,-0.03491,0.08203,0.00000,0.00000,0.00000,70,8,38,2,71,23,38,1,ok,2,0,0.001,2,0.12,0.57,9.09,20,0.101,8.28
2.2819,0.09076,-0.03491,0.08203,0.00000,0.00000,0.00000,69,5,39,2,71,25,40,1,ok,2,0,0.001,2,0.12,0.57,9.09,20,0.114,8.28
2.2944,0.09076,-0.03491,0.08203,0.00000,0.00000,0.00000,69,1,41,1,70,27,42,1,ok,2,0,0.001,2,0.12,0.57,9.09,20,0.127,8.28
2.3148,0.09076,-0.03491,0.08203,0.00000,0.00000,0.00000,67,-1,42,1,70,28,43,1,ok,2,0,0.001,2,0.12,0.57,9.09,20,0.140,8.28
2.3196,0.09076,-0.03491,0.08203,0.00000,0.00000,0.00000,66,-3,44,2,71,28,44,0,ok,2,0,0.001,2,0.12,0.57,9.09,20,0.152,8.28
2.3320,0.09076,-0.03491,0.08203,0.00000,0.00000,0.00000,64,-4,44,2,72,28,45,0,ok,2,0,0.001,2,0.12,0.57,9.09,20,0.165,8.28
2.3548,0.09076,-0.03491,0.08203,0.00000,0.00000,0.00000,63,-6,46,2,73,26,46,-1,ok,2,0,0.001,2,0.12,0.57,9.09,20,0.177,8.28
2.3579,0.09076,-0.03491,0.08203,0.00000,0.00000,0.00000,62,-8,47,2,76,21,47,-1,ok,2,0,0.001,2,0.12,0.57,9.09,20,0.190,8.28
2.3708,0.06109,0.02618,0.13090,0.00000,0.00000,0.00000,60,-9,48,3,77,16,49,0,ok,2,0,0.001,2,0.62,1.05,9.78,21,0.000,8.28
2.3908,0.06109,0.02618,0.13090,0.00000,0.00000,0.00000,58,-10,49,3,78,14,49,0,ok,2,0,0.001,2,0.62,1.05,9.78,21,0.013,8.28
2.3955,0.06109,0.02618,0.13090,0.00000,0.00000,0.00000,55,-11,50,3,79,13,50,0,ok,2,0,0.001,2,0.62,1.05,9.78,21,0.025,8.28
2.4083,0.06109,0.02618,0.13090,0.00000,0.00000,0.00000,53,-12,50,5,79,11,51,0,ok,2,0,0.001,2,0.62,1.05,9.78,21,0.038,8.28
2.4308,0.06109,0.02618,0.13090,0.00000,0.00000,0.00000,50,-11,52,5,79,8,52,0,ok,2,0,0.001,2,0.62,1.05,9.78,21,0.050,8.28
2.4339,0.06109,0.02618,0.13090,0.00000,0.00000,0.00000,48,-11,53,5,78,4,53,0,ok,2,0,0.001,2,0.62,1.05,9.78,21,0.063,8.28
2.4464,0.06109,0.02618,0.13090,0.00000,0.00000,0.00000,45,-11,53,6,77,2,54,0,ok,2,0,0.001,2,0.62,1.05,9.78,21,0.076,8.28
2.4668,0.06109,0.02618,0.13090,0.00000,0.00000,0.00000,43,-11,54,7,77,-1,54,0,ok,2,0,0.001,2,0.62,1.05,9.78,21,0.088,8.28
2.4716,0.06109,0.02618,0.13090,0.00000,0.00000,0.00000,41,-11,56,7,76,-3,55,-1,ok,2,0,0.001,2,0.62,1.05,9.78,21,0.101,8.28
2.4840,0.06109,0.02618,0.13090,0.00000,0.00000,0.00000,38,-10,56,7,75,-5,56,0,ok,2,0,0.001,2,0.62,1.05,9.78,21,0.113,8.28
2.5068,0.06109,0.02618,0.13090,0.00000,0.00000,0.00000,35,-9,57,7,73,-8,57,-1,ok,2,0,0.001,2,0.62,1.05,9.78,21,0.126,8.28
2.5099,0.06109,0.02618,0.13090,0.00000,0.00000,0.00000,32,-8,58,8,71,-7,57,0,ok,2,0,0.001,2,0.62,1.05,9.78,21,0.139,8.28
2.5224,0.06109,0.02618,0.13090,0.00000,0.00000,0.00000,29,-6,58,8,70,-9,58,0,ok,2,0,0.001,2,0.62,1.05,9.78,21,0.152,8.28
2.5428,0.06109,0.02618,0.13090,0.00000,0.00000,0.00000,26,-4,59,9,68,-11,59,0,ok,2,0,0.001,2,0.62,1.05,9.78,21,0.164,8.28
2.5475,0.06109,0.02618,0.13090,0.00000,0.00000,0.00000,22,-2,60,10,66,-12,60,0,ok,2,0,0.001,3,0.62,1.05,9.78,21,0.177,8.28
2.5602,0.06109,0.02618,0.13090,0.00000,0.00000,0.00000,20,-1,61,11,64,-13,61,0,ok,2,0,0.001,3,0.62,1.05,9.78,21,0.189,8.28
2.5828,0.03491,-0.00175,0.17453,0.00000,0.00000,0.00000,18,0,62,11,62,-13,63,-3,ok,2,0,0.001,3,-0.31,0.80,9.70,22,0.000,8.28
2.5859,0.03491,-0.00175,0.17453,0.00000,0.00000,0.00000,16,3,62,12,59,-14,63,-2,ok,2,0,0.001,3,-0.31,0.80,9.70,22,0.013,8.28
2.5985,0.03491,-0.00175,0.17453,0.00000,0.00000,0.00000,14,6,63,13,58,-15,64,-2,ok,2,0,0.001,3,-0.31,0.80,9.70,22,0.026,8.28
2.6188,0.03491,-0.00175,0.17453,0.00000,0.00000,0.00000,12,10,63,14,55,-14,65,-1,ok,2,0,0.001,3,-0.31,0.80,9.70,22,0.039,8.28
2.6237,0.03491,-0.00175,0.17453,0.00000,0.00000,0.00000,11,12,64,15,52,-13,65,-1,ok,2,0,0.001,3,-0.31,0.80,9.70,22,0.051,8.28
2.6361,0.03491,-0.00175,0.17453,0.00000,0.00000,0.00000,12,13,64,15,50,-13,66,0,ok,2,0,0.001,3,-0.31,0.80,9.70,22,0.064,8.28
2.6588,0.03491,-0.00175,0.17453,0.00000,0.00000,0.00000,12,13,64,17,47,-12,67,-1,ok,2,0,0.001,3,-0.31,0.80,9.70,22,0.076,8.28
2.6619,0.03491,-0.00175,0.17453,0.00000,0.00000,0.00000,14,12,65,17,44,-11,68,0,ok,2,0,0.001,3,-0.31,0.80,9.70,22,0.089,8.28
2.6744,0.03491,-0.00175,0.17453,0.00000,0.00000,0.00000,15,11,65,18,41,-10,69,0,ok,2,0,0.001,3,-0.31,0.80,9.70,22,0.102,8.28
2.6948,0.03491,-0.00175,0.17453,0.00000,0.00000,0.00000,16,11,65,19,38,-10,69,1,ok,2,0,0.001,3,-0.31,0.80,9.70,22,0.115,8.28
2.6995,0.03491,-0.00175,0.17453,0.00000,0.00000,0.00000,18,10,66,19,35,-8,70,2,ok,2,0,0.001,3,-0.31,0.80,9.70,22,0.127,8.28
2.7121,0.03491,-0.00175,0.17453,0.00000,0.00000,0.00000,18,10,66,20,33,-7,70,3,ok,2,0,0.001,3,-0.31,0.80,9.70,22,0.140,8.28
2.7348,0.03491,-0.00175,0.17453,0.00000,0.00000,0.00000,20,8,66,21,32,-5,71,4,ok,2,0,0.001,3,-0.31,0.80,9.70,22,0.152,8.28
2.7381,0.03491,-0.00175,0.17453,0.00000,0.00000,0.00000,22,8,66,22,29,-2,72,4,ok,2,0,0.001,3,-0.31,0.80,9.70,22,0.165,8.28
2.7504,0.03491,-0.00175,0.17453,0.00000,0.00000,0.00000,23,7,66,23,28,0,71,6,ok,2,0,0.001,3,-0.31,0.80,9.70,22,0.178,8.28
2.7708,0.03491,-0.00175,0.17453,0.00000,0.00000,0.00000,24,6,66,24,27,4,71,7,ok,2,0,0.001,3,-0.31,0.80,9.70,22,0.191,8.28
2.7757,0.01047,0.03316,0.17453,0.00000,0.00000,0.00000,25,6,65,25,26,6,72,8,ok,2,0,0.001,3,0.75,1.00,9.95,23,0.000,8.28
2.7881,0.01047,0.03316,0.17453,0.00000,0.00000,0.00000,27,5,64,27,28,6,72,9,ok,2,0,0.001,3,0.75,1.00,9.95,23,0.013,8.28
2.8108,0.01047,0.03316,0.17453,0.00000,0.00000,0.00000,28,5,64,29,29,5,72,11,ok,2,0,0.001,3,0.75,1.00,9.95,23,0.025,8.28
2.8138,0.01047,0.03316,0.17453,0.00000,0.00000,0.00000,29,4,65,27,30,3,72,12,ok,2,0,0.001,3,0.75,1.00,9.95,23,0.038,8.28
2.8264,0.01047,0.03316,0.17453,0.00000,0.00000,0.00000,30,3,68,24,31,2,73,14,ok,2,0,0.001,3,0.75,1.00,9.95,23,0.051,8.28
2.8468,0.01047,0.03316,0.17453,0.00000,0.00000,0.00000,31,3,70,21,32,2,73,15,ok,2,0,0.001,3,0.75,1.00,9.95,23,0.064,8.28
2.8515,0.01047,0.03316,0.17453,0.00000,0.00000,0.00000,33,2,71,17,33,2,72,17,ok,2,0,0.001,3,0.75,1.00,9.95,23,0.076,8.28
2.8640,0.01047,0.03316,0.17453,0.00000,0.00000,0.00000,34,2,71,15,34,1,72,19,ok,2,0,0.001,3,0.75,1.00,9.95,23,0.089,8.28
2.8868,0.01047,0.03316,0.17453,0.00000,0.00000,0.00000,36,1,71,14,37,1,73,20,ok,2,0,0.001,3,0.75,1.00,9.95,23,0.101,8.28
2.8898,0.01047,0.03316,0.17453,0.00000,0.00000,0.00000,37,1,71,11,37,1,72,22,ok,2,0,0.001,3,0.75,1.00,9.95,23,0.114,8.28
2.9024,0.01047,0.03316,0.17453,0.00000,0.00000,0.00000,39,1,71,8,39,2,72,23,ok,2,0,0.001,3,0.75,1.00,9.95,23,0.127,8.28
2.9228,0.01047,0.03316,0.17453,0.00000,0.00000,0.00000,40,1,70,5,40,1,72,24,ok,2,0,0.001,3,0.75,1.00,9.95,23,0.140,8.28
2.9276,0.01047,0.03316,0.17453,0.00000,0.00000,0.00000,42,0,70,3,41,2,72,26,ok,0,0,0.001,3,0.75,1.00,9.95,23,0.152,8.28
2.9400,0.01047,0.03316,0.17453,0.00000,0.00000,0.00000,43,0,69,1,42,1,72,27,ok,0,0,0.001,3,0.75,1.00,9.95,23,0.165,8.28
2.9628,0.01047,0.03316,0.17453,0.00000,0.00000,0.00000,44,0,68,-1,44,1,72,29,ok,0,0,0.001,3,0.75,1.00,9.95,23,0.177,8.28
2.9661,0.01047,0.03316,0.17453,0.00000,0.00000,0.00000,45,0,65,-2,45,0,73,29,ok,2,0,0.001,3,0.75,1.00,9.95,23,0.190,8.28
2.9788,-0.02094,-0.00175,0.18675,0.00000,0.00000,0.00000,46,1,64,-4,47,0,74,28,ok,2,0,0.001,3,-0.10,-0.96,12.38,24,0.000,8.28
2.9988,-0.02094,-0.00175,0.18675,0.00000,0.00000,0.00000,47,0,64,-6,48,0,76,26,ok,2,0,0.001,3,-0.10,-0.96,12.38,24,0.013,8.28
3.0035,-0.02094,-0.00175,0.18675,0.00000,0.00000,0.00000,49,1,61,-7,48,0,78,20,ok,2,0,0.001,3,-0.10,-0.96,12.38,24,0.025,8.28
3.0161,-0.02094,-0.00175,0.18675,0.00000,0.00000,0.00000,50,1,59,-8,49,0,79,17,ok,2,0,0.001,3,-0.10,-0.96,12.38,24,0.038,8.28
3.0388,-0.02094,-0.00175,0.18675,0.00000,0.00000,0.00000,50,1,57,-9,51,0,80,14,ok,2,0,0.001,3,-0.10,-0.96,12.38,24,0.050,8.28
3.0419,-0.02094,-0.00175,0.18675,0.00000,0.00000,0.00000,50,3,54,-10,52,0,81,13,ok,2,0,0.001,3,-0.10,-0.96,12.38,24,0.063,8.28
3.0544,-0.02094,-0.00175,0.18675,0.00000,0.00000,0.00000,51,5,51,-9,53,0,80,10,ok,2,0,0.001,3,-0.10,-0.96,12.38,24,0.076,8.28
3.0748,-0.02094,-0.00175,0.18675,0.00000,0.00000,0.00000,52,4,49,-9,54,0,80,7,ok,2,0,0.001,3,-0.10,-0.96,12.38,24,0.088,8.28
3.0797,-0.02094,-0.00175,0.18675,0.00000,0.00000,0.00000,53,5,46,-9,55,1,80,3,ok,2,0,0.001,3,-0.10,-0.96,12.38,24,0.101,8.28
3.0920,-0.02094,-0.00175,0.18675,0.00000,0.00000,0.00000,53,6,43,-9,56,1,79,2,ok,2,0,0.001,3,-0.10,-0.96,12.38,24,0.113,8.28
3.1148,-0.02094,-0.00175,0.18675,0.00000,0.00000,0.00000,55,6,41,-9,57,1,78,-2,ok,2,0,0.001,3,-0.10,-0.96,12.38,24,0.126,8.28
3.1181,-0.02094,-0.00175,0.18675,0.00000,0.00000,0.00000,55,6,39,-8,58,0,78,-4,ok,2,0,0.001,3,-0.10,-0.96,12.38,24,0.139,8.28
3.1305,-0.02094,-0.00175,0.18675,0.00000,0.00000,0.00000,57,7,36,-7,58,1,77,-5,ok,2,0,0.001,3,-0.10,-0.96,12.38,24,0.152,8.28
3.1508,-0.02094,-0.00175,0.18675,0.00000,0.00000,0.00000,57,8,33,-6,59,1,75,-7,ok,2,0,0.001,3,-0.10,-0.96,12.38,24,0.164,8.28
3.1555,-0.02094,-0.00175,0.18675,0.00000,0.00000,0.00000,58,8,29,-5,60,1,72,-7,ok,2,0,0.001,3,-0.10,-0.96,12.38,24,0.177,8.28
3.1681,-0.02094,-0.00175,0.18675,0.00000,0.00000,0.00000,59,9,26,-3,61,1,71,-9,ok,2,0,0.001,3,-0.10,-0.96,12.38,24,0.189,8.28
3.1908,-0.09948,-0.01047,0.22166,0.00000,0.00000,0.00000,61,10,22,-2,62,1,69,-11,ok,2,0,0.001,3,0.45,-0.88,9.58,25,0.000,8.28
3.1939,-0.09948,-0.01047,0.22166,0.00000,0.00000,0.00000,61,10,20,0,64,-2,67,-12,ok,2,0,0.001,3,0.45,-0.88,9.58,25,0.013,8.28
3.2064,-0.09948,-0.01047,0.22166,0.00000,0.00000,0.00000,62,11,18,1,64,-1,65,-13,ok,2,0,0.001,3,0.45,-0.88,9.58,25,0.026,8.28
3.2268,-0.09948,-0.01047,0.22166,0.00000,0.00000,0.00000,62,12,16,3,65,0,63,-13,ok,2,0,0.001,3,0.45,-0.88,9.58,25,0.039,8.28
3.2315,-0.09948,-0.01047,0.22166,0.00000,0.00000,0.00000,63,12,14,7,66,0,60,-14,ok,2,0,0.001,3,0.45,-0.88,9.58,25,0.051,8.28
3.2441,-0.09948,-0.01047,0.22166,0.00000,0.00000,0.00000,63,13,13,10,66,0,59,-15,ok,2,0,0.001,3,0.45,-0.88,9.58,25,0.064,8.28
3.2668,-0.09948,-0.01047,0.22166,0.00000,0.00000,0.00000,64,14,11,12,67,0,55,-13,ok,2,0,0.001,3,0.45,-0.88,9.58,25,0.076,8.28
3.2701,-0.09948,-0.01047,0.22166,0.00000,0.00000,0.00000,64,15,13,13,67,0,53,-13,ok,2,0,0.001,3,0.45,-0.88,9.58,25,0.089,8.28
3.2824,-0.09948,-0.01047,0.22166,0.00000,0.00000,0.00000,64,16,13,12,68,1,50,-12,ok,2,0,0.001,3,0.45,-0.88,9.58,25,0.102,8.28
3.3028,-0.09948,-0.01047,0.22166,0.00000,0.00000,0.00000,65,16,14,11,69,1,47,-11,ok,2,0,0.001,3,0.45,-0.88,9.58,25,0.115,8.28
3.3075,-0.09948,-0.01047,0.22166,0.00000,0.00000,0.00000,65,17,15,11,69,2,45,-11,ok,2,0,0.001,3,0.45,-0.88,9.58,25,0.127,8.28
3.3200,-0.09948,-0.01047,0.22166,0.00000,0.00000,0.00000,65,18,16,10,69,2,41,-9,ok,2,0,0.001,3,0.45,-0.88,9.58,25,0.140,8.28
3.3428,-0.09948,-0.01047,0.22166,0.00000,0.00000,0.00000,66,18,17,9,70,3,39,-9,ok,2,0,0.001,3,0.45,-0.88,9.58,25,0.152,8.28
3.3459,-0.09948,-0.01047,0.22166,0.00000,0.00000,0.00000,66,20,18,9,70,4,35,-7,ok,2,0,0.001,3,0.45,-0.88,9.58,25,0.165,8.28
3.3584,-0.09948,-0.01047,0.22166,0.00000,0.00000,0.00000,67,21,20,8,71,5,34,-6,ok,2,0,0.001,3,0.45,-0.88,9.58,25,0.178,8.28
3.3788,-0.09948,-0.01047,0.22166,0.00000,0.00000,0.00000,67,22,21,7,71,6,32,-4,ok,2,0,0.001,3,0.45,-0.88,9.58,25,0.191,8.28
3.3838,0.00873,0.03840,0.24435,0.00000,0.00000,0.00000,66,23,22,6,71,7,29,-1,ok,2,0,0.001,3,0.61,0.17,9.45,26,0.000,8.28
3.3962,0.00873,0.03840,0.24435,0.00000,0.00000,0.00000,66,24,24,6,71,8,28,1,ok,2,0,0.001,3,0.61,0.17,9.45,26,0.013,8.28
3.4188,0.00873,0.03840,0.24435,0.00000,0.00000,0.00000,65,25,25,5,71,9,27,5,ok,2,0,0.001,3,0.61,0.17,9.45,26,0.025,8.28
3.4220,0.00873,0.03840,0.24435,0.00000,0.00000,0.00000,64,28,26,5,71,10,27,7,ok,2,0,0.001,3,0.61,0.17,9.45,26,0.038,8.28
3.4345,0.00873,0.03840,0.24435,0.00000,0.00000,0.00000,64,29,27,3,71,12,29,6,ok,2,0,0.001,3,0.61,0.17,9.45,26,0.051,8.28
3.4548,0.00873,0.03840,0.24435,0.00000,0.00000,0.00000,65,28,28,3,72,13,29,5,ok,2,0,0.001,3,0.61,0.17,9.45,26,0.064,8.28
3.4595,0.00873,0.03840,0.24435,0.00000,0.00000,0.00000,68,25,30,2,72,15,30,3,ok,2,0,0.001,3,0.61,0.17,9.45,26,0.076,8.28
3.4722,0.00873,0.03840,0.24435,0.00000,0.00000,0.00000,70,21,31,2,71,16,31,3,ok,2,0,0.001,3,0.61,0.17,9.45,26,0.089,8.28
3.4948,0.00873,0.03840,0.24435,0.00000,0.00000,0.00000,71,17,33,2,71,18,33,3,ok,2,0,0.001,3,0.61,0.17,9.45,26,0.101,8.28
3.4979,0.00873,0.03840,0.24435,0.00000,0.00000,0.00000,71,15,34,2,72,18,34,2,ok,2,0,0.001,3,0.61,0.17,9.45,26,0.114,8.28
3.5104,0.00873,0.03840,0.24435,0.00000,0.00000,0.00000,71,14,35,1,71,21,36,1,ok,2,0,0.001,3,0.61,0.17,9.45,26,0.127,8.28
3.5308,0.00873,0.03840,0.24435,0.00000,0.00000,0.00000,71,11,36,1,71,22,38,1,ok,2,0,0.001,3,0.61,0.17,9.45,26,0.140,8.28
3.5355,0.00873,0.03840,0.24435,0.00000,0.00000,0.00000,70,7,38,2,71,24,39,2,ok,2,0,0.001,3,0.61,0.17,9.45,26,0.152,8.28
3.5480,0.00873,0.03840,0.24435,0.00000,0.00000,0.00000,70,5,39,2,72,25,40,1,ok,2,0,0.001,3,0.61,0.17,9.45,26,0.165,8.28
3.5708,0.00873,0.03840,0.24435,0.00000,0.00000,0.00000,69,1,41,1,71,27,42,1,ok,2,0,0.001,4,0.61,0.17,9.45,26,0.177,8.28
3.5743,0.00873,0.03840,0.24435,0.00000,0.00000,0.00000,67,-1,42,1,71,29,43,1,ok,2,0,0.001,4,0.61,0.17,9.45,26,0.191,8.28
3.5869,-0.00698,0.02793,0.33336,0.00000,0.00000,0.00000,66,-3,44,1,71,29,44,1,ok,2,0,0.001,4,-0.86,1.21,8.66,27,0.000,8.28
3.6068,-0.00698,0.02793,0.33336,0.00000,0.00000,0.00000,64,-4,44,2,72,29,45,1,ok,2,0,0.001,4,-0.86,1.21,8.66,27,0.013,8.28
3.6116,-0.00698,0.02793,0.33336,0.00000,0.00000,0.00000,63,-6,45,2,74,26,46,0,ok,2,0,0.001,4,-0.86,1.21,8.66,27,0.025,8.28
3.6243,-0.00698,0.02793,0.33336,0.00000,0.00000,0.00000,62,-8,47,2,76,22,47,0,ok,2,0,0.001,4,-0.86,1.21,8.66,27,0.038,8.28
3.6468,-0.00698,0.02793,0.33336,0.00000,0.00000,0.00000,60,-9,48,3,77,17,49,0,ok,2,0,0.001,4,-0.86,1.21,8.66,27,0.050,8.28
3.6500,-0.00698,0.02793,0.33336,0.00000,0.00000,0.00000,58,-10,49,3,79,14,49,0,ok,2,0,0.001,4,-0.86,1.21,8.66,27,0.063,8.28
3.6624,-0.00698,0.02793,0.33336,0.00000,0.00000,0.00000,55,-11,50,3,79,13,50,0,ok,2,0,0.001,4,-0.86,1.21,8.66,27,0.076,8.28
3.6828,-0.00698,0.02793,0.33336,0.00000,0.00000,0.00000,53,-12,50,5,79,11,51,0,ok,2,0,0.001,4,-0.86,1.21,8.66,27,0.088,8.28
3.6875,-0.00698,0.02793,0.33336,0.00000,0.00000,0.00000,50,-12,52,6,79,8,52,0,ok,2,0,0.001,4,-0.86,1.21,8.66,27,0.101,8.28
3.7001,-0.00698,0.02793,0.33336,0.00000,0.00000,0.00000,48,-12,53,5,78,5,53,0,ok,2,0,0.001,4,-0.86,1.21,8.66,27,0.113,8.28
3.7268,-0.00698,0.02793,0.33336,0.00000,0.00000,0.00000,45,-11,54,6,77,2,54,0,ok,2,0,0.001,4,-0.86,1.21,8.66,27,0.126,8.28
3.7302,-0.00698,0.02793,0.33336,0.00000,0.00000,0.00000,43,-11,54,7,77,-1,54,1,ok,2,0,0.001,4,-0.86,1.21,8.66,27,0.143,8.28
3.7424,-0.00698,0.02793,0.33336,0.00000,0.00000,0.00000,41,-11,56,7,76,-3,55,0,ok,2,0,0.001,4,-0.86,1.21,8.66,27,0.156,8.28
3.7628,-0.00698,0.02793,0.33336,0.00000,0.00000,0.00000,38,-10,56,7,75,-5,56,0,ok,2,0,0.001,4,-0.86,1.21,8.66,27,0.168,8.28
3.7675,-0.00698,0.02793,0.33336,0.00000,0.00000,0.00000,35,-9,57,7,73,-8,57,-1,ok,2,0,0.001,4,-0.86,1.21,8.66,27,0.181,8.28
3.7804,0.10996,-0.04887,0.33161,0.00000,0.00000,0.00000,32,-8,58,8,71,-7,57,0,ok,2,0,0.001,4,0.06,1.40,9.49,28,0.000,8.28
3.8028,0.10996,-0.04887,0.33161,0.00000,0.00000,0.00000,29,-6,58,8,69,-9,58,0,ok,2,0,0.001,4,0.06,1.40,9.49,28,0.013,8.28
3.8059,0.10996,-0.04887,0.33161,0.00000,0.00000,0.00000,26,-4,59,9,68,-11,59,0,ok,2,0,0.001,4,0.06,1.40,9.49,28,0.026,8.28
3.8184,0.10996,-0.04887,0.33161,0.00000,0.00000,0.00000,22,-2,61,11,66,-12,60,-1,ok,2,0,0.001,4,0.06,1.40,9.49,28,0.038,8.28
3.8388,0.10996,-0.04887,0.33161,0.00000,0.00000,0.00000,20,-1,62,11,64,-13,61,-1,ok,2,0,0.001,4,0.06,1.40,9.49,28,0.051,8.28
3.8435,0.10996,-0.04887,0.33161,0.00000,0.00000,0.00000,18,1,62,11,62,-13,63,-3,ok,2,0,0.001,4,0.06,1.40,9.49,28,0.063,8.28
3.8560,0.10996,-0.04887,0.33161,0.00000,0.00000,0.00000,16,3,63,12,59,-14,63,-2,ok,2,0,0.001,4,0.06,1.40,9.49,28,0.076,8.28
3.8788,0.10996,-0.04887,0.33161,0.00000,0.00000,0.00000,14,7,63,13,58,-15,64,-2,ok,2,0,0.001,4,0.06,1.40,9.49,28,0.089,8.28
3.8819,0.10996,-0.04887,0.33161,0.00000,0.00000,0.00000,13,10,63,14,55,-14,65,-1,ok,2,0,0.001,4,0.06,1.40,9.49,28,0.102,8.28
3.8947,0.10996,-0.04887,0.33161,0.00000,0.00000,0.00000,11,13,64,15,52,-13,66,-1,ok,2,0,0.001,4,0.06,1.40,9.49,28,0.114,8.28
3.9148,0.10996,-0.04887,0.33161,0.00000,0.00000,0.00000,13,13,64,16,49,-13,66,0,ok,2,0,0.001,4,0.06,1.40,9.49,28,0.127,8.28
3.9195,0.10996,-0.04887,0.33161,0.00000,0.00000,0.00000,13,13,64,17,46,-12,67,-1,ok,2,0,0.001,4,0.06,1.40,9.49,28,0.139,8.28
3.9321,0.10996,-0.04887,0.33161,0.00000,0.00000,0.00000,14,12,65,17,44,-12,68,0,ok,2,0,0.001,4,0.06,1.40,9.49,28,0.152,8.28
3.9548,0.10996,-0.04887,0.33161,0.00000,0.00000,0.00000,16,12,65,18,41,-10,69,0,ok,2,0,0.001,4,0.06,1.40,9.49,28,0.164,8.28
3.9581,0.10996,-0.04887,0.33161,0.00000,0.00000,0.00000,16,11,65,19,38,-10,69,1,ok,2,0,0.001,4,0.06,1.40,9.49,28,0.178,8.28
3.9704,0.10996,-0.04887,0.33161,0.00000,0.00000,0.00000,18,10,66,19,35,-8,70,2,ok,2,0,0.001,4,0.06,1.40,9.49,28,0.191,8.28
3.9908,0.10996,-0.04887,0.33161,0.00000,0.00000,0.00000,19,10,66,21,33,-7,71,2,ok,2,0,0.001,4,0.06,1.40,9.49,28,0.203,8.28
3.9957,0.03491,0.03316,0.36128,0.00000,0.00000,0.00000,21,9,66,21,31,-5,71,4,ok,2,0,0.001,4,1.09,0.25,8.63,29,0.000,8.28
4.0080,0.03491,0.03316,0.36128,0.00000,0.00000,0.00000,22,8,66,22,29,-2,72,5,ok,2,0,0.001,4,1.09,0.25,8.63,29,0.013,8.28
4.0308,0.03491,0.03316,0.36128,0.00000,0.00000,0.00000,24,7,65,23,28,0,72,6,ok,2,0,0.001,4,1.09,0.25,8.63,29,0.025,8.28
4.0339,0.03491,0.03316,0.36128,0.00000,0.00000,0.00000,25,6,65,24,26,4,72,7,ok,2,0,0.001,4,1.09,0.25,8.63,29,0.038,8.28
4.0466,0.03491,0.03316,0.36128,0.00000,0.00000,0.00000,26,6,65,25,26,6,72,8,ok,2,0,0.001,4,1.09,0.25,8.63,29,0.051,8.28
4.0668,0.03491,0.03316,0.36128,0.00000,0.00000,0.00000,27,5,64,28,28,6,73,9,ok,2,0,0.001,4,1.09,0.25,8.63,29,0.064,8.28
4.0715,0.03491,0.03316,0.36128,0.00000,0.00000,0.00000,28,4,64,29,28,5,73,11,ok,2,0,0.001,4,1.09,0.25,8.63,29,0.076,8.28
4.0841,0.03491,0.03316,0.36128,0.00000,0.00000,0.00000,30,4,65,28,29,3,73,12,ok,2,0,0.001,4,1.09,0.25,8.63,29,0.089,8.28
4.1068,0.03491,0.03316,0.36128,0.00000,0.00000,0.00000,31,3,67,25,30,3,73,14,ok,2,0,0.001,4,1.09,0.25,8.63,29,0.101,8.28
4.1099,0.03491,0.03316,0.36128,0.00000,0.00000,0.00000,32,3,70,21,32,3,73,15,ok,2,0,0.001,4,1.09,0.25,8.63,29,0.114,8.28
4.1225,0.03491,0.03316,0.36128,0.00000,0.00000,0.00000,33,2,71,17,33,2,73,17,ok,2,0,0.001,4,1.09,0.25,8.63,29,0.127,8.28
4.1428,0.03491,0.03316,0.36128,0.00000,0.00000,0.00000,34,2,71,15,34,1,73,19,ok,2,0,0.001,4,1.09,0.25,8.63,29,0.140,8.28
4.1475,0.03491,0.03316,0.36128,0.00000,0.00000,0.00000,36,1,71,14,37,1,73,20,ok,2,0,0.001,4,1.09,0.25,8.63,29,0.152,8.28
4.1601,0.03491,0.03316,0.36128,0.00000,0.00000,0.00000,37,1,71,11,37,1,72,22,ok,2,0,0.001,4,1.09,0.25,8.63,29,0.165,8.28
4.1828,0.03491,0.03316,0.36128,0.00000,0.00000,0.00000,39,1,71,8,39,2,72,23,ok,2,0,0.001,4,1.09,0.25,8.63,29,0.177,8.28
4.1859,0.03491,0.03316,0.36128,0.00000,0.00000,0.00000,40,1,70,5,40,1,73,24,ok,2,0,0.001,4,1.09,0.25,8.63,29,0.190,8.28
4.1987,-0.02793,-0.02443,0.29147,0.00000,0.00000,0.00000,42,0,70,3,41,2,73,26,ok,2,0,0.001,4,0.11,-0.71,8.22,30,0.000,8.28
4.2188,-0.02793,-0.02443,0.29147,0.00000,0.00000,0.00000,43,0,69,1,42,1,72,28,ok,2,0,0.001,4,0.11,-0.71,8.22,30,0.013,8.28
4.2237,-0.02793,-0.02443,0.29147,0.00000,0.00000,0.00000,45,0,68,-1,43,0,72,29,ok,2,0,0.001,4,0.11,-0.71,8.22,30,0.025,8.28
4.2360,-0.02793,-0.02443,0.29147,0.00000,0.00000,0.00000,45,0,65,-2,45,-1,73,29,ok,2,0,0.001,4,0.11,-0.71,8.22,30,0.038,8.28
4.2588,-0.02793,-0.02443,0.29147,0.00000,0.00000,0.00000,47,0,64,-4,46,0,74,28,ok,2,0,0.001,4,0.11,-0.71,8.22,30,0.050,8.28
4.2619,-0.02793,-0.02443,0.29147,0.00000,0.00000,0.00000,48,0,64,-6,47,0,76,26,ok,2,0,0.001,4,0.11,-0.71,8.22,30,0.063,8.28
4.2744,-0.02793,-0.02443,0.29147,0.00000,0.00000,0.00000,49,1,61,-7,48,0,78,20,ok,2,0,0.001,4,0.11,-0.71,8.22,30,0.076,8.28
4.2948,-0.02793,-0.02443,0.29147,0.00000,0.00000,0.00000,50,1,59,-8,49,0,79,17,ok,2,0,0.001,4,0.11,-0.71,8.22,30,0.089,8.28
4.2996,-0.02793,-0.02443,0.29147,0.00000,0.00000,0.00000,50,1,57,-8,50,0,81,14,ok,2,0,0.001,4,0.11,-0.71,8.22,30,0.101,8.28
4.3120,-0.02793,-0.02443,0.29147,0.00000,0.00000,0.00000,50,3,54,-9,52,0,81,13,ok,2,0,0.001,4,0.11,-0.71,8.22,30,0.114,8.28
4.3348,-0.02793,-0.02443,0.29147,0.00000,0.00000,0.00000,52,4,52,-9,53,0,81,10,ok,2,0,0.001,4,0.11,-0.71,8.22,30,0.126,8.28
4.3380,-0.02793,-0.02443,0.29147,0.00000,0.00000,0.00000,52,4,49,-9,54,0,80,7,ok,2,0,0.001,4,0.11,-0.71,8.22,30,0.139,8.28
4.3506,-0.02793,-0.02443,0.29147,0.00000,0.00000,0.00000,53,5,46,-9,55,1,80,3,ok,2,0,0.001,4,0.11,-0.71,8.22,30,0.152,8.28
4.3708,-0.02793,-0.02443,0.29147,0.00000,0.00000,0.00000,53,6,43,-9,56,0,79,2,ok,2,0,0.001,4,0.11,-0.71,8.22,30,0.165,8.28
4.3754,-0.02793,-0.02443,0.29147,0.00000,0.00000,0.00000,55,6,41,-9,57,1,78,-2,ok,2,0,0.001,4,0.11,-0.71,8.22,30,0.177,8.28
4.3883,-0.02793,-0.02443,0.29147,0.00000,0.00000,0.00000,56,6,39,-8,58,0,78,-3,ok,2,0,0.001,4,0.11,-0.71,8.22,30,0.190,8.28
4.4108,-0.08727,-0.01047,0.35081,0.00000,0.00000,0.00000,57,7,36,-7,58,1,77,-5,ok,2,0,0.001,4,0.50,-1.25,9.74,31,0.000,8.28
4.4139,-0.08727,-0.01047,0.35081,0.00000,0.00000,0.00000,57,8,33,-6,59,1,75,-7,ok,2,0,0.001,4,0.50,-1.25,9.74,31,0.013,8.28
4.4264,-0.08727,-0.01047,0.35081,0.00000,0.00000,0.00000,58,8,29,-5,60,1,72,-7,ok,2,0,0.001,4,0.50,-1.25,9.74,31,0.026,8.28
4.4468,-0.08727,-0.01047,0.35081,0.00000,0.00000,0.00000,59,9,26,-3,61,1,71,-9,ok,2,0,0.001,4,0.50,-1.25,9.74,31,0.039,8.28
4.4515,-0.08727,-0.01047,0.35081,0.00000,0.00000,0.00000,61,10,22,-1,62,0,69,-11,ok,2,0,0.001,4,0.50,-1.25,9.74,31,0.051,8.28
4.4640,-0.08727,-0.01047,0.35081,0.00000,0.00000,0.00000,61,10,20,0,64,-2,67,-12,ok,2,0,0.001,4,0.50,-1.25,9.74,31,0.064,8.28
4.4868,-0.08727,-0.01047,0.35081,0.00000,0.00000,0.00000,62,11,18,1,64,-1,65,-13,ok,2,0,0.001,4,0.50,-1.25,9.74,31,0.076,8.28
4.4900,-0.08727,-0.01047,0.35081,0.00000,0.00000,0.00000,62,12,16,3,65,0,63,-14,ok,2,0,0.001,4,0.50,-1.25,9.74,31,0.089,8.28
4.5026,-0.08727,-0.01047,0.35081,0.00000,0.00000,0.00000,63,12,14,7,66,0,60,-14,ok,2,0,0.001,4,0.50,-1.25,9.74,31,0.102,8.28
4.5228,-0.08727,-0.01047,0.35081,0.00000,0.00000,0.00000,63,13,13,10,66,0,59,-15,ok,2,0,0.001,4,0.50,-1.25,9.74,31,0.115,8.28
4.5275,-0.08727,-0.01047,0.35081,0.00000,0.00000,0.00000,64,14,11,12,67,0,55,-13,ok,2,0,0.001,4,0.50,-1.25,9.74,31,0.127,8.28
4.5401,-0.08727,-0.01047,0.35081,0.00000,0.00000,0.00000,64,15,13,13,67,0,53,-13,ok,2,0,0.001,4,0.50,-1.25,9.74,31,0.140,8.28
4.5628,-0.08727,-0.01047,0.35081,0.00000,0.00000,0.00000,64,16,13,12,68,1,50,-12,ok,2,0,0.001,4,0.50,-1.25,9.74,31,0.152,8.28
4.5659,-0.08727,-0.01047,0.35081,0.00000,0.00000,0.00000,65,17,14,11,69,1,47,-11,ok,2,0,0.001,4,0.50,-1.25,9.74,31,0.165,8.28
4.5785,-0.08727,-0.01047,0.35081,0.00000,0.00000,0.00000,65,17,15,11,69,2,45,-11,ok,2,0,0.001,5,0.50,-1.25,9.74,31,0.178,8.28
4.5988,-0.08727,-0.01047,0.35081,0.00000,0.00000,0.00000,66,18,16,10,69,2,41,-9,ok,2,0,0.001,5,0.50,-1.25,9.74,31,0.191,8.28
4.6037,-0.01222,0.02094,0.34907,0.00000,0.00000,0.00000,66,18,17,9,70,3,39,-9,ok,2,0,0.001,5,0.02,0.32,9.47,32,0.000,8.28
4.6161,-0.01222,0.02094,0.34907,0.00000,0.00000,0.00000,66,20,18,9,70,5,35,-7,ok,2,0,0.001,5,0.02,0.32,9.47,32,0.013,8.28
4.6388,-0.01222,0.02094,0.34907,0.00000,0.00000,0.00000,67,21,20,8,71,5,34,-6,ok,2,0,0.001,5,0.02,0.32,9.47,32,0.025,8.28
4.6419,-0.01222,0.02094,0.34907,0.00000,0.00000,0.00000,67,22,21,7,71,6,32,-4,ok,2,0,0.001,5,0.02,0.32,9.47,32,0.038,8.28
4.6547,-0.01222,0.02094,0.34907,0.00000,0.00000,0.00000,66,23,22,6,71,7,30,-1,ok,2,0,0.001,5,0.02,0.32,9.47,32,0.051,8.28
4.6748,-0.01222,0.02094,0.34907,0.00000,0.00000,0.00000,66,24,23,6,71,8,28,1,ok,2,0,0.001,5,0.02,0.32,9.47,32,0.064,8.28
4.6795,-0.01222,0.02094,0.34907,0.00000,0.00000,0.00000,66,25,25,5,71,9,27,5,ok,2,0,0.001,5,0.02,0.32,9.47,32,0.076,8.28
4.6921,-0.01222,0.02094,0.34907,0.00000,0.00000,0.00000,65,28,26,5,71,10,27,7,ok,2,0,0.001,5,0.02,0.32,9.47,32,0.089,8.28
4.7148,-0.01222,0.02094,0.34907,0.00000,0.00000,0.00000,64,29,27,4,71,12,29,6,ok,2,0,0.001,5,0.02,0.32,9.47,32,0.101,8.28
4.7179,-0.01222,0.02094,0.34907,0.00000,0.00000,0.00000,66,28,28,3,71,13,29,5,ok,2,0,0.001,5,0.02,0.32,9.47,32,0.114,8.28
4.7304,-0.01222,0.02094,0.34907,0.00000,0.00000,0.00000,68,25,30,3,72,14,30,3,ok,2,0,0.001,5,0.02,0.32,9.47,32,0.127,8.28
4.7508,-0.01222,0.02094,0.34907,0.00000,0.00000,0.00000,70,21,31,2,71,16,32,3,ok,2,0,0.001,5,0.02,0.32,9.47,32,0.140,8.28
4.7555,-0.01222,0.02094,0.34907,0.00000,0.00000,0.00000,71,17,33,2,71,18,33,3,ok,2,0,0.001,5,0.02,0.32,9.47,32,0.152,8.28
4.7680,-0.01222,0.02094,0.34907,0.00000,0.00000,0.00000,72,15,34,2,72,18,34,2,ok,2,0,0.001,5,0.02,0.32,9.47,32,0.165,8.28
4.7908,-0.01222,0.02094,0.34907,0.00000,0.00000,0.00000,71,14,35,1,71,21,36,1,ok,2,0,0.001,5,0.02,0.32,9.47,32,0.177,8.28
4.7942,-0.01745,0.01222,0.46949,0.00000,0.00000,0.00000,71,11,36,1,71,22,38,1,ok,2,0,0.001,5,0.45,-0.18,11.00,33,0.000,8.28
4.8064,-0.01745,0.01222,0.46949,0.00000,0.00000,0.00000,71,7,38,2,71,24,39,2,ok,2,0,0.001,5,0.45,-0.18,11.00,33,0.013,8.28
4.8268,-0.01745,0.01222,0.46949,0.00000,0.00000,0.00000,70,5,39,2,71,25,40,1,ok,2,0,0.001,5,0.45,-0.18,11.00,33,0.025,8.28
4.8315,-0.01745,0.01222,0.46949,0.00000,0.00000,0.00000,69,1,41,2,71,27,42,1,ok,2,0,0.001,5,0.45,-0.18,11.00,33,0.038,8.28
4.8441,-0.01745,0.01222,0.46949,0.00000,0.00000,0.00000,68,-1,42,1,71,28,43,1,ok,2,0,0.001,5,0.45,-0.18,11.00,33,0.050,8.28
4.8668,-0.01745,0.01222,0.46949,0.00000,0.00000,0.00000,67,-3,44,2,71,29,44,1,ok,2,0,0.001,5,0.45,-0.18,11.00,33,0.063,8.28
4.8700,-0.01745,0.01222,0.46949,0.00000,0.00000,0.00000,64,-4,44,2,72,28,45,1,ok,2,0,0.001,5,0.45,-0.18,11.00,33,0.076,8.28
4.8824,-0.01745,0.01222,0.46949,0.00000,0.00000,0.00000,63,-6,45,2,74,26,46,0,ok,2,0,0.001,5,0.45,-0.18,11.00,33,0.089,8.28
4.9028,-0.01745,0.01222,0.46949,0.00000,0.00000,0.00000,63,-8,47,2,76,21,47,0,ok,2,0,0.001,5,0.45,-0.18,11.00,33,0.101,8.28
4.9075,-0.01745,0.01222,0.46949,0.00000,0.00000,0.00000,60,-9,48,3,77,17,49,0,ok,2,0,0.001,5,0.45,-0.18,11.00,33,0.114,8.28
4.9200,-0.01745,0.01222,0.46949,0.00000,0.00000,0.00000,58,-10,49,3,79,14,49,0,ok,2,0,0.001,5,0.45,-0.18,11.00,33,0.126,8.28
4.9428,-0.01745,0.01222,0.46949,0.00000,0.00000,0.00000,56,-11,50,3,79,13,50,0,ok,2,0,0.001,5,0.45,-0.18,11.00,33,0.139,8.28
4.9460,-0.01745,0.01222,0.46949,0.00000,0.00000,0.00000,53,-12,50,5,79,11,51,0,ok,2,0,0.001,5,0.45,-0.18,11.00,33,0.152,8.28
4.9584,-0.01745,0.01222,0.46949,0.00000,0.00000,0.00000,51,-11,52,6,79,7,52,0,ok,2,0,0.001,5,0.45,-0.18,11.00,33,0.165,8.28
4.9788,-0.01745,0.01222,0.46949,0.00000,0.00000,0.00000,48,-11,52,5,78,4,53,0,ok,2,0,0.001,5,0.45,-0.18,11.00,33,0.177,8.28
4.9835,-0.01745,0.01222,0.46949,0.00000,0.00000,0.00000,46,-11,53,6,77,2,54,0,ok,2,0,0.001,5,0.45,-0.18,11.00,33,0.190,8.28
4.9963,0.11345,-0.00524,0.46775,0.00000,0.00000,0.00000,43,-11,54,7,77,-1,54,1,ok,2,0,0.001,5,0.57,1.43,9.30,34,0.000,8.28
5.0188,0.11345,-0.00524,0.46775,0.00000,0.00000,0.00000,41,-11,56,7,76,-3,55,-1,ok,2,0,0.001,5,0.57,1.43,9.30,34,0.013,8.28
5.0305,0.11345,-0.00524,0.46775,0.00000,0.00000,0.00000,38,-10,56,7,75,-4,56,0,ok,2,0,0.001,5,0.57,1.43,9.30,34,0.026,8.28
5.0344,0.11345,-0.00524,0.46775,0.00000,0.00000,0.00000,35,-9,57,7,73,-7,57,-1,ok,2,0,0.001,5,0.57,1.43,9.30,34,0.039,8.28
5.0548,0.11345,-0.00524,0.46775,0.00000,0.00000,0.00000,33,-8,58,8,70,-7,57,-1,ok,2,0,0.001,5,0.57,1.43,9.30,34,0.051,8.28
5.0595,0.11345,-0.00524,0.46775,0.00000,0.00000,0.00000,29,-6,58,8,69,-9,58,0,ok,2,0,0.001,5,0.57,1.43,9.30,34,0.064,8.28
5.0721,0.11345,-0.00524,0.46775,0.00000,0.00000,0.00000,27,-4,59,9,68,-11,59,0,ok,2,0,0.001,5,0.57,1.43,9.30,34,0.076,8.28
5.0948,0.11345,-0.00524,0.46775,0.00000,0.00000,0.00000,22,-2,60,10,66,-12,60,0,ok,2,0,0.001,5,0.57,1.43,9.30,34,0.089,8.28
5.0979,0.11345,-0.00524,0.46775,0.00000,0.00000,0.00000,21,-1,61,11,64,-13,61,0,ok,2,0,0.001,5,0.57,1.43,9.30,34,0.102,8.28
5.1106,0.11345,-0.00524,0.46775,0.00000,0.00000,0.00000,19,1,62,11,62,-13,63,-3,ok,2,0,0.001,5,0.57,1.43,9.30,34,0.114,8.28
5.1308,0.11345,-0.00524,0.46775,0.00000,0.00000,0.00000,17,3,62,12,59,-14,63,-1,ok,2,0,0.001,5,0.57,1.43,9.30,34,0.127,8.28
5.1355,0.11345,-0.00524,0.46775,0.00000,0.00000,0.00000,15,7,63,13,57,-14,65,-2,ok,2,0,0.002,5,0.57,1.43,9.30,34,0.139,8.28
5.1480,0.11345,-0.00524,0.46775,0.00000,0.00000,0.00000,13,10,63,14,54,-14,65,-1,ok,2,0,0.002,5,0.57,1.43,9.30,34,0.152,8.28
5.1708,0.11345,-0.00524,0.46775,0.00000,0.00000,0.00000,11,13,63,15,52,-13,66,-1,ok,2,0,0.002,5,0.57,1.43,9.30,34,0.164,8.28
5.1739,0.11345,-0.00524,0.46775,0.00000,0.00000,0.00000,13,13,64,16,49,-13,67,0,ok,2,0,0.002,5,0.57,1.43,9.30,34,0.178,8.28
5.1865,0.11345,-0.00524,0.46775,0.00000,0.00000,0.00000,13,13,64,17,46,-12,67,-1,ok,2,0,0.002,5,0.57,1.43,9.30,34,0.191,8.28
5.2068,0.08901,0.01396,0.48695,0.00000,0.00000,0.00000,15,12,64,17,44,-11,68,0,ok,2,0,0.002,5,-0.39,0.60,9.87,35,0.000,8.28
5.2115,0.08901,0.01396,0.48695,0.00000,0.00000,0.00000,16,12,65,18,41,-10,69,0,ok,2,0,0.002,5,-0.39,0.60,9.87,35,0.013,8.28
5.2240,0.08901,0.01396,0.48695,0.00000,0.00000,0.00000,17,11,65,19,38,-9,70,2,ok,2,0,0.002,5,-0.39,0.60,9.87,35,0.025,8.28
5.2469,0.08901,0.01396,0.48695,0.00000,0.00000,0.00000,18,10,65,19,35,-8,70,2,ok,2,0,0.002,5,-0.39,0.60,9.87,35,0.038,8.28
5.2505,0.08901,0.01396,0.48695,0.00000,0.00000,0.00000,19,10,65,21,33,-6,71,3,ok,2,0,0.002,5,-0.39,0.60,9.87,35,0.051,8.28
5.2628,0.08901,0.01396,0.48695,0.00000,0.00000,0.00000,21,8,66,21,31,-5,71,4,ok,2,0,0.002,5,-0.39,0.60,9.87,35,0.064,8.28
5.2869,0.08901,0.01396,0.48695,0.00000,0.00000,0.00000,22,8,66,22,29,-2,72,5,ok,2,0,0.002,5,-0.39,0.60,9.87,35,0.076,8.28
5.2909,0.08901,0.01396,0.48695,0.00000,0.00000,0.00000,24,7,65,23,28,1,72,6,ok,2,0,0.002,5,-0.39,0.60,9.87,35,0.092,8.28
5.3033,0.08901,0.01396,0.48695,0.00000,0.00000,0.00000,25,6,65,24,26,4,72,7,ok,2,0,0.002,5,-0.39,0.60,9.87,35,0.104,8.28
5.3268,0.08901,0.01396,0.48695,0.00000,0.00000,0.00000,26,6,65,25,26,6,72,8,ok,2,0,0.002,5,-0.39,0.60,9.87,35,0.117,8.28
5.3300,0.08901,0.01396,0.48695,0.00000,0.00000,0.00000,27,5,64,28,28,6,73,9,ok,2,0,0.002,5,-0.39,0.60,9.87,35,0.131,8.28
5.3424,0.08901,0.01396,0.48695,0.00000,0.00000,0.00000,29,4,64,29,28,6,73,11,ok,0,0,0.002,5,-0.39,0.60,9.87,35,0.144,8.28
5.3628,0.08901,0.01396,0.48695,0.00000,0.00000,0.00000,30,4,65,28,29,4,73,12,ok,0,0,0.002,5,-0.39,0.60,9.87,35,0.156,8.28
5.3675,0.08901,0.01396,0.48695,0.00000,0.00000,0.00000,31,3,67,25,30,3,73,14,ok,2,0,0.002,5,-0.39,0.60,9.87,35,0.169,8.28
5.3801,0.08901,0.01396,0.48695,0.00000,0.00000,0.00000,32,3,70,21,32,3,73,15,ok,2,0,0.002,5,-0.39,0.60,9.87,35,0.181,8.28
5.4028,0.08901,0.01396,0.48695,0.00000,0.00000,0.00000,34,2,71,17,33,2,73,17,ok,2,0,0.002,5,-0.39,0.60,9.87,35,0.194,8.28
5.4062,0.03142,0.07156,0.45204,0.00000,0.00000,0.00000,35,2,71,15,34,1,73,19,ok,2,0,0.002,5,-0.10,0.56,9.30,36,0.000,8.28
5.4184,0.03142,0.07156,0.45204,0.00000,0.00000,0.00000,37,1,71,14,37,2,74,20,ok,2,0,0.002,5,-0.10,0.56,9.30,36,0.013,8.28
5.4388,0.03142,0.07156,0.45204,0.00000,0.00000,0.00000,38,1,71,11,37,2,73,22,ok,2,0,0.002,5,-0.10,0.56,9.30,36,0.025,8.28
5.4437,0.03142,0.07156,0.45204,0.00000,0.00000,0.00000,40,1,71,8,39,2,72,24,ok,0,0,0.002,5,-0.10,0.56,9.30,36,0.038,8.28
5.4561,0.03142,0.07156,0.45204,0.00000,0.00000,0.00000,41,1,70,5,40,1,73,25,ok,0,0,0.002,5,-0.10,0.56,9.30,36,0.050,8.28
5.4788,0.03142,0.07156,0.45204,0.00000,0.00000,0.00000,42,0,69,3,41,2,73,26,ok,0,0,0.002,5,-0.10,0.56,9.30,36,0.063,8.28
5.4820,0.03142,0.07156,0.45204,0.00000,0.00000,0.00000,43,0,68,1,42,1,72,28,ok,0,0,0.002,5,-0.10,0.56,9.30,36,0.076,8.28
5.4947,0.03142,0.07156,0.45204,0.00000,0.00000,0.00000,45,0,67,-1,44,1,72,29,ok,0,0,0.002,5,-0.10,0.56,9.30,36,0.089,8.28
5.5148,0.03142,0.07156,0.45204,0.00000,0.00000,0.00000,45,0,65,-2,45,0,73,29,ok,0,0,0.002,5,-0.10,0.56,9.30,36,0.101,8.28
5.5195,0.03142,0.07156,0.45204,0.00000,0.00000,0.00000,47,0,64,-4,46,1,74,28,ok,0,0,0.002,5,-0.10,0.56,9.30,36,0.114,8.28
5.5321,0.03142,0.07156,0.45204,0.00000,0.00000,0.00000,48,0,63,-6,47,1,76,26,ok,0,0,0.002,5,-0.10,0.56,9.30,36,0.126,8.28
5.5548,0.03142,0.07156,0.45204,0.00000,0.00000,0.00000,49,1,61,-7,48,1,78,21,ok,2,0,0.002,5,-0.10,0.56,9.30,36,0.139,8.28
5.5579,0.03142,0.07156,0.45204,0.00000,0.00000,0.00000,51,1,59,-8,49,0,79,17,ok,2,0,0.002,5,-0.10,0.56,9.30,36,0.152,8.28
5.5707,0.03142,0.07156,0.45204,0.00000,0.00000,0.00000,51,1,56,-9,50,1,81,14,ok,2,0,0.002,5,-0.10,0.56,9.30,36,0.165,8.28
5.5908,0.03142,0.07156,0.45204,0.00000,0.00000,0.00000,51,3,54,-10,52,1,81,13,ok,2,0,0.002,5,-0.10,0.56,9.30,36,0.177,8.28
5.5957,0.03142,0.07156,0.45204,0.00000,0.00000,0.00000,52,4,51,-10,53,1,81,11,ok,2,0,0.002,6,-0.10,0.56,9.30,36,0.190,8.28
5.6083,-0.10472,0.00349,0.52709,0.00000,0.00000,0.00000,53,4,48,-10,54,1,81,7,ok,2,0,0.002,6,0.26,-1.22,11.83,37,0.000,8.28
5.6308,-0.10472,0.00349,0.52709,0.00000,0.00000,0.00000,53,5,46,-9,55,1,80,4,ok,2,0,0.002,6,0.26,-1.22,11.83,37,0.013,8.28
5.6339,-0.10472,0.00349,0.52709,0.00000,0.00000,0.00000,54,5,43,-9,55,1,80,3,ok,2,0,0.002,6,0.26,-1.22,11.83,37,0.026,8.28
5.6467,-0.10472,0.00349,0.52709,0.00000,0.00000,0.00000,56,6,41,-9,57,1,79,-1,ok,2,0,0.002,6,0.26,-1.22,11.83,37,0.039,8.28
5.6668,-0.10472,0.00349,0.52709,0.00000,0.00000,0.00000,56,6,39,-8,58,0,79,-3,ok,2,0,0.002,6,0.26,-1.22,11.83,37,0.051,8.28
5.6715,-0.10472,0.00349,0.52709,0.00000,0.00000,0.00000,58,7,35,-7,58,1,77,-5,ok,2,0,0.002,6,0.26,-1.22,11.83,37,0.064,8.28
5.6841,-0.10472,0.00349,0.52709,0.00000,0.00000,0.00000,58,8,33,-6,59,2,75,-7,ok,2,0,0.002,6,0.26,-1.22,11.83,37,0.076,8.28
5.7068,-0.10472,0.00349,0.52709,0.00000,0.00000,0.00000,59,8,29,-5,60,1,72,-7,ok,2,0,0.002,6,0.26,-1.22,11.83,37,0.089,8.28
5.7098,-0.10472,0.00349,0.52709,0.00000,0.00000,0.00000,59,8,26,-3,61,2,71,-9,ok,2,0,0.002,6,0.26,-1.22,11.83,37,0.102,8.28
5.7227,-0.10472,0.00349,0.52709,0.00000,0.00000,0.00000,61,10,22,-1,62,1,70,-11,ok,2,0,0.002,6,0.26,-1.22,11.83,37,0.114,8.28
5.7428,-0.10472,0.00349,0.52709,0.00000,0.00000,0.00000,61,10,20,0,64,-1,67,-12,ok,2,0,0.002,6,0.26,-1.22,11.83,37,0.127,8.28
5.7475,-0.10472,0.00349,0.52709,0.00000,0.00000,0.00000,62,11,18,1,64,-1,65,-13,ok,2,0,0.002,6,0.26,-1.22,11.83,37,0.140,8.28
5.7601,-0.10472,0.00349,0.52709,0.00000,0.00000,0.00000,63,12,16,3,65,0,63,-13,ok,2,0,0.002,6,0.26,-1.22,11.83,37,0.152,8.28
5.7828,-0.10472,0.00349,0.52709,0.00000,0.00000,0.00000,63,12,14,7,66,0,60,-14,ok,2,0,0.002,6,0.26,-1.22,11.83,37,0.165,8.28
5.7859,-0.10472,0.00349,0.52709,0.00000,0.00000,0.00000,63,13,13,10,66,0,59,-14,ok,2,0,0.002,6,0.26,-1.22,11.83,37,0.178,8.28
5.7988,-0.04014,-0.00349,0.52883,0.00000,0.00000,0.00000,64,14,11,12,67,0,55,-13,ok,2,0,0.002,6,-0.25,0.07,10.43,38,0.000,8.28
5.8188,-0.04014,-0.00349,0.52883,0.00000,0.00000,0.00000,64,15,13,13,67,1,53,-12,ok,2,0,0.002,6,-0.25,0.07,10.43,38,0.013,8.28
5.8235,-0.04014,-0.00349,0.52883,0.00000,0.00000,0.00000,64,16,13,13,68,1,50,-12,ok,2,0,0.002,6,-0.25,0.07,10.43,38,0.025,8.28
5.8360,-0.04014,-0.00349,0.52883,0.00000,0.00000,0.00000,65,17,14,11,68,1,47,-11,ok,2,0,0.002,6,-0.25,0.07,10.43,38,0.038,8.28
5.8588,-0.04014,-0.00349,0.52883,0.00000,0.00000,0.00000,65,18,15,11,69,2,45,-11,ok,2,0,0.002,6,-0.25,0.07,10.43,38,0.050,8.28
5.8620,-0.04014,-0.00349,0.52883,0.00000,0.00000,0.00000,66,18,16,10,69,3,41,-9,ok,2,0,0.002,6,-0.25,0.07,10.43,38,0.063,8.28
5.8744,-0.04014,-0.00349,0.52883,0.00000,0.00000,0.00000,66,19,17,9,70,3,39,-9,ok,2,0,0.002,6,-0.25,0.07,10.43,38,0.076,8.28
5.8948,-0.04014,-0.00349,0.52883,0.00000,0.00000,0.00000,66,20,18,9,70,4,35,-7,ok,2,0,0.002,6,-0.25,0.07,10.43,38,0.089,8.28
5.8996,-0.04014,-0.00349,0.52883,0.00000,0.00000,0.00000,67,21,20,8,71,5,34,-6,ok,2,0,0.002,6,-0.25,0.07,10.43,38,0.101,8.28
5.9121,-0.04014,-0.00349,0.52883,0.00000,0.00000,0.00000,67,22,21,7,71,6,32,-4,ok,2,0,0.002,6,-0.25,0.07,10.43,38,0.114,8.28
5.9348,-0.04014,-0.00349,0.52883,0.00000,0.00000,0.00000,67,23,22,6,71,7,30,-1,ok,2,0,0.002,6,-0.25,0.07,10.43,38,0.126,8.28
5.9379,-0.04014,-0.00349,0.52883,0.00000,0.00000,0.00000,67,24,23,6,71,8,29,2,ok,2,0,0.002,6,-0.25,0.07,10.43,38,0.139,8.28
5.9505,-0.04014,-0.00349,0.52883,0.00000,0.00000,0.00000,66,25,25,5,71,9,27,5,ok,2,0,0.002,6,-0.25,0.07,10.43,38,0.152,8.28
5.9708,-0.04014,-0.00349,0.52883,0.00000,0.00000,0.00000,65,28,26,5,71,10,27,7,ok,2,0,0.002,6,-0.25,0.07,10.43,38,0.165,8.28
5.9757,-0.04014,-0.00349,0.52883,0.00000,0.00000,0.00000,65,29,27,4,71,12,29,6,ok,2,0,0.002,6,-0.25,0.07,10.43,38,0.177,8.28
5.9881,-0.04014,-0.00349,0.52883,0.00000,0.00000,0.00000,66,28,28,4,71,13,29,6,ok,2,0,0.002,6,-0.25,0.07,10.43,38,0.190,8.28
6.0108,0.02967,0.01571,0.59690,0.00000,0.00000,0.00000,68,25,30,3,72,15,30,3,ok,2,0,0.002,6,0.31,-0.64,8.60,39,0.000,8.28
6.0139,0.02967,0.01571,0.59690,0.00000,0.00000,0.00000,71,21,31,2,71,16,32,3,ok,2,0,0.002,6,0.31,-0.64,8.60,39,0.013,8.28
6.0264,0.02967,0.01571,0.59690,0.00000,0.00000,0.00000,72,17,33,2,71,18,33,3,ok,2,0,0.002,6,0.31,-0.64,8.60,39,0.026,8.28
6.0468,0.02967,0.01571,0.59690,0.00000,0.00000,0.00000,72,15,34,2,72,19,34,2,ok,2,0,0.002,6,0.31,-0.64,8.60,39,0.038,8.28
6.0515,0.02967,0.01571,0.59690,0.00000,0.00000,0.00000,71,14,35,1,71,21,36,1,ok,2,0,0.002,6,0.31,-0.64,8.60,39,0.051,8.28
6.0641,0.02967,0.01571,0.59690,0.00000,0.00000,0.00000,71,11,36,1,71,22,38,1,ok,2,0,0.002,6,0.31,-0.64,8.60,39,0.063,8.28
6.0868,0.02967,0.01571,0.59690,0.00000,0.00000,0.00000,71,8,38,2,71,24,39,2,ok,2,0,0.002,6,0.31,-0.64,8.60,39,0.076,8.28
6.0901,0.02967,0.01571,0.59690,0.00000,0.00000,0.00000,70,5,39,2,71,26,40,1,ok,2,0,0.002,6,0.31,-0.64,8.60,39,0.089,8.28
6.1024,0.02967,0.01571,0.59690,0.00000,0.00000,0.00000,69,2,40,2,70,27,42,1,ok,2,0,0.002,6,0.31,-0.64,8.60,39,0.102,8.28
6.1228,0.02967,0.01571,0.59690,0.00000,0.00000,0.00000,68,0,42,1,70,29,43,1,ok,2,0,0.002,6,0.31,-0.64,8.60,39,0.114,8.28
6.1275,0.02967,0.01571,0.59690,0.00000,0.00000,0.00000,67,-3,43,2,71,29,44,1,ok,2,0,0.002,6,0.31,-0.64,8.60,39,0.127,8.28
6.1402,0.02967,0.01571,0.59690,0.00000,0.00000,0.00000,65,-4,43,2,72,29,45,1,ok,2,0,0.002,6,0.31,-0.64,8.60,39,0.139,8.28
6.1628,0.02967,0.01571,0.59690,0.00000,0.00000,0.00000,64,-6,45,2,73,26,46,0,ok,2,0,0.002,6,0.31,-0.64,8.60,39,0.152,8.28
6.1659,0.02967,0.01571,0.59690,0.00000,0.00000,0.00000,63,-8,46,2,76,22,48,0,ok,2,0,0.002,6,0.31,-0.64,8.60,39,0.165,8.28
6.1784,0.02967,0.01571,0.59690,0.00000,0.00000,0.00000,61,-9,48,3,77,17,49,0,ok,2,0,0.002,6,0.31,-0.64,8.60,39,0.178,8.28
6.1988,0.02967,0.01571,0.59690,0.00000,0.00000,0.00000,58,-10,49,3,78,14,49,0,ok,2,0,0.002,6,0.31,-0.64,8.60,39,0.190,8.28
6.2037,0.02967,0.01571,0.59690,0.00000,0.00000,0.00000,56,-11,50,3,79,14,50,0,ok,2,0,0.002,6,0.31,-0.64,8.60,39,0.203,8.28
6.2164,0.08203,0.05236,0.63705,0.00000,0.00000,0.00000,54,-12,50,5,79,11,51,0,ok,2,0,0.002,6,0.41,1.06,11.79,40,0.000,8.28
6.2388,0.08203,0.05236,0.63705,0.00000,0.00000,0.00000,51,-11,52,6,78,8,52,0,ok,2,0,0.002,6,0.41,1.06,11.79,40,0.012,8.28
6.2419,0.08203,0.05236,0.63705,0.00000,0.00000,0.00000,48,-11,52,5,78,5,53,0,ok,2,0,0.002,6,0.41,1.06,11.79,40,0.026,8.28
6.2546,0.08203,0.05236,0.63705,0.00000,0.00000,0.00000,46,-11,53,6,77,3,54,0,ok,2,0,0.002,6,0.41,1.06,11.79,40,0.038,8.28
6.2748,0.08203,0.05236,0.63705,0.00000,0.00000,0.00000,43,-11,54,7,76,0,55,1,ok,2,0,0.002,6,0.41,1.06,11.79,40,0.051,8.28
6.2795,0.08203,0.05236,0.63705,0.00000,0.00000,0.00000,41,-11,55,7,76,-3,55,0,ok,2,0,0.002,6,0.41,1.06,11.79,40,0.063,8.28
6.2922,0.08203,0.05236,0.63705,0.00000,0.00000,0.00000,39,-10,56,7,75,-4,56,0,ok,2,0,0.002,6,0.41,1.06,11.79,40,0.076,8.28
6.3148,0.08203,0.05236,0.63705,0.00000,0.00000,0.00000,36,-9,57,7,73,-7,57,-1,ok,2,0,0.002,6,0.41,1.06,11.79,40,0.089,8.28
6.3180,0.08203,0.05236,0.63705,0.00000,0.00000,0.00000,33,-8,57,8,70,-7,57,0,ok,2,0,0.002,6,0.41,1.06,11.79,40,0.102,8.28
6.3306,0.08203,0.05236,0.63705,0.00000,0.00000,0.00000,30,-6,58,8,69,-9,58,0,ok,2,0,0.002,6,0.41,1.06,11.79,40,0.115,8.28
6.3508,0.08203,0.05236,0.63705,0.00000,0.00000,0.00000,27,-4,58,9,68,-11,59,1,ok,2,0,0.002,6,0.41,1.06,11.79,40,0.127,8.28
6.3555,0.08203,0.05236,0.63705,0.00000,0.00000,0.00000,23,-2,60,11,66,-12,60,0,ok,2,0,0.002,6,0.41,1.06,11.79,40,0.140,8.28
6.3681,0.08203,0.05236,0.63705,0.00000,0.00000,0.00000,21,-1,61,11,64,-12,61,0,ok,2,0,0.002,6,0.41,1.06,11.79,40,0.152,8.28
6.3908,0.08203,0.05236,0.63705,0.00000,0.00000,0.00000,19,1,62,11,62,-13,64,-2,ok,2,0,0.002,6,0.41,1.06,11.79,40,0.165,8.28
6.3939,0.08203,0.05236,0.63705,0.00000,0.00000,0.00000,17,3,62,12,59,-14,64,-1,ok,2,0,0.002,6,0.41,1.06,11.79,40,0.178,8.28
6.4067,0.07854,0.01396,0.67719,0.00000,0.00000,0.00000,15,7,62,13,57,-14,65,-1,ok,2,0,0.002,6,-0.48,1.01,9.95,41,0.000,8.28
6.4268,0.07854,0.01396,0.67719,0.00000,0.00000,0.00000,13,10,62,14,54,-13,65,-1,ok,2,0,0.002,6,-0.48,1.01,9.95,41,0.013,8.28
6.4315,0.07854,0.01396,0.67719,0.00000,0.00000,0.00000,12,13,63,15,52,-12,66,-1,ok,2,0,0.002,6,-0.48,1.01,9.95,41,0.025,8.28
6.4441,0.07854,0.01396,0.67719,0.00000,0.00000,0.00000,13,13,64,16,49,-12,67,0,ok,2,0,0.002,6,-0.48,1.01,9.95,41,0.038,8.28
6.4668,0.07854,0.01396,0.67719,0.00000,0.00000,0.00000,13,13,63,17,46,-11,68,0,ok,2,0,0.002,6,-0.48,1.01,9.95,41,0.050,8.28
6.4701,0.07854,0.01396,0.67719,0.00000,0.00000,0.00000,15,12,64,17,44,-11,68,1,ok,2,0,0.002,6,-0.48,1.01,9.95,41,0.063,8.28
6.4825,0.07854,0.01396,0.67719,0.00000,0.00000,0.00000,16,11,65,18,41,-10,69,1,ok,2,0,0.002,6,-0.48,1.01,9.95,41,0.076,8.28
6.5028,0.07854,0.01396,0.67719,0.00000,0.00000,0.00000,17,11,65,19,38,-9,70,2,ok,2,0,0.002,6,-0.48,1.01,9.95,41,0.089,8.28
6.5075,0.07854,0.01396,0.67719,0.00000,0.00000,0.00000,19,10,65,19,35,-8,70,2,ok,2,0,0.002,6,-0.48,1.01,9.95,41,0.101,8.28
6.5200,0.07854,0.01396,0.67719,0.00000,0.00000,0.00000,19,10,65,21,33,-6,71,3,ok,2,0,0.002,6,-0.48,1.01,9.95,41,0.114,8.28
6.5428,0.07854,0.01396,0.67719,0.00000,0.00000,0.00000,21,9,66,21,31,-5,71,5,ok,2,0,0.002,6,-0.48,1.01,9.95,41,0.126,8.28
6.5458,0.07854,0.01396,0.67719,0.00000,0.00000,0.00000,23,8,66,22,29,-1,72,5,ok,2,0,0.002,6,-0.48,1.01,9.95,41,0.139,8.28
6.5584,0.07854,0.01396,0.67719,0.00000,0.00000,0.00000,24,7,65,23,28,1,72,6,ok,2,0,0.002,6,-0.48,1.01,9.95,41,0.152,8.28
6.5788,0.07854,0.01396,0.67719,0.00000,0.00000,0.00000,25,6,65,24,26,4,72,7,ok,2,0,0.002,6,-0.48,1.01,9.95,41,0.165,8.28
6.5835,0.07854,0.01396,0.67719,0.00000,0.00000,0.00000,26,6,65,25,26,7,73,8,ok,2,0,0.002,6,-0.48,1.01,9.95,41,0.177,8.28
6.5960,0.07854,0.01396,0.67719,0.00000,0.00000,0.00000,28,5,64,28,28,6,73,9,ok,2,0,0.002,6,-0.48,1.01,9.95,41,0.190,8.28
6.6228,0.09948,0.05411,0.67195,0.00000,0.00000,0.00000,29,4,64,29,28,6,73,11,ok,2,0,0.002,7,0.64,1.27,10.34,42,0.000,8.28
6.6261,0.09948,0.05411,0.67195,0.00000,0.00000,0.00000,30,4,65,28,29,4,73,12,ok,2,0,0.002,7,0.64,1.27,10.34,42,0.017,8.28
6.6385,0.09948,0.05411,0.67195,0.00000,0.00000,0.00000,31,3,67,25,30,3,73,14,ok,2,0,0.002,7,0.64,1.27,10.34,42,0.030,8.28
6.6588,0.09948,0.05411,0.67195,0.00000,0.00000,0.00000,32,3,70,21,31,3,74,15,ok,2,0,0.002,7,0.64,1.27,10.34,42,0.043,8.28
6.6635,0.09948,0.05411,0.67195,0.00000,0.00000,0.00000,34,2,71,17,33,3,73,17,ok,2,0,0.002,7,0.64,1.27,10.34,42,0.055,8.28
6.6772,0.09948,0.05411,0.67195,0.00000,0.00000,0.00000,35,2,71,15,34,1,73,19,ok,2,0,0.002,7,0.64,1.27,10.34,42,0.068,8.28
6.6988,0.09948,0.05411,0.67195,0.00000,0.00000,0.00000,37,1,71,14,36,2,74,20,ok,2,0,0.002,7,0.64,1.27,10.34,42,0.080,8.28
6.7019,0.09948,0.05411,0.67195,0.00000,0.00000,0.00000,38,1,71,11,37,2,73,22,ok,2,0,0.002,7,0.64,1.27,10.34,42,0.093,8.28
6.7144,0.09948,0.05411,0.67195,0.00000,0.00000,0.00000,40,1,71,8,38,2,73,23,ok,2,0,0.002,7,0.64,1.27,10.34,42,0.106,8.28
6.7348,0.09948,0.05411,0.67195,0.00000,0.00000,0.00000,41,1,70,5,40,2,73,25,ok,2,0,0.002,7,0.64,1.27,10.34,42,0.119,8.28
6.7395,0.09948,0.05411,0.67195,0.00000,0.00000,0.00000,43,0,69,3,41,2,73,26,ok,0,0,0.002,7,0.64,1.27,10.34,42,0.131,8.28
6.7520,0.09948,0.05411,0.67195,0.00000,0.00000,0.00000,44,0,68,1,42,1,73,28,ok,0,0,0.002,7,0.64,1.27,10.34,42,0.144,8.28
6.7748,0.09948,0.05411,0.67195,0.00000,0.00000,0.00000,45,0,67,-1,43,1,72,29,ok,0,0,0.002,7,0.64,1.27,10.34,42,0.156,8.28
6.7778,0.09948,0.05411,0.67195,0.00000,0.00000,0.00000,46,0,65,-2,44,0,73,29,ok,2,0,0.002,7,0.64,1.27,10.34,42,0.169,8.28
6.7904,0.09948,0.05411,0.67195,0.00000,0.00000,0.00000,47,1,64,-4,46,1,75,28,ok,2,0,0.002,7,0.64,1.27,10.34,42,0.182,8.28
6.8108,0.09948,0.05411,0.67195,0.00000,0.00000,0.00000,49,1,63,-6,47,1,76,26,ok,0,0,0.002,7,0.64,1.27,10.34,42,0.195,8.28
6.8157,-0.07330,0.00000,0.73478,0.00000,0.00000,0.00000,50,2,61,-7,48,1,78,21,ok,2,0,0.002,7,-0.02,-0.60,11.23,43,0.000,8.28
6.8280,-0.07330,0.00000,0.73478,0.00000,0.00000,0.00000,51,1,59,-8,48,0,80,17,ok,2,0,0.002,7,-0.02,-0.60,11.23,43,0.013,8.28
6.8508,-0.07330,0.00000,0.73478,0.00000,0.00000,0.00000,52,1,56,-8,50,0,81,14,ok,2,0,0.002,7,-0.02,-0.60,11.23,43,0.025,8.28
6.8541,-0.07330,0.00000,0.73478,0.00000,0.00000,0.00000,52,3,54,-9,51,0,81,14,ok,2,0,0.002,7,-0.02,-0.60,11.23,43,0.038,8.28
6.8664,-0.07330,0.00000,0.73478,0.00000,0.00000,0.00000,53,4,51,-9,52,0,81,11,ok,2,0,0.002,7,-0.02,-0.60,11.23,43,0.051,8.28
6.8868,-0.07330,0.00000,0.73478,0.00000,0.00000,0.00000,53,4,48,-9,53,0,81,7,ok,2,0,0.002,7,-0.02,-0.60,11.23,43,0.064,8.28
6.8917,-0.07330,0.00000,0.73478,0.00000,0.00000,0.00000,54,5,46,-8,54,1,81,4,ok,2,0,0.002,7,-0.02,-0.60,11.23,43,0.076,8.28
6.9041,-0.07330,0.00000,0.73478,0.00000,0.00000,0.00000,54,6,43,-9,55,1,80,2,ok,2,0,0.002,7,-0.02,-0.60,11.23,43,0.089,8.28
6.9268,-0.07330,0.00000,0.73478,0.00000,0.00000,0.00000,56,6,41,-9,56,2,79,-1,ok,2,0,0.002,7,-0.02,-0.60,11.23,43,0.101,8.28
6.9299,-0.07330,0.00000,0.73478,0.00000,0.00000,0.00000,56,6,39,-8,58,1,78,-3,ok,2,0,0.002,7,-0.02,-0.60,11.23,43,0.114,8.28
6.9424,-0.07330,0.00000,0.73478,0.00000,0.00000,0.00000,58,7,36,-7,58,1,77,-5,ok,2,0,0.002,7,-0.02,-0.60,11.23,43,0.127,8.28
6.9628,-0.07330,0.00000,0.73478,0.00000,0.00000,0.00000,58,8,33,-6,59,2,75,-7,ok,2,0,0.002,7,-0.02,-0.60,11.23,43,0.140,8.28
6.9676,-0.07330,0.00000,0.73478,0.00000,0.00000,0.00000,59,8,29,-5,60,2,72,-7,ok,2,0,0.002,7,-0.02,-0.60,11.23,43,0.152,8.28
6.9801,-0.07330,0.00000,0.73478,0.00000,0.00000,0.00000,60,9,26,-3,61,2,71,-9,ok,2,0,0.002,7,-0.02,-0.60,11.23,43,0.165,8.28
7.0028,-0.07330,0.00000,0.73478,0.00000,0.00000,0.00000,61,10,22,-1,62,1,70,-11,ok,2,0,0.002,7,-0.02,-0.60,11.23,43,0.177,8.28
7.0059,-0.07330,0.00000,0.73478,0.00000,0.00000,0.00000,62,10,20,0,64,-1,67,-12,ok,2,0,0.002,7,-0.02,-0.60,11.23,43,0.190,8.28
7.0188,-0.06981,-0.00698,0.76096,0.00000,0.00000,0.00000,63,11,18,1,64,-1,65,-13,ok,2,0,0.002,7,-0.03,-0.75,10.54,44,0.000,8.28
7.0388,-0.06981,-0.00698,0.76096,0.00000,0.00000,0.00000,63,12,16,4,65,0,63,-13,ok,2,0,0.002,7,-0.03,-0.75,10.54,44,0.013,8.28
7.0435,-0.06981,-0.00698,0.76096,0.00000,0.00000,0.00000,64,12,14,7,65,0,61,-14,ok,2,0,0.002,7,-0.03,-0.75,10.54,44,0.025,8.28
7.0561,-0.06981,-0.00698,0.76096,0.00000,0.00000,0.00000,64,14,13,10,66,1,59,-14,ok,2,0,0.002,7,-0.03,-0.75,10.54,44,0.038,8.28
7.0788,-0.06981,-0.00698,0.76096,0.00000,0.00000,0.00000,64,14,11,12,67,1,56,-13,ok,2,0,0.002,7,-0.03,-0.75,10.54,44,0.050,8.28
7.0819,-0.06981,-0.00698,0.76096,0.00000,0.00000,0.00000,65,15,12,13,67,1,53,-12,ok,2,0,0.002,7,-0.03,-0.75,10.54,44,0.063,8.28
7.0944,-0.06981,-0.00698,0.76096,0.00000,0.00000,0.00000,65,16,12,13,68,1,51,-12,ok,2,0,0.002,7,-0.03,-0.75,10.54,44,0.076,8.28
7.1148,-0.06981,-0.00698,0.76096,0.00000,0.00000,0.00000,66,17,14,11,68,1,47,-11,ok,2,0,0.002,7,-0.03,-0.75,10.54,44,0.089,8.28
7.1195,-0.06981,-0.00698,0.76096,0.00000,0.00000,0.00000,66,18,15,11,69,2,45,-10,ok,2,0,0.002,7,-0.03,-0.75,10.54,44,0.101,8.28
7.1323,-0.06981,-0.00698,0.76096,0.00000,0.00000,0.00000,67,18,16,10,69,3,42,-9,ok,2,0,0.002,7,-0.03,-0.75,10.54,44,0.114,8.28
7.1548,-0.06981,-0.00698,0.76096,0.00000,0.00000,0.00000,67,18,17,9,70,4,40,-9,ok,2,0,0.002,7,-0.03,-0.75,10.54,44,0.126,8.28
7.1579,-0.06981,-0.00698,0.76096,0.00000,0.00000,0.00000,67,20,18,9,70,5,36,-7,ok,2,0,0.002,7,-0.03,-0.75,10.54,44,0.139,8.28
7.1705,-0.06981,-0.00698,0.76096,0.00000,0.00000,0.00000,68,21,20,8,71,5,34,-5,ok,2,0,0.002,7,-0.03,-0.75,10.54,44,0.152,8.28
7.1908,-0.06981,-0.00698,0.76096,0.00000,0.00000,0.00000,68,22,21,7,71,6,32,-4,ok,2,0,0.002,7,-0.03,-0.75,10.54,44,0.165,8.28
7.1956,-0.06981,-0.00698,0.76096,0.00000,0.00000,0.00000,67,23,22,7,70,7,30,-1,ok,2,0,0.002,7,-0.03,-0.75,10.54,44,0.177,8.28
7.2081,-0.06981,-0.00698,0.76096,0.00000,0.00000,0.00000,67,24,23,6,71,8,29,2,ok,2,0,0.002,7,-0.03,-0.75,10.54,44,0.190,8.28
7.2308,-0.06981,-0.00698,0.76096,0.00000,0.00000,0.00000,67,25,25,5,71,9,27,5,ok,2,0,0.002,7,-0.03,-0.75,10.54,44,0.202,8.28
7.2342,-0.03142,0.03840,0.80983,0.00000,0.00000,0.00000,66,28,26,5,71,10,27,7,ok,2,0,0.002,7,0.21,-0.49,10.57,45,0.000,8.28
7.2464,-0.03142,0.03840,0.80983,0.00000,0.00000,0.00000,65,29,27,4,71,12,29,6,ok,2,0,0.002,7,0.21,-0.49,10.57,45,0.013,8.28
7.2668,-0.03142,0.03840,0.80983,0.00000,0.00000,0.00000,66,28,28,4,71,13,29,6,ok,2,0,0.002,7,0.21,-0.49,10.57,45,0.025,8.28
7.2715,-0.03142,0.03840,0.80983,0.00000,0.00000,0.00000,69,25,30,3,72,15,31,3,ok,2,0,0.002,7,0.21,-0.49,10.57,45,0.038,8.28
7.2841,-0.03142,0.03840,0.80983,0.00000,0.00000,0.00000,71,21,31,2,71,16,32,3,ok,2,0,0.002,7,0.21,-0.49,10.57,45,0.050,8.28
7.3069,-0.03142,0.03840,0.80983,0.00000,0.00000,0.00000,72,17,32,2,71,18,33,3,ok,2,0,0.002,7,0.21,-0.49,10.57,45,0.063,8.28
7.3101,-0.03142,0.03840,0.80983,0.00000,0.00000,0.00000,72,15,34,2,72,19,34,2,ok,2,0,0.002,7,0.21,-0.49,10.57,45,0.076,8.28
7.3226,-0.03142,0.03840,0.80983,0.00000,0.00000,0.00000,72,14,35,1,71,21,36,1,ok,2,0,0.002,7,0.21,-0.49,10.57,45,0.089,8.28
7.3428,-0.03142,0.03840,0.80983,0.00000,0.00000,0.00000,72,11,36,2,71,22,38,1,ok,2,0,0.002,7,0.21,-0.49,10.57,45,0.101,8.28
7.3477,-0.03142,0.03840,0.80983,0.00000,0.00000,0.00000,71,8,38,2,71,24,39,2,ok,2,0,0.002,7,0.21,-0.49,10.57,45,0.114,8.28
7.3602,-0.03142,0.03840,0.80983,0.00000,0.00000,0.00000,70,5,39,2,71,26,40,1,ok,2,0,0.002,7,0.21,-0.49,10.57,45,0.126,8.28
7.3828,-0.03142,0.03840,0.80983,0.00000,0.00000,0.00000,70,1,40,2,70,28,42,2,ok,2,0,0.002,7,0.21,-0.49,10.57,45,0.139,8.28
7.3859,-0.03142,0.03840,0.80983,0.00000,0.00000,0.00000,68,-1,41,1,70,29,43,2,ok,2,0,0.002,7,0.21,-0.49,10.57,45,0.152,8.28
7.3984,-0.03142,0.03840,0.80983,0.00000,0.00000,0.00000,67,-3,43,2,71,29,44,1,ok,2,0,0.002,7,0.21,-0.49,10.57,45,0.165,8.28
7.4188,-0.03142,0.03840,0.80983,0.00000,0.00000,0.00000,65,-4,43,2,72,29,45,1,ok,2,0,0.002,7,0.21,-0.49,10.57,45,0.177,8.28
7.4235,-0.03142,0.03840,0.80983,0.00000,0.00000,0.00000,64,-6,45,2,74,26,46,0,ok,2,0,0.002,7,0.21,-0.49,10.57,45,0.190,8.28
7.4363,0.08727,0.02618,0.82729,0.00000,0.00000,0.00000,63,-8,46,2,76,22,47,0,ok,2,0,0.002,7,0.07,0.90,9.98,46,0.000,8.28
7.4588,0.08727,0.02618,0.82729,0.00000,0.00000,0.00000,61,-9,48,3,77,17,49,0,ok,2,0,0.002,7,0.07,0.90,9.98,46,0.012,8.28
7.4619,0.08727,0.02618,0.82729,0.00000,0.00000,0.00000,58,-10,49,3,78,15,49,0,ok,2,0,0.002,7,0.07,0.90,9.98,46,0.026,8.28
7.4744,0.08727,0.02618,0.82729,0.00000,0.00000,0.00000,56,-11,50,3,78,14,50,0,ok,2,0,0.002,7,0.07,0.90,9.98,46,0.039,8.28
7.4948,0.08727,0.02618,0.82729,0.00000,0.00000,0.00000,54,-11,50,5,78,12,51,0,ok,2,0,0.002,7,0.07,0.90,9.98,46,0.051,8.28
7.4995,0.08727,0.02618,0.82729,0.00000,0.00000,0.00000,51,-11,51,6,79,8,52,0,ok,2,0,0.002,7,0.07,0.90,9.98,46,0.063,8.28
7.5120,0.08727,0.02618,0.82729,0.00000,0.00000,0.00000,49,-11,52,5,78,5,53,0,ok,2,0,0.002,7,0.07,0.90,9.98,46,0.076,8.28
7.5348,0.08727,0.02618,0.82729,0.00000,0.00000,0.00000,46,-11,53,6,77,3,54,0,ok,2,0,0.002,7,0.07,0.90,9.98,46,0.089,8.28
7.5380,0.08727,0.02618,0.82729,0.00000,0.00000,0.00000,44,-11,53,7,76,-1,55,1,ok,2,0,0.002,7,0.07,0.90,9.98,46,0.102,8.28
7.5504,0.08727,0.02618,0.82729,0.00000,0.00000,0.00000,42,-11,55,7,76,-3,55,0,ok,2,0,0.002,7,0.07,0.90,9.98,46,0.115,8.28
7.5708,0.08727,0.02618,0.82729,0.00000,0.00000,0.00000,40,-10,56,7,75,-4,56,1,ok,2,0,0.002,7,0.07,0.90,9.98,46,0.127,8.28
7.5755,0.08727,0.02618,0.82729,0.00000,0.00000,0.00000,36,-9,57,7,73,-7,57,-1,ok,2,0,0.002,7,0.07,0.90,9.98,46,0.140,8.28
7.5882,0.08727,0.02618,0.82729,0.00000,0.00000,0.00000,34,-8,57,8,70,-7,58,0,ok,2,0,0.002,7,0.07,0.90,9.98,46,0.152,8.28
7.6108,0.08727,0.02618,0.82729,0.00000,0.00000,0.00000,30,-6,58,8,69,-9,58,0,ok,2,0,0.002,7,0.07,0.90,9.98,46,0.165,8.28
7.6140,0.08727,0.02618,0.82729,0.00000,0.00000,0.00000,27,-4,59,9,68,-10,60,1,ok,2,0,0.002,7,0.07,0.90,9.98,46,0.178,8.28
7.6267,0.08727,0.02618,0.82729,0.00000,0.00000,0.00000,23,-2,60,11,66,-12,60,0,ok,2,0,0.002,8,0.07,0.90,9.98,46,0.190,8.28
7.6468,0.12043,-0.04712,0.81332,0.00000,0.00000,0.00000,22,-1,61,11,64,-12,61,0,ok,2,0,0.002,8,0.05,0.95,10.11,47,0.000,8.28
7.6515,0.12043,-0.04712,0.81332,0.00000,0.00000,0.00000,20,1,62,11,62,-13,64,-3,ok,2,0,0.002,8,0.05,0.95,10.11,47,0.012,8.28
7.6641,0.12043,-0.04712,0.81332,0.00000,0.00000,0.00000,18,3,62,12,59,-14,64,-1,ok,2,0,0.002,8,0.05,0.95,10.11,47,0.025,8.28
7.6868,0.12043,-0.04712,0.81332,0.00000,0.00000,0.00000,15,7,63,13,57,-14,65,-2,ok,2,0,0.002,8,0.05,0.95,10.11,47,0.038,8.28
7.6900,0.12043,-0.04712,0.81332,0.00000,0.00000,0.00000,14,10,63,14,54,-13,66,-1,ok,2,0,0.002,8,0.05,0.95,10.11,47,0.051,8.28
7.7026,0.12043,-0.04712,0.81332,0.00000,0.00000,0.00000,12,13,63,15,51,-13,66,-1,ok,2,0,0.002,8,0.05,0.95,10.11,47,0.064,8.28
7.7228,0.12043,-0.04712,0.81332,0.00000,0.00000,0.00000,14,13,64,16,49,-13,67,0,ok,2,0,0.002,8,0.05,0.95,10.11,47,0.076,8.28
7.7275,0.12043,-0.04712,0.81332,0.00000,0.00000,0.00000,14,13,64,17,46,-12,68,0,ok,2,0,0.002,8,0.05,0.95,10.11,47,0.089,8.28
7.7401,0.12043,-0.04712,0.81332,0.00000,0.00000,0.00000,15,12,64,17,44,-11,68,0,ok,2,0,0.002,8,0.05,0.95,10.11,47,0.101,8.28
7.7628,0.12043,-0.04712,0.81332,0.00000,0.00000,0.00000,17,12,65,18,41,-10,69,1,ok,2,0,0.002,8,0.05,0.95,10.11,47,0.114,8.28
7.7659,0.12043,-0.04712,0.81332,0.00000,0.00000,0.00000,17,11,65,19,38,-9,70,2,ok,2,0,0.002,8,0.05,0.95,10.11,47,0.127,8.28
7.7784,0.12043,-0.04712,0.81332,0.00000,0.00000,0.00000,19,10,65,20,35,-8,70,2,ok,2,0,0.002,8,0.05,0.95,10.11,47,0.140,8.28
7.7988,0.12043,-0.04712,0.81332,0.00000,0.00000,0.00000,20,10,65,21,33,-6,71,3,ok,2,0,0.002,8,0.05,0.95,10.11,47,0.152,8.28
7.8035,0.12043,-0.04712,0.81332,0.00000,0.00000,0.00000,22,9,66,21,31,-5,71,4,ok,0,0,0.002,8,0.05,0.95,10.11,47,0.165,8.28
7.8160,0.12043,-0.04712,0.81332,0.00000,0.00000,0.00000,23,8,66,23,28,-2,72,5,ok,0,0,0.002,8,0.05,0.95,10.11,47,0.177,8.28
7.8388,0.12043,-0.04712,0.81332,0.00000,0.00000,0.00000,24,7,65,23,27,0,72,6,ok,0,0,0.002,8,0.05,0.95,10.11,47,0.190,8.28
7.8421,0.07156,0.07505,0.82903,0.00000,0.00000,0.00000,26,6,65,24,26,4,72,7,ok,0,0,0.002,8,1.05,1.41,8.08,48,0.000,8.28
7.8544,0.07156,0.07505,0.82903,0.00000,0.00000,0.00000,27,6,65,25,26,7,73,9,ok,0,0,0.002,8,1.05,1.41,8.08,48,0.013,8.28
7.8748,0.07156,0.07505,0.82903,0.00000,0.00000,0.00000,28,6,64,28,27,6,73,9,ok,0,0,0.002,8,1.05,1.41,8.08,48,0.025,8.28
7.8794,0.07156,0.07505,0.82903,0.00000,0.00000,0.00000,29,5,63,29,28,6,73,11,ok,0,0,0.002,8,1.05,1.41,8.08,48,0.038,8.28
7.8921,0.07156,0.07505,0.82903,0.00000,0.00000,0.00000,30,4,64,28,29,4,73,13,ok,0,0,0.002,8,1.05,1.41,8.08,48,0.050,8.28
7.9148,0.07156,0.07505,0.82903,0.00000,0.00000,0.00000,32,3,67,25,30,3,73,15,ok,0,0,0.002,8,1.05,1.41,8.08,48,0.063,8.28
7.9179,0.07156,0.07505,0.82903,0.00000,0.00000,0.00000,33,3,69,21,31,3,74,16,ok,2,0,0.002,8,1.05,1.41,8.08,48,0.076,8.28
7.9304,0.07156,0.07505,0.82903,0.00000,0.00000,0.00000,35,2,70,17,33,3,73,18,ok,0,0,0.002,8,1.05,1.41,8.08,48,0.089,8.28
7.9508,0.07156,0.07505,0.82903,0.00000,0.00000,0.00000,36,2,71,15,34,2,73,20,ok,0,0,0.002,8,1.05,1.41,8.08,48,0.101,8.28
7.9555,0.07156,0.07505,0.82903,0.00000,0.00000,0.00000,37,1,71,14,36,2,74,20,ok,0,0,0.002,8,1.05,1.41,8.08,48,0.114,8.28
7.9681,0.07156,0.07505,0.82903,0.00000,0.00000,0.00000,38,1,71,11,37,2,73,22,ok,0,0,0.002,8,1.05,1.41,8.08,48,0.126,8.28
7.9908,0.07156,0.07505,0.82903,0.00000,0.00000,0.00000,40,1,70,8,38,3,73,24,ok,0,0,0.002,8,1.05,1.41,8.08,48,0.139,8.28
7.9939,0.07156,0.07505,0.82903,0.00000,0.00000,0.00000,41,1,70,5,40,2,73,25,ok,0,0,0.002,8,1.05,1.41,8.08,48,0.152,8.28
8.0064,0.07156,0.07505,0.82903,0.00000,0.00000,0.00000,43,0,69,3,41,2,73,26,ok,0,0,0.002,8,1.05,1.41,8.08,48,0.165,8.28
8.0268,0.07156,0.07505,0.82903,0.00000,0.00000,0.00000,44,0,68,1,42,2,73,28,ok,0,0,0.002,8,1.05,1.41,8.08,48,0.177,8.28
8.0316,0.07156,0.07505,0.82903,0.00000,0.00000,0.00000,46,0,67,-1,43,2,72,29,ok,0,0,0.002,8,1.05,1.41,8.08,48,0.190,8.28
8.0443,-0.06807,-0.04014,0.85870,0.00000,0.00000,0.00000,46,0,65,-2,45,1,73,29,ok,0,0,0.002,8,-0.80,-1.01,10.23,49,0.000,8.28
8.0668,-0.06807,-0.04014,0.85870,0.00000,0.00000,0.00000,48,0,64,-4,46,0,75,29,ok,0,0,0.002,8,-0.80,-1.01,10.23,49,0.013,8.28
8.0699,-0.06807,-0.04014,0.85870,0.00000,0.00000,0.00000,49,0,63,-6,47,0,76,27,ok,0,0,0.002,8,-0.80,-1.01,10.23,49,0.026,8.28
8.0824,-0.06807,-0.04014,0.85870,0.00000,0.00000,0.00000,50,1,61,-6,48,0,79,21,ok,0,0,0.002,8,-0.80,-1.01,10.23,49,0.039,8.28
8.1028,-0.06807,-0.04014,0.85870,0.00000,0.00000,0.00000,51,1,59,-8,48,0,80,18,ok,0,0,0.002,8,-0.80,-1.01,10.23,49,0.051,8.28
8.1075,-0.06807,-0.04014,0.85870,0.00000,0.00000,0.00000,52,1,56,-8,50,0,81,14,ok,2,0,0.002,8,-0.80,-1.01,10.23,49,0.063,8.28
8.1200,-0.06807,-0.04014,0.85870,0.00000,0.00000,0.00000,52,3,54,-9,51,0,81,14,ok,2,0,0.002,8,-0.80,-1.01,10.23,49,0.076,8.28
8.1428,-0.06807,-0.04014,0.85870,0.00000,0.00000,0.00000,53,4,51,-9,52,0,81,11,ok,2,0,0.002,8,-0.80,-1.01,10.23,49,0.089,8.28
8.1459,-0.06807,-0.04014,0.85870,0.00000,0.00000,0.00000,53,4,49,-9,53,0,81,7,ok,2,0,0.002,8,-0.80,-1.01,10.23,49,0.102,8.28
8.1584,-0.06807,-0.04014,0.85870,0.00000,0.00000,0.00000,54,5,46,-8,54,1,80,4,ok,2,0,0.002,8,-0.80,-1.01,10.23,49,0.115,8.28
8.1788,-0.06807,-0.04014,0.85870,0.00000,0.00000,0.00000,54,6,44,-9,55,1,80,2,ok,2,0,0.002,8,-0.80,-1.01,10.23,49,0.127,8.28
8.1836,-0.06807,-0.04014,0.85870,0.00000,0.00000,0.00000,56,6,41,-9,56,1,78,-2,ok,2,0,0.002,8,-0.80,-1.01,10.23,49,0.140,8.28
8.1963,-0.06807,-0.04014,0.85870,0.00000,0.00000,0.00000,57,6,39,-8,57,0,78,-3,ok,2,0,0.002,8,-0.80,-1.01,10.23,49,0.152,8.28
8.2188,-0.06807,-0.04014,0.85870,0.00000,0.00000,0.00000,58,7,35,-7,58,1,77,-5,ok,2,0,0.002,8,-0.80,-1.01,10.23,49,0.165,8.28
8.2219,-0.06807,-0.04014,0.85870,0.00000,0.00000,0.00000,58,8,33,-6,59,1,75,-7,ok,2,0,0.002,8,-0.80,-1.01,10.23,49,0.178,8.28
8.2344,-0.06807,-0.04014,0.85870,0.00000,0.00000,0.00000,59,8,29,-5,60,1,72,-7,ok,2,0,0.002,8,-0.80,-1.01,10.23,49,0.191,8.28
8.2548,-0.09250,-0.05585,0.88837,0.00000,0.00000,0.00000,60,9,26,-3,61,1,71,-9,ok,2,0,0.002,8,0.51,-0.89,10.38,50,0.000,8.28
8.2596,-0.09250,-0.05585,0.88837,0.00000,0.00000,0.00000,62,10,22,-1,61,0,69,-11,ok,2,0,0.002,8,0.51,-0.89,10.38,50,0.012,8.28
8.2721,-0.09250,-0.05585,0.88837,0.00000,0.00000,0.00000,62,10,20,0,64,-2,67,-12,ok,2,0,0.002,8,0.51,-0.89,10.38,50,0.025,8.28
8.2948,-0.09250,-0.05585,0.88837,0.00000,0.00000,0.00000,63,11,18,1,64,-1,65,-13,ok,2,0,0.002,8,0.51,-0.89,10.38,50,0.038,8.28
8.2980,-0.09250,-0.05585,0.88837,0.00000,0.00000,0.00000,63,12,16,4,65,0,63,-13,ok,2,0,0.002,8,0.51,-0.89,10.38,50,0.051,8.28
8.3104,-0.09250,-0.05585,0.88837,0.00000,0.00000,0.00000,64,12,14,7,65,0,61,-14,ok,2,0,0.002,8,0.51,-0.89,10.38,50,0.063,8.28
8.3308,-0.09250,-0.05585,0.88837,0.00000,0.00000,0.00000,64,13,13,10,66,0,59,-14,ok,2,0,0.002,8,0.51,-0.89,10.38,50,0.076,8.28
8.3355,-0.09250,-0.05585,0.88837,0.00000,0.00000,0.00000,65,14,11,13,67,0,56,-13,ok,2,0,0.002,8,0.51,-0.89,10.38,50,0.088,8.28
8.3481,-0.09250,-0.05585,0.88837,0.00000,0.00000,0.00000,65,15,13,13,67,0,53,-12,ok,2,0,0.002,8,0.51,-0.89,10.38,50,0.101,8.28
8.3708,-0.09250,-0.05585,0.88837,0.00000,0.00000,0.00000,65,16,12,13,68,1,51,-12,ok,2,0,0.002,8,0.51,-0.89,10.38,50,0.113,8.28
8.3739,-0.09250,-0.05585,0.88837,0.00000,0.00000,0.00000,66,17,14,12,68,1,47,-11,ok,2,0,0.002,8,0.51,-0.89,10.38,50,0.127,8.28
8.3864,-0.09250,-0.05585,0.88837,0.00000,0.00000,0.00000,66,18,15,11,69,2,45,-10,ok,2,0,0.002,8,0.51,-0.89,10.38,50,0.139,8.28
8.4068,-0.09250,-0.05585,0.88837,0.00000,0.00000,0.00000,67,18,16,10,69,2,42,-9,ok,2,0,0.002,8,0.51,-0.89,10.38,50,0.152,8.28
8.4115,-0.09250,-0.05585,0.88837,0.00000,0.00000,0.00000,67,19,17,9,69,3,39,-9,ok,2,0,0.002,8,0.51,-0.89,10.38,50,0.164,8.28
8.4240,-0.09250,-0.05585,0.88837,0.00000,0.00000,0.00000,67,20,18,9,70,4,35,-7,ok,2,0,0.002,8,0.51,-0.89,10.38,50,0.177,8.28
8.4468,-0.09250,-0.05585,0.88837,0.00000,0.00000,0.00000,68,21,20,8,71,5,34,-5,ok,2,0,0.002,8,0.51,-0.89,10.38,50,0.189,8.28
8.4502,0.08901,0.00873,0.86743,0.00000,0.00000,0.00000,68,22,21,7,71,6,32,-4,ok,2,0,0.002,8,-0.61,1.80,10.20,51,0.000,8.28
8.4624,0.08901,0.00873,0.86743,0.00000,0.00000,0.00000,67,23,22,7,70,8,30,-1,ok,2,0,0.002,8,-0.61,1.80,10.20,51,0.013,8.28
8.4828,0.08901,0.00873,0.86743,0.00000,0.00000,0.00000,67,24,23,6,71,9,29,1,ok,2,0,0.002,8,-0.61,1.80,10.20,51,0.025,8.28
8.4875,0.08901,0.00873,0.86743,0.00000,0.00000,0.00000,66,25,25,5,71,9,27,5,ok,2,0,0.002,8,-0.61,1.80,10.20,51,0.038,8.28
8.5001,0.08901,0.00873,0.86743,0.00000,0.00000,0.00000,66,28,26,5,71,10,27,7,ok,2,0,0.002,8,-0.61,1.80,10.20,51,0.050,8.28
8.5228,0.08901,0.00873,0.86743,0.00000,0.00000,0.00000,65,29,27,4,71,12,29,6,ok,2,0,0.002,8,-0.61,1.80,10.20,51,0.063,8.28
8.5260,0.08901,0.00873,0.86743,0.00000,0.00000,0.00000,66,28,28,4,71,13,29,5,ok,2,0,0.002,8,-0.61,1.80,10.20,51,0.076,8.28
8.5384,0.08901,0.00873,0.86743,0.00000,0.00000,0.00000,69,25,29,3,72,15,30,3,ok,2,0,0.002,8,-0.61,1.80,10.20,51,0.089,8.28
8.5588,0.08901,0.00873,0.86743,0.00000,0.00000,0.00000,71,21,30,2,71,16,32,3,ok,2,0,0.002,8,-0.61,1.80,10.20,51,0.101,8.28
8.5635,0.08901,0.00873,0.86743,0.00000,0.00000,0.00000,72,17,32,2,71,18,33,3,ok,2,0,0.002,8,-0.61,1.80,10.20,51,0.114,8.28
8.5760,0.08901,0.00873,0.86743,0.00000,0.00000,0.00000,73,15,33,2,71,19,35,2,ok,2,0,0.002,8,-0.61,1.80,10.20,51,0.126,8.28
8.5988,0.08901,0.00873,0.86743,0.00000,0.00000,0.00000,72,14,35,2,70,21,37,1,ok,2,0,0.002,8,-0.61,1.80,10.20,51,0.139,8.28
8.6021,0.08901,0.00873,0.86743,0.00000,0.00000,0.00000,72,11,36,2,70,22,39,1,ok,2,0,0.002,8,-0.61,1.80,10.20,51,0.152,8.28
8.6144,0.08901,0.00873,0.86743,0.00000,0.00000,0.00000,72,7,38,2,70,24,39,2,ok,2,0,0.002,8,-0.61,1.80,10.20,51,0.165,8.28
8.6348,0.08901,0.00873,0.86743,0.00000,0.00000,0.00000,71,5,39,2,71,26,41,1,ok,2,0,0.002,8,-0.61,1.80,10.20,51,0.177,8.28
8.6395,0.08901,0.00873,0.86743,0.00000,0.00000,0.00000,70,1,40,2,70,28,42,1,ok,2,0,0.002,9,-0.61,1.80,10.20,51,0.190,8.28
8.6523,0.08901,0.00873,0.86743,0.00000,0.00000,0.00000,69,-1,41,2,70,29,43,1,ok,2,0,0.002,9,-0.61,1.80,10.20,51,0.202,8.28
8.6748,0.02269,0.02269,0.90757,0.00000,0.00000,0.00000,68,-3,43,2,70,29,44,1,ok,2,0,0.002,9,0.91,-0.42,10.79,52,0.000,8.28
8.6780,0.02269,0.02269,0.90757,0.00000,0.00000,0.00000,65,-4,43,2,72,29,45,1,ok,2,0,0.002,9,0.91,-0.42,10.79,52,0.013,8.28
8.6904,0.02269,0.02269,0.90757,0.00000,0.00000,0.00000,65,-6,45,3,73,26,47,0,ok,2,0,0.002,9,0.91,-0.42,10.79,52,0.026,8.28
8.7108,0.02269,0.02269,0.90757,0.00000,0.00000,0.00000,64,-8,46,3,75,22,48,0,ok,2,0,0.002,9,0.91,-0.42,10.79,52,0.039,8.28
8.7155,0.02269,0.02269,0.90757,0.00000,0.00000,0.00000,61,-9,48,4,77,17,49,1,ok,2,0,0.003,9,0.91,-0.42,10.79,52,0.051,8.28
8.7281,0.02269,0.02269,0.90757,0.00000,0.00000,0.00000,59,-10,49,3,78,14,49,1,ok,2,0,0.003,9,0.91,-0.42,10.79,52,0.064,8.28
8.7508,0.02269,0.02269,0.90757,0.00000,0.00000,0.00000,57,-11,50,3,78,14,50,1,ok,2,0,0.003,9,0.91,-0.42,10.79,52,0.076,8.28
8.7539,0.02269,0.02269,0.90757,0.00000,0.00000,0.00000,54,-12,50,5,78,11,51,1,ok,2,0,0.003,9,0.91,-0.42,10.79,52,0.089,8.28
8.7665,0.02269,0.02269,0.90757,0.00000,0.00000,0.00000,52,-11,51,6,78,8,52,1,ok,2,0,0.003,9,0.91,-0.42,10.79,52,0.102,8.28
8.7868,0.02269,0.02269,0.90757,0.00000,0.00000,0.00000,49,-11,52,6,78,5,53,0,ok,2,0,0.003,9,0.91,-0.42,10.79,52,0.115,8.28
8.7915,0.02269,0.02269,0.90757,0.00000,0.00000,0.00000,47,-11,53,6,77,3,54,0,ok,2,0,0.003,9,0.91,-0.42,10.79,52,0.127,8.28
8.8041,0.02269,0.02269,0.90757,0.00000,0.00000,0.00000,44,-11,53,7,76,-1,55,1,ok,2,0,0.003,9,0.91,-0.42,10.79,52,0.140,8.28
8.8268,0.02269,0.02269,0.90757,0.00000,0.00000,0.00000,42,-11,55,7,76,-3,55,0,ok,2,0,0.003,9,0.91,-0.42,10.79,52,0.152,8.28
8.8300,0.02269,0.02269,0.90757,0.00000,0.00000,0.00000,39,-10,56,7,75,-4,56,1,ok,2,0,0.003,9,0.91,-0.42,10.79,52,0.165,8.28
8.8424,0.02269,0.02269,0.90757,0.00000,0.00000,0.00000,36,-9,57,8,73,-7,57,-1,ok,2,0,0.003,9,0.91,-0.42,10.79,52,0.178,8.28
8.8628,0.05585,-0.03142,0.89186,0.00000,0.00000,0.00000,34,-8,57,8,70,-7,57,0,ok,2,0,0.003,9,-0.25,0.84,11.27,53,0.000,8.28
8.8675,0.05585,-0.03142,0.89186,0.00000,0.00000,0.00000,30,-6,58,9,69,-9,58,0,ok,2,0,0.003,9,-0.25,0.84,11.27,53,0.013,8.28
8.8800,0.05585,-0.03142,0.89186,0.00000,0.00000,0.00000,27,-4,59,9,68,-11,59,1,ok,2,0,0.003,9,-0.25,0.84,11.27,53,0.025,8.28
8.9028,0.05585,-0.03142,0.89186,0.00000,0.00000,0.00000,23,-2,60,11,66,-12,60,0,ok,2,0,0.003,9,-0.25,0.84,11.27,53,0.038,8.28
8.9058,0.05585,-0.03142,0.89186,0.00000,0.00000,0.00000,21,-1,61,11,64,-13,61,0,ok,2,0,0.003,9,-0.25,0.84,11.27,53,0.051,8.28
8.9185,0.05585,-0.03142,0.89186,0.00000,0.00000,0.00000,20,0,62,11,62,-13,63,-2,ok,2,0,0.003,9,-0.25,0.84,11.27,53,0.063,8.28
8.9388,0.05585,-0.03142,0.89186,0.00000,0.00000,0.00000,18,3,62,12,59,-14,64,-1,ok,2,0,0.003,9,-0.25,0.84,11.27,53,0.076,8.28
8.9436,0.05585,-0.03142,0.89186,0.00000,0.00000,0.00000,15,6,63,13,57,-14,65,-1,ok,2,0,0.003,9,-0.25,0.84,11.27,53,0.088,8.28
8.9560,0.05585,-0.03142,0.89186,0.00000,0.00000,0.00000,14,10,63,14,54,-14,65,-1,ok,2,0,0.003,9,-0.25,0.84,11.27,53,0.101,8.28
8.9788,0.05585,-0.03142,0.89186,0.00000,0.00000,0.00000,12,13,63,15,52,-13,66,-1,ok,2,0,0.003,9,-0.25,0.84,11.27,53,0.113,8.28
8.9819,0.05585,-0.03142,0.89186,0.00000,0.00000,0.00000,14,13,64,16,49,-13,67,0,ok,2,0,0.003,9,-0.25,0.84,11.27,53,0.127,8.28
8.9944,0.05585,-0.03142,0.89186,0.00000,0.00000,0.00000,14,13,64,17,46,-12,67,0,ok,2,0,0.003,9,-0.25,0.84,11.27,53,0.140,8.28
9.0148,0.05585,-0.03142,0.89186,0.00000,0.00000,0.00000,15,12,64,17,44,-11,68,1,ok,0,0,0.003,9,-0.25,0.84,11.27,53,0.152,8.28
9.0197,0.05585,-0.03142,0.89186,0.00000,0.00000,0.00000,17,11,65,18,41,-10,69,1,ok,0,0,0.003,9,-0.25,0.84,11.27,53,0.164,8.28
9.0321,0.05585,-0.03142,0.89186,0.00000,0.00000,0.00000,17,11,65,19,38,-9,70,2,ok,0,0,0.003,9,-0.25,0.84,11.27,53,0.177,8.28
9.0548,0.05585,-0.03142,0.89186,0.00000,0.00000,0.00000,19,10,65,20,35,-8,70,2,ok,0,0,0.003,9,-0.25,0.84,11.27,53,0.190,8.28
9.0581,0.00873,-0.00873,0.92153,0.00000,0.00000,0.00000,19,10,65,21,33,-7,71,3,ok,0,0,0.003,9,-0.07,0.04,11.18,54,0.000,8.28
9.0704,0.00873,-0.00873,0.92153,0.00000,0.00000,0.00000,22,8,66,22,31,-5,71,5,ok,0,0,0.003,9,-0.07,0.04,11.18,54,0.013,8.28
9.0908,0.00873,-0.00873,0.92153,0.00000,0.00000,0.00000,23,8,66,23,29,-2,72,5,ok,0,0,0.003,9,-0.07,0.04,11.18,54,0.025,8.28
9.0955,0.00873,-0.00873,0.92153,0.00000,0.00000,0.00000,24,7,65,23,27,0,72,7,ok,0,0,0.003,9,-0.07,0.04,11.18,54,0.038,8.28
9.1081,0.00873,-0.00873,0.92153,0.00000,0.00000,0.00000,26,6,65,24,26,4,72,8,ok,0,0,0.003,9,-0.07,0.04,11.18,54,0.050,8.28
9.1308,0.00873,-0.00873,0.92153,0.00000,0.00000,0.00000,27,6,65,25,26,6,72,9,ok,0,0,0.003,9,-0.07,0.04,11.18,54,0.063,8.28
9.1341,0.00873,-0.00873,0.92153,0.00000,0.00000,0.00000,28,5,64,28,28,6,73,9,ok,0,0,0.003,9,-0.07,0.04,11.18,54,0.076,8.28
9.1465,0.00873,-0.00873,0.92153,0.00000,0.00000,0.00000,29,4,63,29,28,5,73,11,ok,0,0,0.003,9,-0.07,0.04,11.18,54,0.089,8.28
9.1668,0.00873,-0.00873,0.92153,0.00000,0.00000,0.00000,30,4,65,28,29,3,73,12,ok,0,0,0.003,9,-0.07,0.04,11.18,54,0.101,8.28
9.1715,0.00873,-0.00873,0.92153,0.00000,0.00000,0.00000,32,3,67,25,30,3,73,14,ok,0,0,0.003,9,-0.07,0.04,11.18,54,0.114,8.28
9.1840,0.00873,-0.00873,0.92153,0.00000,0.00000,0.00000,33,3,70,21,31,3,73,16,ok,0,0,0.003,9,-0.07,0.04,11.18,54,0.126,8.28
9.2068,0.00873,-0.00873,0.92153,0.00000,0.00000,0.00000,34,2,71,17,33,2,73,18,ok,0,0,0.003,9,-0.07,0.04,11.18,54,0.139,8.28
9.2099,0.00873,-0.00873,0.92153,0.00000,0.00000,0.00000,35,2,71,15,34,1,73,20,ok,0,0,0.003,9,-0.07,0.04,11.18,54,0.152,8.28
9.2227,0.00873,-0.00873,0.92153,0.00000,0.00000,0.00000,37,1,71,15,36,1,73,20,ok,0,0,0.003,9,-0.07,0.04,11.18,54,0.165,8.28
9.2428,0.00873,-0.00873,0.92153,0.00000,0.00000,0.00000,38,1,71,11,37,1,72,22,ok,0,0,0.003,9,-0.07,0.04,11.18,54,0.177,8.28
9.2475,0.00873,-0.00873,0.92153,0.00000,0.00000,0.00000,40,1,71,8,38,2,72,24,ok,0,0,0.003,9,-0.07,0.04,11.18,54,0.190,8.28
9.2603,-0.00698,0.00175,0.87092,0.00000,0.00000,0.00000,41,1,70,6,40,1,73,25,ok,0,0,0.003,9,0.55,-0.33,9.62,55,0.000,8.28
9.2828,-0.00698,0.00175,0.87092,0.00000,0.00000,0.00000,43,0,70,3,41,2,73,26,ok,0,0,0.003,9,0.55,-0.33,9.62,55,0.012,8.28
9.2861,-0.00698,0.00175,0.87092,0.00000,0.00000,0.00000,44,0,68,1,42,1,72,28,ok,0,0,0.003,9,0.55,-0.33,9.62,55,0.026,8.28
9.2984,-0.00698,0.00175,0.87092,0.00000,0.00000,0.00000,46,0,67,0,43,1,72,29,ok,0,0,0.003,9,0.55,-0.33,9.62,55,0.039,8.28
9.3188,-0.00698,0.00175,0.87092,0.00000,0.00000,0.00000,46,0,65,-2,44,0,73,29,ok,0,0,0.003,9,0.55,-0.33,9.62,55,0.051,8.28
9.3235,-0.00698,0.00175,0.87092,0.00000,0.00000,0.00000,47,0,64,-4,46,0,74,28,ok,0,0,0.003,9,0.55,-0.33,9.62,55,0.064,8.28
9.3361,-0.00698,0.00175,0.87092,0.00000,0.00000,0.00000,49,0,63,-6,47,0,76,26,ok,0,0,0.003,9,0.55,-0.33,9.62,55,0.076,8.28
9.3588,-0.00698,0.00175,0.87092,0.00000,0.00000,0.00000,50,2,61,-7,48,0,78,21,ok,0,0,0.003,9,0.55,-0.33,9.62,55,0.089,8.28
9.3621,-0.00698,0.00175,0.87092,0.00000,0.00000,0.00000,51,1,59,-8,49,0,79,17,ok,0,0,0.003,9,0.55,-0.33,9.62,55,0.102,8.28
9.3744,-0.00698,0.00175,0.87092,0.00000,0.00000,0.00000,51,1,56,-8,50,0,81,14,ok,0,0,0.003,9,0.55,-0.33,9.62,55,0.115,8.28
9.3952,-0.00698,0.00175,0.87092,0.00000,0.00000,0.00000,51,3,54,-9,51,0,81,13,ok,2,0,0.003,9,0.55,-0.33,9.62,55,0.127,8.28
9.3996,-0.00698,0.00175,0.87092,0.00000,0.00000,0.00000,53,5,51,-9,52,0,81,11,ok,2,0,0.003,9,0.55,-0.33,9.62,55,0.140,8.28
9.4122,-0.00698,0.00175,0.87092,0.00000,0.00000,0.00000,53,4,48,-9,54,0,81,7,ok,2,0,0.003,9,0.55,-0.33,9.62,55,0.152,8.28
9.4348,-0.00698,0.00175,0.87092,0.00000,0.00000,0.00000,54,5,46,-8,54,1,80,4,ok,2,0,0.003,9,0.55,-0.33,9.62,55,0.165,8.28
9.4381,-0.00698,0.00175,0.87092,0.00000,0.00000,0.00000,54,6,43,-9,55,1,80,2,ok,2,0,0.003,9,0.55,-0.33,9.62,55,0.178,8.28
9.4504,-0.00698,0.00175,0.87092,0.00000,0.00000,0.00000,56,6,41,-9,56,1,78,-2,ok,2,0,0.003,9,0.55,-0.33,9.62,55,0.191,8.28
9.4708,-0.08029,-0.06458,0.94946,0.00000,0.00000,0.00000,57,6,38,-8,57,1,78,-3,ok,2,0,0.003,9,-0.34,-1.07,8.79,56,0.000,8.28
9.4755,-0.08029,-0.06458,0.94946,0.00000,0.00000,0.00000,58,7,35,-7,58,1,77,-5,ok,2,0,0.003,9,-0.34,-1.07,8.79,56,0.012,8.28
9.4881,-0.08029,-0.06458,0.94946,0.00000,0.00000,0.00000,59,8,33,-6,59,1,75,-6,ok,2,0,0.003,9,-0.34,-1.07,8.79,56,0.025,8.28
9.5108,-0.08029,-0.06458,0.94946,0.00000,0.00000,0.00000,60,8,29,-5,60,1,72,-7,ok,2,0,0.003,9,-0.34,-1.07,8.79,56,0.038,8.28
9.5141,-0.08029,-0.06458,0.94946,0.00000,0.00000,0.00000,60,9,26,-3,61,1,71,-9,ok,2,0,0.003,9,-0.34,-1.07,8.79,56,0.051,8.28
9.5264,-0.08029,-0.06458,0.94946,0.00000,0.00000,0.00000,62,10,22,-1,62,0,70,-11,ok,2,0,0.003,9,-0.34,-1.07,8.79,56,0.064,8.28
9.5468,-0.08029,-0.06458,0.94946,0.00000,0.00000,0.00000,62,10,20,0,64,-2,68,-12,ok,2,0,0.003,9,-0.34,-1.07,8.79,56,0.076,8.28
9.5515,-0.08029,-0.06458,0.94946,0.00000,0.00000,0.00000,63,11,18,1,64,-1,65,-13,ok,2,0,0.003,9,-0.34,-1.07,8.79,56,0.089,8.28
9.5642,-0.08029,-0.06458,0.94946,0.00000,0.00000,0.00000,63,11,16,4,65,0,63,-13,ok,2,0,0.003,9,-0.34,-1.07,8.79,56,0.101,8.28
9.5868,-0.08029,-0.06458,0.94946,0.00000,0.00000,0.00000,64,12,14,7,65,0,61,-14,ok,2,0,0.003,9,-0.34,-1.07,8.79,56,0.114,8.28
9.5899,-0.08029,-0.06458,0.94946,0.00000,0.00000,0.00000,64,14,13,10,66,0,59,-14,ok,2,0,0.003,9,-0.34,-1.07,8.79,56,0.127,8.28
9.6024,-0.08029,-0.06458,0.94946,0.00000,0.00000,0.00000,65,14,11,13,67,0,56,-13,ok,2,0,0.003,9,-0.34,-1.07,8.79,56,0.140,8.28
9.6228,-0.08029,-0.06458,0.94946,0.00000,0.00000,0.00000,65,15,13,13,67,0,53,-12,ok,2,0,0.003,9,-0.34,-1.07,8.79,56,0.152,8.28
9.6275,-0.08029,-0.06458,0.94946,0.00000,0.00000,0.00000,65,16,12,13,68,1,50,-12,ok,2,0,0.003,9,-0.34,-1.07,8.79,56,0.164,8.28
9.6400,-0.08029,-0.06458,0.94946,0.00000,0.00000,0.00000,66,17,14,12,68,1,47,-11,ok,2,0,0.003,9,-0.34,-1.07,8.79,56,0.177,8.28
9.6628,-0.08029,-0.06458,0.94946,0.00000,0.00000,0.00000,66,18,15,11,69,2,45,-10,ok,2,0,0.003,9,-0.34,-1.07,8.79,56,0.190,8.28
9.6663,-0.08029,-0.06458,0.94946,0.00000,0.00000,0.00000,67,18,16,10,69,2,42,-9,ok,2,0,0.003,10,-0.34,-1.07,8.79,56,0.203,8.28
9.6788,-0.04712,0.03840,0.96342,0.00000,0.00000,0.00000,67,19,17,9,69,3,39,-9,ok,2,0,0.003,10,0.26,-0.27,9.27,57,0.000,8.28
9.6988,-0.04712,0.03840,0.96342,0.00000,0.00000,0.00000,67,20,18,9,70,5,35,-7,ok,2,0,0.003,10,0.26,-0.27,9.27,57,0.013,8.28
9.7035,-0.04712,0.03840,0.96342,0.00000,0.00000,0.00000,68,21,20,8,71,5,34,-5,ok,2,0,0.003,10,0.26,-0.27,9.27,57,0.025,8.28
9.7161,-0.04712,0.03840,0.96342,0.00000,0.00000,0.00000,68,22,21,7,71,6,32,-4,ok,2,0,0.003,10,0.26,-0.27,9.27,57,0.038,8.28
9.7388,-0.04712,0.03840,0.96342,0.00000,0.00000,0.00000,68,23,22,7,70,8,30,-1,ok,2,0,0.003,10,0.26,-0.27,9.27,57,0.050,8.28
9.7421,-0.04712,0.03840,0.96342,0.00000,0.00000,0.00000,68,24,23,6,71,8,29,2,ok,2,0,0.003,10,0.26,-0.27,9.27,57,0.063,8.28
9.7545,-0.04712,0.03840,0.96342,0.00000,0.00000,0.00000,67,25,24,5,71,9,27,5,ok,2,0,0.003,10,0.26,-0.27,9.27,57,0.076,8.28
9.7748,-0.04712,0.03840,0.96342,0.00000,0.00000,0.00000,66,28,26,5,71,10,27,7,ok,2,0,0.003,10,0.26,-0.27,9.27,57,0.089,8.28
9.7795,-0.04712,0.03840,0.96342,0.00000,0.00000,0.00000,65,29,27,4,71,12,29,6,ok,2,0,0.003,10,0.26,-0.27,9.27,57,0.101,8.28
9.7921,-0.04712,0.03840,0.96342,0.00000,0.00000,0.00000,67,28,28,4,71,13,29,6,ok,2,0,0.003,10,0.26,-0.27,9.27,57,0.114,8.28
9.8148,-0.04712,0.03840,0.96342,0.00000,0.00000,0.00000,69,25,29,3,72,15,31,4,ok,2,0,0.003,10,0.26,-0.27,9.27,57,0.126,8.28
9.8179,-0.04712,0.03840,0.96342,0.00000,0.00000,0.00000,71,21,31,2,71,16,32,3,ok,2,0,0.003,10,0.26,-0.27,9.27,57,0.139,8.28
9.8304,-0.04712,0.03840,0.96342,0.00000,0.00000,0.00000,72,17,32,2,71,18,33,3,ok,2,0,0.003,10,0.26,-0.27,9.27,57,0.152,8.28
9.8508,-0.04712,0.03840,0.96342,0.00000,0.00000,0.00000,73,15,33,2,72,19,34,2,ok,2,0,0.003,10,0.26,-0.27,9.27,57,0.165,8.28
9.8557,-0.04712,0.03840,0.96342,0.00000,0.00000,0.00000,72,14,35,2,71,21,36,1,ok,2,0,0.003,10,0.26,-0.27,9.27,57,0.177,8.28
9.8683,-0.04712,0.03840,0.96342,0.00000,0.00000,0.00000,72,11,36,2,71,22,38,1,ok,2,0,0.003,10,0.26,-0.27,9.27,57,0.190,8.28
9.8908,0.01047,0.01396,1.00007,0.00000,0.00000,0.00000,71,7,38,2,71,24,39,2,ok,2,0,0.003,10,-0.06,0.86,10.99,58,0.000,8.28
9.8941,0.01047,0.01396,1.00007,0.00000,0.00000,0.00000,71,5,39,2,71,26,41,1,ok,2,0,0.003,10,-0.06,0.86,10.99,58,0.013,8.28
9.9065,0.01047,0.01396,1.00007,0.00000,0.00000,0.00000,70,1,40,2,70,28,42,2,ok,2,0,0.003,10,-0.06,0.86,10.99,58,0.026,8.28
9.9268,0.01047,0.01396,1.00007,0.00000,0.00000,0.00000,69,-1,42,1,70,29,43,2,ok,2,0,0.003,10,-0.06,0.86,10.99,58,0.038,8.28
9.9315,0.01047,0.01396,1.00007,0.00000,0.00000,0.00000,67,-3,43,2,71,29,44,1,ok,2,0,0.003,10,-0.06,0.86,10.99,58,0.051,8.28
9.9441,0.01047,0.01396,1.00007,0.00000,0.00000,0.00000,65,-4,43,2,72,29,45,1,ok,2,0,0.003,10,-0.06,0.86,10.99,58,0.063,8.28
9.9668,0.01047,0.01396,1.00007,0.00000,0.00000,0.00000,64,-6,45,2,73,26,46,0,ok,2,0,0.003,10,-0.06,0.86,10.99,58,0.076,8.28
9.9700,0.01047,0.01396,1.00007,0.00000,0.00000,0.00000,63,-8,46,2,76,22,47,0,ok,2,0,0.003,10,-0.06,0.86,10.99,58,0.089,8.28
9.9824,0.01047,0.01396,1.00007,0.00000,0.00000,0.00000,61,-9,48,3,77,17,49,0,ok,2,0,0.003,10,-0.06,0.86,10.99,58,0.102,8.28
10.0028,0.01047,0.01396,1.00007,0.00000,0.00000,0.00000,59,-10,49,3,78,14,49,1,ok,2,0,0.003,10,-0.06,0.86,10.99,58,0.114,8.28
10.0075,0.01047,0.01396,1.00007,0.00000,0.00000,0.00000,57,-11,50,3,78,14,50,1,ok,2,0,0.003,10,-0.06,0.86,10.99,58,0.127,8.28
10.0203,0.01047,0.01396,1.00007,0.00000,0.00000,0.00000,54,-12,50,5,78,11,51,1,ok,2,0,0.003,10,-0.06,0.86,10.99,58,0.139,8.28
10.0468,0.01047,0.01396,1.00007,0.00000,0.00000,0.00000,52,-11,51,6,78,8,52,0,ok,2,0,0.003,10,-0.06,0.86,10.99,58,0.152,8.28
10.0498,0.01047,0.01396,1.00007,0.00000,0.00000,0.00000,49,-11,52,5,78,5,53,0,ok,2,0,0.003,10,-0.06,0.86,10.99,58,0.169,8.28
10.0624,0.01047,0.01396,1.00007,0.00000,0.00000,0.00000,47,-11,53,6,77,3,54,0,ok,2,0,0.003,10,-0.06,0.86,10.99,58,0.182,8.28
10.0828,0.11345,-0.01222,0.98088,0.00000,0.00000,0.00000,44,-11,53,7,76,-1,55,1,ok,2,0,0.003,10,0.60,1.38,9.83,59,0.000,8.28
10.0875,0.11345,-0.01222,0.98088,0.00000,0.00000,0.00000,42,-11,55,7,76,-3,55,0,ok,2,0,0.003,10,0.60,1.38,9.83,59,0.013,8.28
10.1002,0.11345,-0.01222,0.98088,0.00000,0.00000,0.00000,40,-10,56,7,75,-4,57,0,ok,2,0,0.003,10,0.60,1.38,9.83,59,0.025,8.28
10.1228,0.11345,-0.01222,0.98088,0.00000,0.00000,0.00000,36,-9,57,8,73,-7,57,-1,ok,2,0,0.003,10,0.60,1.38,9.83,59,0.038,8.28
10.1261,0.11345,-0.01222,0.98088,0.00000,0.00000,0.00000,34,-8,57,8,70,-7,58,0,ok,2,0,0.003,10,0.60,1.38,9.83,59,0.051,8.28
10.1389,0.11345,-0.01222,0.98088,0.00000,0.00000,0.00000,30,-6,58,9,69,-9,58,0,ok,2,0,0.003,10,0.60,1.38,9.83,59,0.064,8.06
10.1588,0.11345,-0.01222,0.98088,0.00000,0.00000,0.00000,28,-4,59,9,68,-11,59,0,ok,2,0,0.003,10,0.60,1.38,9.83,59,0.076,8.06
10.1635,0.11345,-0.01222,0.98088,0.00000,0.00000,0.00000,23,-2,60,11,66,-12,60,0,ok,2,0,0.003,10,0.60,1.38,9.83,59,0.089,8.06
10.1761,0.11345,-0.01222,0.98088,0.00000,0.00000,0.00000,22,-1,61,11,64,-13,61,0,ok,2,0,0.003,10,0.60,1.38,9.83,59,0.101,8.06
10.1988,0.11345,-0.01222,0.98088,0.00000,0.00000,0.00000,20,1,62,11,62,-13,63,-2,ok,2,0,0.003,10,0.60,1.38,9.83,59,0.114,8.06
10.2019,0.11345,-0.01222,0.98088,0.00000,0.00000,0.00000,18,3,62,12,59,-14,64,-1,ok,2,0,0.003,10,0.60,1.38,9.83,59,0.127,8.06
10.2144,0.11345,-0.01222,0.98088,0.00000,0.00000,0.00000,16,7,62,13,57,-14,65,-1,ok,2,0,0.003,10,0.60,1.38,9.83,59,0.140,8.06
10.2348,0.11345,-0.01222,0.98088,0.00000,0.00000,0.00000,14,10,62,14,54,-13,66,-1,ok,0,0,0.003,10,0.60,1.38,9.83,59,0.152,8.06
10.2397,0.11345,-0.01222,0.98088,0.00000,0.00000,0.00000,12,13,63,15,51,-13,66,-1,ok,0,0,0.003,10,0.60,1.38,9.83,59,0.165,8.06
10.2521,0.11345,-0.01222,0.98088,0.00000,0.00000,0.00000,14,13,63,16,49,-13,67,0,ok,0,0,0.003,10,0.60,1.38,9.83,59,0.177,8.06
10.2748,0.11345,-0.01222,0.98088,0.00000,0.00000,0.00000,14,13,63,17,46,-11,68,0,ok,0,0,0.003,10,0.60,1.38,9.83,59,0.190,8.06
10.2780,0.11345,-0.01222,0.98088,0.00000,0.00000,0.00000,15,12,64,17,44,-11,68,1,ok,0,0,0.003,10,0.60,1.38,9.83,59,0.203,8.06
10.2908,0.12566,0.00349,0.97564,0.00000,0.00000,0.00000,17,12,64,18,41,-10,69,1,ok,0,0,0.003,10,0.69,0.15,10.41,60,0.000,8.06
10.3108,0.12566,0.00349,0.97564,0.00000,0.00000,0.00000,17,11,65,19,38,-9,70,2,ok,0,0,0.003,10,0.69,0.15,10.41,60,0.013,8.06
10.3155,0.12566,0.00349,0.97564,0.00000,0.00000,0.00000,19,10,65,20,35,-8,70,2,ok,0,0,0.003,10,0.69,0.15,10.41,60,0.025,8.06
10.3281,0.12566,0.00349,0.97564,0.00000,0.00000,0.00000,20,10,65,21,33,-6,71,3,ok,0,0,0.003,10,0.69,0.15,10.41,60,0.038,8.06
10.3508,0.12566,0.00349,0.97564,0.00000,0.00000,0.00000,22,9,65,21,31,-5,71,5,ok,0,0,0.003,10,0.69,0.15,10.41,60,0.050,8.06
10.3540,0.12566,0.00349,0.97564,0.00000,0.00000,0.00000,23,8,65,23,29,-2,72,5,ok,0,0,0.003,10,0.69,0.15,10.41,60,0.063,8.06
10.3665,0.12566,0.00349,0.97564,0.00000,0.00000,0.00000,25,7,65,23,27,1,72,6,ok,0,0,0.003,10,0.69,0.15,10.41,60,0.076,8.06
10.3868,0.12566,0.00349,0.97564,0.00000,0.00000,0.00000,26,6,65,24,26,4,72,8,ok,0,0,0.003,10,0.69,0.15,10.41,60,0.088,8.06
10.3915,0.12566,0.00349,0.97564,0.00000,0.00000,0.00000,27,6,65,25,26,7,73,9,ok,0,0,0.003,10,0.69,0.15,10.41,60,0.101,8.06
10.4041,0.12566,0.00349,0.97564,0.00000,0.00000,0.00000,28,5,64,28,27,6,73,9,ok,0,0,0.003,10,0.69,0.15,10.41,60,0.113,8.06
10.4268,0.12566,0.00349,0.97564,0.00000,0.00000,0.00000,30,4,63,29,28,6,73,11,ok,0,0,0.003,10,0.69,0.15,10.41,60,0.126,8.06
10.4300,0.12566,0.00349,0.97564,0.00000,0.00000,0.00000,31,4,65,28,29,4,73,12,ok,0,0,0.003,10,0.69,0.15,10.41,60,0.139,8.06
10.4426,0.12566,0.00349,0.97564,0.00000,0.00000,0.00000,32,3,67,25,30,3,74,15,ok,0,0,0.003,10,0.69,0.15,10.41,60,0.152,8.06
10.4628,0.12566,0.00349,0.97564,0.00000,0.00000,0.00000,33,3,70,21,31,3,74,16,ok,0,0,0.003,10,0.69,0.15,10.41,60,0.164,8.06
10.4675,0.12566,0.00349,0.97564,0.00000,0.00000,0.00000,35,2,71,17,32,2,73,17,ok,0,0,0.003,10,0.69,0.15,10.41,60,0.177,8.06
10.4801,0.12566,0.00349,0.97564,0.00000,0.00000,0.00000,36,2,71,15,34,1,73,19,ok,0,0,0.003,10,0.69,0.15,10.41,60,0.189,8.06
10.5028,-0.04363,-0.04712,0.97215,0.00000,0.00000,0.00000,38,1,71,15,36,2,74,20,ok,0,0,0.003,10,-0.26,-0.58,12.40,61,0.000,8.06
10.5060,-0.04363,-0.04712,0.97215,0.00000,0.00000,0.00000,39,1,71,11,36,1,73,23,ok,0,0,0.003,10,-0.26,-0.58,12.40,61,0.013,8.06
10.5184,-0.04363,-0.04712,0.97215,0.00000,0.00000,0.00000,41,1,71,9,38,1,73,24,ok,0,0,0.003,10,-0.26,-0.58,12.40,61,0.026,8.06
10.5388,-0.04363,-0.04712,0.97215,0.00000,0.00000,0.00000,42,0,70,6,39,1,73,25,ok,0,0,0.003,10,-0.26,-0.58,12.40,61,0.039,8.06
10.5435,-0.04363,-0.04712,0.97215,0.00000,0.00000,0.00000,43,0,69,4,40,1,73,27,ok,0,0,0.003,10,-0.26,-0.58,12.40,61,0.051,8.06
10.5565,-0.04363,-0.04712,0.97215,0.00000,0.00000,0.00000,44,-1,68,1,41,1,73,28,ok,0,0,0.003,10,-0.26,-0.58,12.40,61,0.064,8.06
10.5788,-0.04363,-0.04712,0.97215,0.00000,0.00000,0.00000,46,0,67,0,43,1,73,29,ok,0,0,0.003,10,-0.26,-0.58,12.40,61,0.076,8.06
10.5821,-0.04363,-0.04712,0.97215,0.00000,0.00000,0.00000,46,0,65,-1,44,0,74,29,ok,0,0,0.003,10,-0.26,-0.58,12.40,61,0.089,8.06
10.5945,-0.04363,-0.04712,0.97215,0.00000,0.00000,0.00000,48,0,64,-3,46,0,75,29,ok,0,0,0.003,10,-0.26,-0.58,12.40,61,0.102,8.06
10.6148,-0.04363,-0.04712,0.97215,0.00000,0.00000,0.00000,49,0,63,-6,47,0,76,26,ok,0,0,0.003,10,-0.26,-0.58,12.40,61,0.115,8.06
10.6195,-0.04363,-0.04712,0.97215,0.00000,0.00000,0.00000,50,1,61,-6,48,0,78,21,ok,0,0,0.003,10,-0.26,-0.58,12.40,61,0.127,8.06
10.6323,-0.04363,-0.04712,0.97215,0.00000,0.00000,0.00000,51,1,59,-8,48,0,79,17,ok,0,0,0.003,10,-0.26,-0.58,12.40,61,0.140,8.06
10.6548,-0.04363,-0.04712,0.97215,0.00000,0.00000,0.00000,51,1,56,-8,50,0,81,14,ok,0,0,0.003,10,-0.26,-0.58,12.40,61,0.152,8.06
10.6579,-0.04363,-0.04712,0.97215,0.00000,0.00000,0.00000,52,4,54,-9,51,0,81,13,ok,0,0,0.003,10,-0.26,-0.58,12.40,61,0.165,8.06
10.6707,-0.04363,-0.04712,0.97215,0.00000,0.00000,0.00000,53,5,51,-9,52,0,81,11,ok,0,0,0.003,10,-0.26,-0.58,12.40,61,0.178,8.06
10.6908,-0.04363,-0.04712,0.97215,0.00000,0.00000,0.00000,53,4,48,-9,53,0,81,7,ok,2,0,0.003,11,-0.26,-0.58,12.40,61,0.191,8.06
10.6957,-0.04363,-0.04712,0.97215,0.00000,0.00000,0.00000,54,5,46,-8,54,1,80,4,ok,2,0,0.003,11,-0.26,-0.58,12.40,61,0.203,8.06
10.7083,-0.09425,-0.02094,1.03149,0.00000,0.00000,0.00000,54,6,43,-9,55,1,80,2,ok,2,0,0.003,11,-0.62,-0.82,10.13,62,0.000,8.06
10.7308,-0.09425,-0.02094,1.03149,0.00000,0.00000,0.00000,57,6,41,-9,56,1,78,-1,ok,2,0,0.003,11,-0.62,-0.82,10.13,62,0.013,8.06
10.7339,-0.09425,-0.02094,1.03149,0.00000,0.00000,0.00000,57,6,38,-8,57,0,78,-3,ok,2,0,0.003,11,-0.62,-0.82,10.13,62,0.026,8.06
10.7465,-0.09425,-0.02094,1.03149,0.00000,0.00000,0.00000,58,7,35,-7,58,1,77,-4,ok,2,0,0.003,11,-0.62,-0.82,10.13,62,0.038,8.06
10.7668,-0.09425,-0.02094,1.03149,0.00000,0.00000,0.00000,59,8,32,-6,59,1,75,-7,ok,2,0,0.003,11,-0.62,-0.82,10.13,62,0.051,8.06
10.7715,-0.09425,-0.02094,1.03149,0.00000,0.00000,0.00000,60,8,29,-5,60,1,72,-7,ok,2,0,0.003,11,-0.62,-0.82,10.13,62,0.063,8.06
10.7841,-0.09425,-0.02094,1.03149,0.00000,0.00000,0.00000,60,9,26,-3,61,1,71,-9,ok,2,0,0.003,11,-0.62,-0.82,10.13,62,0.076,8.06
10.8108,-0.09425,-0.02094,1.03149,0.00000,0.00000,0.00000,62,10,21,-1,61,1,70,-11,ok,2,0,0.003,11,-0.62,-0.82,10.13,62,0.088,8.06
10.8139,-0.09425,-0.02094,1.03149,0.00000,0.00000,0.00000,62,10,20,0,64,-1,67,-12,ok,2,0,0.003,11,-0.62,-0.82,10.13,62,0.106,8.06
10.8266,-0.09425,-0.02094,1.03149,0.00000,0.00000,0.00000,63,11,18,1,64,-1,65,-13,ok,2,0,0.003,11,-0.62,-0.82,10.13,62,0.119,8.06
10.8468,-0.09425,-0.02094,1.03149,0.00000,0.00000,0.00000,63,12,16,4,65,0,63,-13,ok,2,0,0.003,11,-0.62,-0.82,10.13,62,0.131,8.06
10.8515,-0.09425,-0.02094,1.03149,0.00000,0.00000,0.00000,64,12,14,7,65,0,61,-14,ok,2,0,0.003,11,-0.62,-0.82,10.13,62,0.144,8.06
10.8640,-0.09425,-0.02094,1.03149,0.00000,0.00000,0.00000,64,13,12,10,66,0,59,-14,ok,2,0,0.003,11,-0.62,-0.82,10.13,62,0.156,8.06
10.8868,-0.09425,-0.02094,1.03149,0.00000,0.00000,0.00000,65,14,11,13,67,0,56,-12,ok,2,0,0.003,11,-0.62,-0.82,10.13,62,0.169,8.06
10.8899,-0.09425,-0.02094,1.03149,0.00000,0.00000,0.00000,65,15,12,13,67,1,53,-12,ok,2,0,0.003,11,-0.62,-0.82,10.13,62,0.182,8.06
10.9027,-0.09425,-0.02094,1.03149,0.00000,0.00000,0.00000,65,16,12,13,68,1,51,-12,ok,2,0,0.003,11,-0.62,-0.82,10.13,62,0.194,8.06
10.9228,0.00175,0.02269,1.01229,0.00000,0.00000,0.00000,66,16,14,12,68,1,47,-11,ok,2,0,0.003,11,-0.23,0.23,9.22,63,0.000,8.06
10.9275,0.00175,0.02269,1.01229,0.00000,0.00000,0.00000,66,17,15,11,69,2,45,-10,ok,2,0,0.003,11,-0.23,0.23,9.22,63,0.012,8.06
10.9401,0.00175,0.02269,1.01229,0.00000,0.00000,0.00000,67,18,15,10,69,3,42,-9,ok,2,0,0.003,11,-0.23,0.23,9.22,63,0.025,8.06
10.9628,0.00175,0.02269,1.01229,0.00000,0.00000,0.00000,67,19,17,9,69,4,40,-9,ok,2,0,0.003,11,-0.23,0.23,9.22,63,0.037,8.06
10.9659,0.00175,0.02269,1.01229,0.00000,0.00000,0.00000,67,20,18,9,70,5,36,-7,ok,2,0,0.003,11,-0.23,0.23,9.22,63,0.051,8.06
10.9784,0.00175,0.02269,1.01229,0.00000,0.00000,0.00000,68,21,19,8,71,5,34,-5,ok,2,0,0.003,11,-0.23,0.23,9.22,63,0.063,8.06
10.9988,0.00175,0.02269,1.01229,0.00000,0.00000,0.00000,68,22,21,7,71,6,32,-4,ok,2,0,0.003,11,-0.23,0.23,9.22,63,0.076,8.06
11.0035,0.00175,0.02269,1.01229,0.00000,0.00000,0.00000,68,23,22,6,70,8,30,-1,ok,2,0,0.003,11,-0.23,0.23,9.22,63,0.088,8.06
11.0162,0.00175,0.02269,1.01229,0.00000,0.00000,0.00000,68,24,23,6,71,8,29,2,ok,2,0,0.003,11,-0.23,0.23,9.22,63,0.101,8.06
11.0388,0.00175,0.02269,1.01229,0.00000,0.00000,0.00000,67,25,24,5,71,9,28,5,ok,2,0,0.003,11,-0.23,0.23,9.22,63,0.113,8.06
11.0420,0.00175,0.02269,1.01229,0.00000,0.00000,0.00000,66,28,25,5,71,10,27,7,ok,2,0,0.003,11,-0.23,0.23,9.22,63,0.127,8.06
11.0544,0.00175,0.02269,1.01229,0.00000,0.00000,0.00000,66,29,27,4,71,12,29,6,ok,2,0,0.003,11,-0.23,0.23,9.22,63,0.139,8.06
11.0748,0.00175,0.02269,1.01229,0.00000,0.00000,0.00000,67,28,28,4,71,13,30,6,ok,2,0,0.003,11,-0.23,0.23,9.22,63,0.152,8.06
11.0795,0.00175,0.02269,1.01229,0.00000,0.00000,0.00000,69,25,29,3,71,15,31,4,ok,2,0,0.003,11,-0.23,0.23,9.22,63,0.164,8.06
11.0921,0.00175,0.02269,1.01229,0.00000,0.00000,0.00000,72,21,31,3,71,16,32,3,ok,2,0,0.003,11,-0.23,0.23,9.22,63,0.177,8.06
11.1148,0.00175,0.02269,1.01229,0.00000,0.00000,0.00000,72,17,32,2,71,18,34,3,ok,2,0,0.003,11,-0.23,0.23,9.22,63,0.189,8.06
11.1181,-0.00175,0.01920,1.13272,0.00000,0.00000,0.00000,73,15,33,2,72,19,35,2,ok,2,0,0.003,11,-0.19,0.37,9.46,64,0.000,8.06
11.1304,-0.00175,0.01920,1.13272,0.00000,0.00000,0.00000,72,14,35,2,71,21,36,1,ok,2,0,0.003,11,-0.19,0.37,9.46,64,0.013,8.06
11.1508,-0.00175,0.01920,1.13272,0.00000,0.00000,0.00000,72,11,36,2,71,22,38,1,ok,2,0,0.003,11,-0.19,0.37,9.46,64,0.025,8.06
11.1555,-0.00175,0.01920,1.13272,0.00000,0.00000,0.00000,72,7,38,2,71,24,39,2,ok,2,0,0.003,11,-0.19,0.37,9.46,64,0.038,8.06
11.1682,-0.00175,0.01920,1.13272,0.00000,0.00000,0.00000,71,5,39,2,71,26,41,2,ok,2,0,0.003,11,-0.19,0.37,9.46,64,0.050,8.06
11.1908,-0.00175,0.01920,1.13272,0.00000,0.00000,0.00000,70,1,40,2,70,28,42,2,ok,2,0,0.003,11,-0.19,0.37,9.46,64,0.063,8.06
11.1940,-0.00175,0.01920,1.13272,0.00000,0.00000,0.00000,69,-1,41,2,70,29,43,2,ok,2,0,0.003,11,-0.19,0.37,9.46,64,0.076,8.06
11.2065,-0.00175,0.01920,1.13272,0.00000,0.00000,0.00000,68,-3,43,2,70,29,44,1,ok,2,0,0.003,11,-0.19,0.37,9.46,64,0.089,8.06
11.2268,-0.00175,0.01920,1.13272,0.00000,0.00000,0.00000,66,-4,43,2,72,29,45,1,ok,2,0,0.003,11,-0.19,0.37,9.46,64,0.101,8.06
11.2317,-0.00175,0.01920,1.13272,0.00000,0.00000,0.00000,65,-6,45,3,73,26,46,0,ok,2,0,0.003,11,-0.19,0.37,9.46,64,0.114,8.06
11.2441,-0.00175,0.01920,1.13272,0.00000,0.00000,0.00000,64,-8,46,3,75,22,48,0,ok,2,0,0.003,11,-0.19,0.37,9.46,64,0.126,8.06
11.2668,-0.00175,0.01920,1.13272,0.00000,0.00000,0.00000,61,-9,48,4,77,17,49,1,ok,2,0,0.003,11,-0.19,0.37,9.46,64,0.139,8.06
11.2699,-0.00175,0.01920,1.13272,0.00000,0.00000,0.00000,59,-10,49,3,78,14,49,1,ok,2,0,0.003,11,-0.19,0.37,9.46,64,0.152,8.06
11.2824,-0.00175,0.01920,1.13272,0.00000,0.00000,0.00000,57,-11,50,3,78,14,50,1,ok,2,0,0.003,11,-0.19,0.37,9.46,64,0.165,8.06
11.3028,-0.00175,0.01920,1.13272,0.00000,0.00000,0.00000,55,-12,50,5,78,12,51,1,ok,2,0,0.003,11,-0.19,0.37,9.46,64,0.177,8.06
11.3078,0.07156,-0.03316,1.13097,0.00000,0.00000,0.00000,52,-11,51,6,78,8,52,1,ok,2,0,0.003,11,-0.97,0.38,9.91,65,0.000,8.06
11.3201,0.07156,-0.03316,1.13097,0.00000,0.00000,0.00000,49,-11,52,5,78,5,53,0,ok,2,0,0.003,11,-0.97,0.38,9.91,65,0.013,8.06
11.3428,0.07156,-0.03316,1.13097,0.00000,0.00000,0.00000,47,-11,53,6,77,3,54,0,ok,2,0,0.003,11,-0.97,0.38,9.91,65,0.025,8.06
11.3462,0.07156,-0.03316,1.13097,0.00000,0.00000,0.00000,44,-11,54,7,76,-1,55,1,ok,2,0,0.003,11,-0.97,0.38,9.91,65,0.038,8.06
11.3585,0.07156,-0.03316,1.13097,0.00000,0.00000,0.00000,42,-11,55,7,76,-3,55,0,ok,2,0,0.003,11,-0.97,0.38,9.91,65,0.051,8.06
11.3788,0.07156,-0.03316,1.13097,0.00000,0.00000,0.00000,40,-10,56,7,75,-4,57,1,ok,2,0,0.003,11,-0.97,0.38,9.91,65,0.064,8.06
11.3835,0.07156,-0.03316,1.13097,0.00000,0.00000,0.00000,37,-9,57,8,73,-7,57,-1,ok,2,0,0.003,11,-0.97,0.38,9.91,65,0.076,8.06
11.3961,0.07156,-0.03316,1.13097,0.00000,0.00000,0.00000,34,-8,57,8,70,-7,57,0,ok,2,0,0.003,11,-0.97,0.38,9.91,65,0.089,8.06
11.4188,0.07156,-0.03316,1.13097,0.00000,0.00000,0.00000,31,-6,58,9,69,-9,58,0,ok,2,0,0.003,11,-0.97,0.38,9.91,65,0.101,8.06
11.4219,0.07156,-0.03316,1.13097,0.00000,0.00000,0.00000,28,-4,58,9,68,-11,59,1,ok,2,0,0.003,11,-0.97,0.38,9.91,65,0.114,8.06
11.4345,0.07156,-0.03316,1.13097,0.00000,0.00000,0.00000,24,-1,60,11,66,-12,60,0,ok,2,0,0.003,11,-0.97,0.38,9.91,65,0.127,8.06
11.4548,0.07156,-0.03316,1.13097,0.00000,0.00000,0.00000,22,-1,61,11,64,-13,61,0,ok,2,0,0.003,11,-0.97,0.38,9.91,65,0.140,8.06
11.4595,0.07156,-0.03316,1.13097,0.00000,0.00000,0.00000,20,1,62,12,62,-13,64,-2,ok,2,0,0.003,11,-0.97,0.38,9.91,65,0.152,8.06
11.4722,0.07156,-0.03316,1.13097,0.00000,0.00000,0.00000,18,3,62,12,59,-14,64,-1,ok,2,0,0.003,11,-0.97,0.38,9.91,65,0.165,8.06
11.4948,0.07156,-0.03316,1.13097,0.00000,0.00000,0.00000,16,7,62,13,57,-14,65,-1,ok,0,0,0.003,11,-0.97,0.38,9.91,65,0.177,8.06
11.4980,0.07156,-0.03316,1.13097,0.00000,0.00000,0.00000,14,10,62,14,54,-14,65,-1,ok,0,0,0.003,11,-0.97,0.38,9.91,65,0.190,8.06
11.5108,0.07156,-0.03316,1.13097,0.00000,0.00000,0.00000,12,13,63,15,51,-13,66,-1,ok,0,0,0.003,11,-0.97,0.38,9.91,65,0.203,8.06
11.5308,0.04014,-0.02269,1.15192,0.00000,0.00000,0.00000,14,13,63,16,49,-13,67,0,ok,0,0,0.003,11,-0.03,0.09,10.69,66,0.000,8.06
11.5355,0.04014,-0.02269,1.15192,0.00000,0.00000,0.00000,14,13,63,17,46,-12,67,0,ok,0,0,0.003,11,-0.03,0.09,10.69,66,0.012,8.06
11.5481,0.04014,-0.02269,1.15192,0.00000,0.00000,0.00000,16,12,64,17,44,-11,68,1,ok,0,0,0.003,11,-0.03,0.09,10.69,66,0.025,8.06
11.5708,0.04014,-0.02269,1.15192,0.00000,0.00000,0.00000,17,12,64,18,41,-10,69,1,ok,0,0,0.003,11,-0.03,0.09,10.69,66,0.037,8.06
11.5739,0.04014,-0.02269,1.15192,0.00000,0.00000,0.00000,18,11,65,19,38,-9,70,2,ok,0,0,0.003,11,-0.03,0.09,10.69,66,0.051,8.06
11.5865,0.04014,-0.02269,1.15192,0.00000,0.00000,0.00000,20,10,65,20,35,-8,70,2,ok,0,0,0.003,11,-0.03,0.09,10.69,66,0.064,8.06
11.6068,0.04014,-0.02269,1.15192,0.00000,0.00000,0.00000,20,10,65,21,33,-6,71,3,ok,0,0,0.003,11,-0.03,0.09,10.69,66,0.076,8.06
11.6115,0.04014,-0.02269,1.15192,0.00000,0.00000,0.00000,22,8,65,22,31,-5,71,5,ok,0,0,0.003,11,-0.03,0.09,10.69,66,0.089,8.06
11.6242,0.04014,-0.02269,1.15192,0.00000,0.00000,0.00000,23,8,65,23,28,-2,72,5,ok,0,0,0.003,11,-0.03,0.09,10.69,66,0.101,8.06
11.6468,0.04014,-0.02269,1.15192,0.00000,0.00000,0.00000,25,7,65,23,27,0,72,7,ok,0,0,0.003,11,-0.03,0.09,10.69,66,0.114,8.06
11.6500,0.04014,-0.02269,1.15192,0.00000,0.00000,0.00000,26,6,65,24,26,4,72,8,ok,0,0,0.003,11,-0.03,0.09,10.69,66,0.127,8.06
11.6624,0.04014,-0.02269,1.15192,0.00000,0.00000,0.00000,27,6,65,25,26,6,73,9,ok,0,0,0.003,11,-0.03,0.09,10.69,66,0.139,8.06
11.6828,0.04014,-0.02269,1.15192,0.00000,0.00000,0.00000,28,6,64,28,27,6,73,10,ok,0,0,0.003,11,-0.03,0.09,10.69,66,0.152,8.06
11.6875,0.04014,-0.02269,1.15192,0.00000,0.00000,0.00000,30,4,63,29,28,5,73,11,ok,0,0,0.003,11,-0.03,0.09,10.69,66,0.164,8.06
11.7000,0.04014,-0.02269,1.15192,0.00000,0.00000,0.00000,31,4,65,28,29,3,73,13,ok,0,0,0.003,12,-0.03,0.09,10.69,66,0.177,8.06
11.7228,0.04014,-0.02269,1.15192,0.00000,0.00000,0.00000,32,3,67,25,30,3,73,15,ok,0,0,0.003,12,-0.03,0.09,10.69,66,0.189,8.06
11.7262,0.01571,0.02618,1.13097,0.00000,0.00000,0.00000,33,3,70,21,31,3,74,16,ok,0,0,0.003,12,-0.59,0.17,9.15,67,0.000,8.06
11.7385,0.01571,0.02618,1.13097,0.00000,0.00000,0.00000,35,2,71,17,32,2,73,18,ok,0,0,0.003,12,-0.59,0.17,9.15,67,0.013,8.06
11.7588,0.01571,0.02618,1.13097,0.00000,0.00000,0.00000,36,2,71,15,34,1,73,20,ok,0,0,0.003,12,-0.59,0.17,9.15,67,0.025,8.06
11.7636,0.01571,0.02618,1.13097,0.00000,0.00000,0.00000,38,1,71,15,36,1,74,20,ok,0,0,0.003,12,-0.59,0.17,9.15,67,0.038,8.06
11.7763,0.01571,0.02618,1.13097,0.00000,0.00000,0.00000,39,1,71,11,36,1,73,23,ok,0,0,0.003,12,-0.59,0.17,9.15,67,0.050,8.06
11.8028,0.01571,0.02618,1.13097,0.00000,0.00000,0.00000,41,1,70,8,38,2,72,24,ok,0,0,0.003,12,-0.59,0.17,9.15,67,0.063,8.06
11.8059,0.01571,0.02618,1.13097,0.00000,0.00000,0.00000,42,1,70,6,40,1,73,25,ok,0,0,0.003,12,-0.59,0.17,9.15,67,0.080,8.06
11.8187,0.01571,0.02618,1.13097,0.00000,0.00000,0.00000,43,0,69,3,41,2,73,26,ok,0,0,0.003,12,-0.59,0.17,9.15,67,0.093,8.06
11.8388,0.01571,0.02618,1.13097,0.00000,0.00000,0.00000,45,0,68,1,42,1,72,28,ok,0,0,0.003,12,-0.59,0.17,9.15,67,0.105,8.06
11.8435,0.01571,0.02618,1.13097,0.00000,0.00000,0.00000,46,0,67,0,43,1,72,29,ok,0,0,0.003,12,-0.59,0.17,9.15,67,0.118,8.06
11.8561,0.01571,0.02618,1.13097,0.00000,0.00000,0.00000,46,0,65,-2,44,0,73,29,ok,0,0,0.003,12,-0.59,0.17,9.15,67,0.130,8.06
11.8788,0.01571,0.02618,1.13097,0.00000,0.00000,0.00000,48,1,64,-4,46,0,74,29,ok,0,0,0.003,12,-0.59,0.17,9.15,67,0.143,8.06
11.8819,0.01571,0.02618,1.13097,0.00000,0.00000,0.00000,49,1,63,-6,47,0,76,26,ok,0,0,0.003,12,-0.59,0.17,9.15,67,0.156,8.06
11.8945,0.01571,0.02618,1.13097,0.00000,0.00000,0.00000,50,2,61,-7,48,0,78,21,ok,0,0,0.003,12,-0.59,0.17,9.15,67,0.169,8.06
11.9148,0.01571,0.02618,1.13097,0.00000,0.00000,0.00000,52,1,58,-8,49,0,79,17,ok,0,0,0.003,12,-0.59,0.17,9.15,67,0.181,8.06
11.9198,0.01571,0.02618,1.13097,0.00000,0.00000,0.00000,52,2,56,-8,50,1,81,14,ok,0,0,0.003,12,-0.59,0.17,9.15,67,0.194,8.06
11.9323,-0.08552,-0.03491,1.18159,0.00000,0.00000,0.00000,52,4,54,-9,51,1,81,14,ok,0,0,0.003,12,-1.04,-0.99,9.47,68,0.000,8.06
11.9548,-0.08552,-0.03491,1.18159,0.00000,0.00000,0.00000,53,5,51,-9,52,0,81,11,ok,0,0,0.003,12,-1.04,-0.99,9.47,68,0.013,8.06
11.9581,-0.08552,-0.03491,1.18159,0.00000,0.00000,0.00000,54,4,48,-9,53,0,81,8,ok,2,0,0.003,12,-1.04,-0.99,9.47,68,0.026,8.06
11.9705,-0.08552,-0.03491,1.18159,0.00000,0.00000,0.00000,55,5,46,-8,54,1,80,4,ok,2,0,0.003,12,-1.04,-0.99,9.47,68,0.038,8.06
11.9908,-0.08552,-0.03491,1.18159,0.00000,0.00000,0.00000,55,5,43,-8,55,1,80,3,ok,2,0,0.003,12,-1.04,-0.99,9.47,68,0.051,8.06
11.9955,-0.08552,-0.03491,1.18159,0.00000,0.00000,0.00000,57,6,41,-9,56,1,79,-1,ok,2,0,0.003,12,-1.04,-0.99,9.47,68,0.063,8.06
12.0081,-0.08552,-0.03491,1.18159,0.00000,0.00000,0.00000,57,6,38,-8,57,0,79,-3,ok,2,0,0.003,12,-1.04,-0.99,9.47,68,0.076,8.06
12.0308,-0.08552,-0.03491,1.18159,0.00000,0.00000,0.00000,59,7,35,-7,58,1,77,-4,ok,2,0,0.003,12,-1.04,-0.99,9.47,68,0.088,8.06
12.0339,-0.08552,-0.03491,1.18159,0.00000,0.00000,0.00000,59,8,33,-6,58,1,75,-6,ok,2,0,0.003,12,-1.04,-0.99,9.47,68,0.102,8.06
12.0464,-0.08552,-0.03491,1.18159,0.00000,0.00000,0.00000,60,8,29,-5,60,1,72,-7,ok,2,0,0.003,12,-1.04,-0.99,9.47,68,0.114,8.06
12.0668,-0.08552,-0.03491,1.18159,0.00000,0.00000,0.00000,60,9,26,-3,61,2,71,-9,ok,2,0,0.003,12,-1.04,-0.99,9.47,68,0.127,8.06
12.0715,-0.08552,-0.03491,1.18159,0.00000,0.00000,0.00000,62,10,21,-1,62,1,70,-11,ok,2,0,0.003,12,-1.04,-0.99,9.47,68,0.139,8.06
12.0840,-0.08552,-0.03491,1.18159,0.00000,0.00000,0.00000,62,10,20,0,64,-1,67,-12,ok,2,0,0.003,12,-1.04,-0.99,9.47,68,0.152,8.06
12.1068,-0.08552,-0.03491,1.18159,0.00000,0.00000,0.00000,63,11,18,1,64,-1,65,-13,ok,2,0,0.003,12,-1.04,-0.99,9.47,68,0.164,8.06
12.1102,-0.08552,-0.03491,1.18159,0.00000,0.00000,0.00000,64,12,16,4,65,0,63,-13,ok,2,0,0.003,12,-1.04,-0.99,9.47,68,0.178,8.06
12.1226,-0.08552,-0.03491,1.18159,0.00000,0.00000,0.00000,64,12,14,7,65,0,61,-14,ok,2,0,0.003,12,-1.04,-0.99,9.47,68,0.190,8.06
12.1428,-0.04014,-0.00698,1.20428,0.00000,0.00000,0.00000,64,13,12,10,66,0,59,-14,ok,2,0,0.003,12,-0.39,0.40,9.97,69,0.000,8.06
12.1477,-0.04014,-0.00698,1.20428,0.00000,0.00000,0.00000,65,14,11,13,67,1,56,-12,ok,2,0,0.003,12,-0.39,0.40,9.97,69,0.012,8.06
12.1601,-0.04014,-0.00698,1.20428,0.00000,0.00000,0.00000,65,15,12,13,67,1,53,-12,ok,2,0,0.003,12,-0.39,0.40,9.97,69,0.025,8.06
12.1828,-0.04014,-0.00698,1.20428,0.00000,0.00000,0.00000,65,16,12,13,68,1,51,-12,ok,2,0,0.003,12,-0.39,0.40,9.97,69,0.038,8.06
12.1859,-0.04014,-0.00698,1.20428,0.00000,0.00000,0.00000,66,17,14,12,68,1,47,-11,ok,2,0,0.003,12,-0.39,0.40,9.97,69,0.051,8.06
12.1985,-0.04014,-0.00698,1.20428,0.00000,0.00000,0.00000,66,18,15,11,69,2,45,-10,ok,2,0,0.003,12,-0.39,0.40,9.97,69,0.064,8.06
12.2188,-0.04014,-0.00698,1.20428,0.00000,0.00000,0.00000,67,18,15,10,69,3,42,-9,ok,2,0,0.003,12,-0.39,0.40,9.97,69,0.076,8.06
12.2235,-0.04014,-0.00698,1.20428,0.00000,0.00000,0.00000,68,19,17,9,69,4,40,-8,ok,2,0,0.003,12,-0.39,0.40,9.97,69,0.089,8.06
12.2363,-0.04014,-0.00698,1.20428,0.00000,0.00000,0.00000,68,20,17,9,70,5,36,-7,ok,2,0,0.003,12,-0.39,0.40,9.97,69,0.101,8.06
12.2588,-0.04014,-0.00698,1.20428,0.00000,0.00000,0.00000,68,21,19,8,71,5,35,-5,ok,2,0,0.003,12,-0.39,0.40,9.97,69,0.114,8.06
12.2620,-0.04014,-0.00698,1.20428,0.00000,0.00000,0.00000,68,22,20,7,70,6,32,-3,ok,2,0,0.003,12,-0.39,0.40,9.97,69,0.127,8.06
