# run_gait log  cmd_fwd=0.100 hz=80.0 fw_balance=off policy_yaw_sign=-1
t,roll,pitch,yaw,gx,gy,gz,j0,j1,j2,j3,j4,j5,j6,j7,guard_state,hottest_j,hottest_tier,hottest_frac,duty_s,ax,ay,az,imu_n,imu_age_s,volt
0.0309,-0.01222,0.01745,0.00000,0.00000,0.00000,0.00000,21,-1,59,7,66,-12,61,0,ok,4,0,0.000,0,0.17,-0.11,10.02,8,0.021,nan
0.0344,-0.01222,0.01745,0.00000,0.00000,0.00000,0.00000,19,0,61,8,64,-12,63,-1,ok,4,0,0.000,0,0.17,-0.11,10.02,8,0.043,nan
0.0473,-0.01222,0.01745,0.00000,0.00000,0.00000,0.00000,17,2,61,9,61,-13,64,0,ok,4,0,0.000,0,0.17,-0.11,10.02,8,0.055,8.32
0.0669,-0.01222,0.01745,0.00000,0.00000,0.00000,0.00000,15,6,62,9,59,-13,64,0,ok,4,0,0.000,0,0.17,-0.11,10.02,8,0.068,8.32
0.0718,-0.01222,0.01745,0.00000,0.00000,0.00000,0.00000,13,9,62,11,56,-13,65,1,ok,4,0,0.000,0,0.17,-0.11,10.02,8,0.080,8.32
0.0845,-0.01571,0.01920,0.00000,0.00000,0.00000,0.00000,11,11,63,11,53,-12,65,1,ok,4,0,0.000,0,0.22,-0.21,10.08,9,0.000,8.32
0.1069,-0.01571,0.01920,0.00000,0.00000,0.00000,0.00000,13,12,63,12,51,-12,66,2,ok,4,0,0.000,0,0.22,-0.21,10.08,9,0.013,8.32
0.1101,-0.01571,0.01920,0.00000,0.00000,0.00000,0.00000,13,11,63,13,48,-12,66,2,ok,4,0,0.000,0,0.22,-0.21,10.08,9,0.026,8.32
0.1227,-0.01571,0.01920,0.00000,0.00000,0.00000,0.00000,14,10,64,14,45,-12,66,3,ok,4,0,0.000,0,0.22,-0.21,10.08,9,0.038,8.32
0.1429,-0.01571,0.01920,0.00000,0.00000,0.00000,0.00000,15,9,64,15,42,-11,67,3,ok,4,0,0.000,0,0.22,-0.21,10.08,9,0.051,8.32
0.1477,-0.01571,0.01920,0.00000,0.00000,0.00000,0.00000,16,9,65,15,39,-10,68,4,ok,4,0,0.000,0,0.22,-0.21,10.08,9,0.063,8.32
0.1602,-0.01571,0.01920,0.00000,0.00000,0.00000,0.00000,18,8,65,16,36,-8,68,4,ok,4,0,0.000,0,0.22,-0.21,10.08,9,0.076,8.32
0.1828,-0.01571,0.01920,0.00000,0.00000,0.00000,0.00000,18,7,65,17,34,-7,69,5,ok,4,0,0.000,0,0.22,-0.21,10.08,9,0.088,8.32
0.1859,-0.01571,0.01920,0.00000,0.00000,0.00000,0.00000,21,6,66,18,32,-6,69,6,ok,4,0,0.000,0,0.22,-0.21,10.08,9,0.102,8.32
0.1986,-0.01571,0.01920,0.00000,0.00000,0.00000,0.00000,22,5,66,19,30,-2,70,7,ok,4,0,0.000,0,0.22,-0.21,10.08,9,0.114,8.32
0.2188,-0.01571,0.01920,0.00000,0.00000,0.00000,0.00000,23,5,66,21,29,0,70,8,ok,4,0,0.000,0,0.22,-0.21,10.08,9,0.127,8.32
0.2238,-0.01571,0.01920,0.00000,0.00000,0.00000,0.00000,24,4,66,22,27,4,70,9,ok,4,0,0.000,0,0.22,-0.21,10.08,9,0.139,8.32
0.2361,-0.01571,0.01920,0.00000,0.00000,0.00000,0.00000,26,4,65,23,27,6,71,9,ok,4,0,0.000,0,0.22,-0.21,10.08,9,0.152,8.32
0.2588,-0.01571,0.01920,0.00000,0.00000,0.00000,0.00000,27,4,65,26,29,6,71,10,ok,4,0,0.000,0,0.22,-0.21,10.08,9,0.164,8.32
0.2619,-0.01571,0.01920,0.00000,0.00000,0.00000,0.00000,28,3,64,28,29,6,72,11,ok,4,0,0.000,0,0.22,-0.21,10.08,9,0.178,8.32
0.2745,-0.01571,0.01920,0.00000,0.00000,0.00000,0.00000,29,3,66,26,30,4,72,12,ok,4,0,0.000,0,0.22,-0.21,10.08,9,0.190,8.32
0.2948,-0.09599,-0.10472,0.01920,0.00000,0.00000,0.00000,30,2,69,24,31,3,73,13,ok,4,0,0.000,0,-0.34,-1.23,9.68,10,0.000,8.32
0.2996,-0.09599,-0.10472,0.01920,0.00000,0.00000,0.00000,31,1,72,21,32,3,73,14,ok,4,0,0.000,0,-0.34,-1.23,9.68,10,0.012,8.32
0.3121,-0.09599,-0.10472,0.01920,0.00000,0.00000,0.00000,32,0,73,17,33,3,73,16,ok,4,0,0.000,0,-0.34,-1.23,9.68,10,0.025,8.32
0.3349,-0.09599,-0.10472,0.01920,0.00000,0.00000,0.00000,34,0,73,15,35,1,73,18,ok,4,0,0.000,0,-0.34,-1.23,9.68,10,0.037,8.32
0.3382,-0.09599,-0.10472,0.01920,0.00000,0.00000,0.00000,35,-1,73,15,37,1,74,19,ok,4,0,0.000,0,-0.34,-1.23,9.68,10,0.051,8.32
0.3507,-0.09599,-0.10472,0.01920,0.00000,0.00000,0.00000,36,-1,74,12,37,2,73,21,ok,4,0,0.000,0,-0.34,-1.23,9.68,10,0.064,8.32
0.3708,-0.09599,-0.10472,0.01920,0.00000,0.00000,0.00000,37,-1,73,9,39,2,72,22,ok,4,0,0.000,0,-0.34,-1.23,9.68,10,0.076,8.32
0.3756,-0.09599,-0.10472,0.01920,0.00000,0.00000,0.00000,38,-1,73,6,40,1,73,23,ok,4,0,0.000,0,-0.34,-1.23,9.68,10,0.089,8.32
0.3883,-0.09599,-0.10472,0.01920,0.00000,0.00000,0.00000,39,-2,72,4,41,1,72,25,ok,4,0,0.000,0,-0.34,-1.23,9.68,10,0.101,8.32
0.4108,-0.09599,-0.10472,0.01920,0.00000,0.00000,0.00000,40,-2,71,2,42,0,72,27,ok,4,0,0.000,0,-0.34,-1.23,9.68,10,0.114,8.32
0.4139,-0.09599,-0.10472,0.01920,0.00000,0.00000,0.00000,42,-2,70,0,43,0,71,28,ok,4,0,0.000,0,-0.34,-1.23,9.68,10,0.127,8.32
0.4266,-0.09599,-0.10472,0.01920,0.00000,0.00000,0.00000,42,-2,67,-2,44,-1,72,28,ok,4,0,0.000,0,-0.34,-1.23,9.68,10,0.139,8.32
0.4469,-0.09599,-0.10472,0.01920,0.00000,0.00000,0.00000,44,-1,66,-4,46,-2,73,28,ok,4,0,0.000,0,-0.34,-1.23,9.68,10,0.152,8.32
0.4517,-0.09599,-0.10472,0.01920,0.00000,0.00000,0.00000,45,-1,65,-6,47,-2,75,25,ok,4,0,0.000,0,-0.34,-1.23,9.68,10,0.164,8.32
0.4643,-0.09599,-0.10472,0.01920,0.00000,0.00000,0.00000,47,0,63,-7,48,-2,76,20,ok,4,0,0.000,0,-0.34,-1.23,9.68,10,0.177,8.32
0.4869,-0.09599,-0.10472,0.01920,0.00000,0.00000,0.00000,48,0,61,-8,49,-2,77,17,ok,4,0,0.000,0,-0.34,-1.23,9.68,10,0.189,8.32
0.4902,-0.08029,-0.01571,0.03840,0.00000,0.00000,0.00000,49,0,58,-9,50,-2,79,14,ok,4,0,0.000,0,0.09,0.33,11.00,11,0.000,8.32
0.5028,-0.08029,-0.01571,0.03840,0.00000,0.00000,0.00000,49,3,55,-10,52,-1,79,13,ok,4,0,0.000,0,0.09,0.33,11.00,11,0.013,8.32
0.5228,-0.08029,-0.01571,0.03840,0.00000,0.00000,0.00000,51,4,52,-10,54,0,79,10,ok,4,0,0.000,1,0.09,0.33,11.00,11,0.025,8.32
0.5276,-0.08029,-0.01571,0.03840,0.00000,0.00000,0.00000,51,4,49,-10,55,0,79,7,ok,4,0,0.000,1,0.09,0.33,11.00,11,0.038,8.32
0.5401,-0.08029,-0.01571,0.03840,0.00000,0.00000,0.00000,53,5,46,-10,56,0,78,4,ok,4,0,0.000,1,0.09,0.33,11.00,11,0.050,8.32
0.5628,-0.08029,-0.01571,0.03840,0.00000,0.00000,0.00000,53,6,43,-10,57,0,78,2,ok,4,0,0.000,1,0.09,0.33,11.00,11,0.063,8.32
0.5661,-0.08029,-0.01571,0.03840,0.00000,0.00000,0.00000,55,6,41,-10,58,1,77,-1,ok,4,0,0.000,1,0.09,0.33,11.00,11,0.076,8.32
0.5787,-0.08029,-0.01571,0.03840,0.00000,0.00000,0.00000,55,6,39,-9,59,0,77,-3,ok,4,0,0.000,1,0.09,0.33,11.00,11,0.089,8.32
0.5988,-0.08029,-0.01571,0.03840,0.00000,0.00000,0.00000,57,6,36,-8,59,1,76,-4,ok,4,0,0.000,1,0.09,0.33,11.00,11,0.101,8.32
0.6036,-0.08029,-0.01571,0.03840,0.00000,0.00000,0.00000,57,7,33,-7,60,1,74,-7,ok,4,0,0.000,1,0.09,0.33,11.00,11,0.114,8.32
0.6163,-0.08029,-0.01571,0.03840,0.00000,0.00000,0.00000,58,7,29,-6,60,1,71,-7,ok,2,0,0.000,1,0.09,0.33,11.00,11,0.126,8.32
0.6388,-0.08029,-0.01571,0.03840,0.00000,0.00000,0.00000,59,8,27,-4,61,1,70,-8,ok,2,0,0.000,1,0.09,0.33,11.00,11,0.139,8.32
0.6419,-0.08029,-0.01571,0.03840,0.00000,0.00000,0.00000,60,10,22,-2,62,0,69,-10,ok,2,0,0.000,1,0.09,0.33,11.00,11,0.152,8.32
0.6546,-0.08029,-0.01571,0.03840,0.00000,0.00000,0.00000,60,10,21,-1,64,-2,67,-11,ok,2,0,0.000,1,0.09,0.33,11.00,11,0.165,8.32
0.6748,-0.08029,-0.01571,0.03840,0.00000,0.00000,0.00000,61,10,19,0,65,-1,65,-13,ok,2,0,0.000,1,0.09,0.33,11.00,11,0.177,8.32
0.6796,-0.08029,-0.01571,0.03840,0.00000,0.00000,0.00000,61,11,17,3,66,0,63,-13,ok,2,0,0.000,1,0.09,0.33,11.00,11,0.190,8.32
0.6923,-0.08029,-0.01571,0.03840,0.00000,0.00000,0.00000,62,12,15,6,67,0,60,-14,ok,2,0,0.000,1,0.09,0.33,11.00,11,0.202,8.32
0.7148,0.00175,-0.00175,0.05760,0.00000,0.00000,0.00000,62,13,13,10,67,0,58,-14,ok,2,0,0.000,1,0.01,0.60,8.05,12,0.000,8.32
0.7179,0.00175,-0.00175,0.05760,0.00000,0.00000,0.00000,62,14,12,12,68,0,55,-13,ok,2,0,0.000,1,0.01,0.60,8.05,12,0.013,8.32
0.7306,0.00175,-0.00175,0.05760,0.00000,0.00000,0.00000,62,15,13,13,68,1,53,-13,ok,2,0,0.000,1,0.01,0.60,8.05,12,0.026,8.32
0.7508,0.00175,-0.00175,0.05760,0.00000,0.00000,0.00000,63,16,13,13,69,1,50,-12,ok,2,0,0.000,1,0.01,0.60,8.05,12,0.038,8.32
0.7558,0.00175,-0.00175,0.05760,0.00000,0.00000,0.00000,64,17,14,11,69,1,47,-11,ok,2,0,0.000,1,0.01,0.60,8.05,12,0.051,8.32
0.7681,0.00175,-0.00175,0.05760,0.00000,0.00000,0.00000,64,18,15,10,70,2,45,-11,ok,2,0,0.000,1,0.01,0.60,8.05,12,0.064,8.32
0.7908,0.00175,-0.00175,0.05760,0.00000,0.00000,0.00000,65,18,16,10,70,3,41,-9,ok,2,0,0.000,1,0.01,0.60,8.05,12,0.076,8.32
0.7941,0.00175,-0.00175,0.05760,0.00000,0.00000,0.00000,65,19,17,9,70,3,39,-9,ok,2,0,0.000,1,0.01,0.60,8.05,12,0.089,8.32
0.8066,0.00175,-0.00175,0.05760,0.00000,0.00000,0.00000,66,20,18,8,70,4,35,-7,ok,2,0,0.000,1,0.01,0.60,8.05,12,0.102,8.32
0.8268,0.00175,-0.00175,0.05760,0.00000,0.00000,0.00000,67,21,20,7,71,5,34,-5,ok,2,0,0.000,1,0.01,0.60,8.05,12,0.115,8.32
0.8317,0.00175,-0.00175,0.05760,0.00000,0.00000,0.00000,67,22,21,6,71,6,32,-4,ok,2,0,0.000,1,0.01,0.60,8.05,12,0.127,8.32
0.8441,0.00175,-0.00175,0.05760,0.00000,0.00000,0.00000,66,23,22,6,71,7,30,-1,ok,2,0,0.000,1,0.01,0.60,8.05,12,0.140,8.32
0.8668,0.00175,-0.00175,0.05760,0.00000,0.00000,0.00000,66,24,24,6,72,8,29,2,ok,2,0,0.000,1,0.01,0.60,8.05,12,0.152,8.32
0.8699,0.00175,-0.00175,0.05760,0.00000,0.00000,0.00000,66,25,25,5,72,9,27,5,ok,2,0,0.000,1,0.01,0.60,8.05,12,0.165,8.32
0.8828,0.00175,-0.00175,0.05760,0.00000,0.00000,0.00000,65,28,26,5,72,10,27,7,ok,2,0,0.000,1,0.01,0.60,8.05,12,0.178,8.32
0.9028,0.04189,-0.05411,0.08727,0.00000,0.00000,0.00000,64,29,27,3,72,12,29,6,ok,2,0,0.000,1,-0.58,0.67,11.43,13,0.000,8.32
0.9076,0.04189,-0.05411,0.08727,0.00000,0.00000,0.00000,66,28,29,3,72,13,29,5,ok,2,0,0.000,1,-0.58,0.67,11.43,13,0.012,8.32
0.9201,0.04189,-0.05411,0.08727,0.00000,0.00000,0.00000,68,25,30,3,72,14,30,3,ok,2,0,0.000,1,-0.58,0.67,11.43,13,0.025,8.32
0.9428,0.04189,-0.05411,0.08727,0.00000,0.00000,0.00000,70,21,31,2,71,15,32,3,ok,2,0,0.000,1,-0.58,0.67,11.43,13,0.038,8.32
0.9459,0.04189,-0.05411,0.08727,0.00000,0.00000,0.00000,71,17,33,2,71,17,33,2,ok,2,0,0.000,1,-0.58,0.67,11.43,13,0.051,8.32
0.9589,0.04189,-0.05411,0.08727,0.00000,0.00000,0.00000,71,15,34,2,72,18,34,2,ok,2,0,0.000,1,-0.58,0.67,11.43,13,0.064,8.32
0.9788,0.04189,-0.05411,0.08727,0.00000,0.00000,0.00000,71,14,36,1,71,20,36,1,ok,2,0,0.000,1,-0.58,0.67,11.43,13,0.076,8.32
0.9837,0.04189,-0.05411,0.08727,0.00000,0.00000,0.00000,71,11,37,1,71,21,38,1,ok,2,0,0.000,1,-0.58,0.67,11.43,13,0.089,8.32
0.9961,0.04189,-0.05411,0.08727,0.00000,0.00000,0.00000,70,7,38,2,71,23,39,1,ok,2,0,0.000,1,-0.58,0.67,11.43,13,0.101,8.32
1.0189,0.04189,-0.05411,0.08727,0.00000,0.00000,0.00000,69,5,39,2,71,25,40,1,ok,2,0,0.000,1,-0.58,0.67,11.43,13,0.114,8.32
1.0221,0.04189,-0.05411,0.08727,0.00000,0.00000,0.00000,68,1,41,1,71,27,42,1,ok,2,0,0.000,1,-0.58,0.67,11.43,13,0.127,8.32
1.0346,0.04189,-0.05411,0.08727,0.00000,0.00000,0.00000,67,-1,42,1,71,28,42,1,ok,2,0,0.000,1,-0.58,0.67,11.43,13,0.140,8.32
1.0548,0.04189,-0.05411,0.08727,0.00000,0.00000,0.00000,66,-3,44,2,71,28,44,0,ok,2,0,0.000,1,-0.58,0.67,11.43,13,0.152,8.32
1.0596,0.04189,-0.05411,0.08727,0.00000,0.00000,0.00000,64,-4,44,2,72,28,45,0,ok,2,0,0.000,1,-0.58,0.67,11.43,13,0.165,8.32
1.0721,0.04189,-0.05411,0.08727,0.00000,0.00000,0.00000,63,-6,46,2,74,25,46,-1,ok,2,0,0.000,1,-0.58,0.67,11.43,13,0.177,8.32
1.0949,0.04189,-0.05411,0.08727,0.00000,0.00000,0.00000,62,-8,47,2,76,21,47,-1,ok,2,0,0.000,1,-0.58,0.67,11.43,13,0.190,8.32
1.0983,0.05411,0.02269,0.12915,0.00000,0.00000,0.00000,60,-9,49,3,77,16,48,0,ok,2,0,0.000,1,0.41,1.08,9.43,14,0.000,8.32
1.1108,0.05411,0.02269,0.12915,0.00000,0.00000,0.00000,57,-10,50,3,79,14,49,0,ok,2,0,0.000,1,0.41,1.08,9.43,14,0.013,8.32
1.1308,0.05411,0.02269,0.12915,0.00000,0.00000,0.00000,55,-11,50,3,79,13,49,0,ok,2,0,0.000,1,0.41,1.08,9.43,14,0.025,8.32
1.1356,0.05411,0.02269,0.12915,0.00000,0.00000,0.00000,53,-12,50,5,79,11,51,0,ok,2,0,0.000,1,0.41,1.08,9.43,14,0.038,8.32
1.1481,0.05411,0.02269,0.12915,0.00000,0.00000,0.00000,50,-11,52,5,79,7,51,0,ok,2,0,0.000,1,0.41,1.08,9.43,14,0.050,8.32
1.1708,0.05411,0.02269,0.12915,0.00000,0.00000,0.00000,47,-11,52,5,78,4,53,0,ok,2,0,0.000,1,0.41,1.08,9.43,14,0.063,8.32
1.1739,0.05411,0.02269,0.12915,0.00000,0.00000,0.00000,45,-11,53,6,77,2,54,0,ok,2,0,0.000,1,0.41,1.08,9.43,14,0.076,8.32
1.1868,0.05411,0.02269,0.12915,0.00000,0.00000,0.00000,43,-11,54,7,77,-1,54,0,ok,2,0,0.000,1,0.41,1.08,9.43,14,0.089,8.32
1.2068,0.05411,0.02269,0.12915,0.00000,0.00000,0.00000,41,-11,56,7,76,-3,55,-1,ok,2,0,0.000,1,0.41,1.08,9.43,14,0.101,8.32
1.2116,0.05411,0.02269,0.12915,0.00000,0.00000,0.00000,38,-10,56,7,75,-5,56,0,ok,2,0,0.000,1,0.41,1.08,9.43,14,0.114,8.32
1.2241,0.05411,0.02269,0.12915,0.00000,0.00000,0.00000,35,-9,57,7,74,-8,57,-1,ok,2,0,0.000,1,0.41,1.08,9.43,14,0.126,8.32
1.2469,0.05411,0.02269,0.12915,0.00000,0.00000,0.00000,32,-8,57,8,71,-7,57,0,ok,2,0,0.000,1,0.41,1.08,9.43,14,0.139,8.32
1.2499,0.05411,0.02269,0.12915,0.00000,0.00000,0.00000,29,-6,58,8,70,-9,58,0,ok,2,0,0.000,1,0.41,1.08,9.43,14,0.152,8.32
1.2627,0.05411,0.02269,0.12915,0.00000,0.00000,0.00000,26,-4,59,9,69,-11,59,0,ok,2,0,0.000,1,0.41,1.08,9.43,14,0.165,8.32
1.2828,0.05411,0.02269,0.12915,0.00000,0.00000,0.00000,22,-2,60,11,66,-12,60,0,ok,2,0,0.000,1,0.41,1.08,9.43,14,0.177,8.32
1.2876,0.05411,0.02269,0.12915,0.00000,0.00000,0.00000,20,-1,61,11,64,-13,61,0,ok,2,0,0.000,1,0.41,1.08,9.43,14,0.190,8.32
1.3004,0.02618,-0.03840,0.12392,0.00000,0.00000,0.00000,18,0,62,11,62,-13,63,-3,ok,2,0,0.000,1,0.01,0.76,10.03,15,0.000,8.32
1.3228,0.02618,-0.03840,0.12392,0.00000,0.00000,0.00000,16,3,62,12,60,-14,63,-2,ok,2,0,0.000,1,0.01,0.76,10.03,15,0.013,8.32
1.3259,0.02618,-0.03840,0.12392,0.00000,0.00000,0.00000,14,6,63,13,58,-15,64,-2,ok,2,0,0.000,1,0.01,0.76,10.03,15,0.026,8.32
1.3387,0.02618,-0.03840,0.12392,0.00000,0.00000,0.00000,12,10,63,14,55,-14,65,-1,ok,2,0,0.000,1,0.01,0.76,10.03,15,0.038,8.32
1.3588,0.02618,-0.03840,0.12392,0.00000,0.00000,0.00000,11,12,64,15,52,-13,65,-1,ok,2,0,0.000,1,0.01,0.76,10.03,15,0.051,8.32
1.3636,0.02618,-0.03840,0.12392,0.00000,0.00000,0.00000,12,13,64,16,50,-13,66,0,ok,2,0,0.000,1,0.01,0.76,10.03,15,0.063,8.32
1.3761,0.02618,-0.03840,0.12392,0.00000,0.00000,0.00000,12,13,64,17,47,-12,67,-1,ok,2,0,0.000,1,0.01,0.76,10.03,15,0.076,8.32
1.3989,0.02618,-0.03840,0.12392,0.00000,0.00000,0.00000,14,12,65,17,44,-12,68,0,ok,2,0,0.000,1,0.01,0.76,10.03,15,0.089,8.32
1.4019,0.02618,-0.03840,0.12392,0.00000,0.00000,0.00000,15,12,65,18,41,-10,69,0,ok,2,0,0.000,1,0.01,0.76,10.03,15,0.102,8.32
1.4146,0.02618,-0.03840,0.12392,0.00000,0.00000,0.00000,16,11,66,19,38,-10,69,1,ok,4,0,0.000,1,0.01,0.76,10.03,15,0.115,8.32
1.4348,0.02618,-0.03840,0.12392,0.00000,0.00000,0.00000,18,10,66,19,35,-8,69,2,ok,4,0,0.000,1,0.01,0.76,10.03,15,0.127,8.32
1.4396,0.02618,-0.03840,0.12392,0.00000,0.00000,0.00000,18,10,66,20,33,-7,70,3,ok,4,0,0.000,1,0.01,0.76,10.03,15,0.139,8.32
1.4522,0.02618,-0.03840,0.12392,0.00000,0.00000,0.00000,20,8,66,21,31,-6,70,4,ok,4,0,0.000,1,0.01,0.76,10.03,15,0.152,8.32
1.4749,0.02618,-0.03840,0.12392,0.00000,0.00000,0.00000,21,8,66,22,29,-2,71,4,ok,4,0,0.000,1,0.01,0.76,10.03,15,0.165,8.32
1.4780,0.02618,-0.03840,0.12392,0.00000,0.00000,0.00000,23,7,66,23,28,0,71,6,ok,4,0,0.000,1,0.01,0.76,10.03,15,0.178,8.32
1.4907,0.02618,-0.03840,0.12392,0.00000,0.00000,0.00000,24,6,66,24,27,3,71,7,ok,4,0,0.000,1,0.01,0.76,10.03,15,0.191,8.32
1.5108,-0.04189,-0.02793,0.13439,0.00000,0.00000,0.00000,25,6,65,25,26,6,72,8,ok,4,0,0.000,1,0.19,-0.83,9.61,16,0.000,8.32
1.5158,-0.04189,-0.02793,0.13439,0.00000,0.00000,0.00000,26,5,64,28,28,5,72,9,ok,4,0,0.000,1,0.19,-0.83,9.61,16,0.012,8.32
1.5281,-0.04189,-0.02793,0.13439,0.00000,0.00000,0.00000,28,4,64,29,29,5,72,11,ok,4,0,0.000,1,0.19,-0.83,9.61,16,0.025,8.32
1.5508,-0.04189,-0.02793,0.13439,0.00000,0.00000,0.00000,29,4,65,28,30,3,72,12,ok,4,0,0.000,2,0.19,-0.83,9.61,16,0.037,8.32
1.5539,-0.04189,-0.02793,0.13439,0.00000,0.00000,0.00000,30,3,68,25,31,2,73,14,ok,4,0,0.000,2,0.19,-0.83,9.61,16,0.051,8.32
1.5666,-0.04189,-0.02793,0.13439,0.00000,0.00000,0.00000,31,2,70,21,32,2,73,15,ok,4,0,0.000,2,0.19,-0.83,9.61,16,0.063,8.32
1.5869,-0.04189,-0.02793,0.13439,0.00000,0.00000,0.00000,33,2,71,17,33,1,72,17,ok,4,0,0.000,2,0.19,-0.83,9.61,16,0.076,8.32
1.5917,-0.04189,-0.02793,0.13439,0.00000,0.00000,0.00000,34,2,72,15,34,0,72,19,ok,4,0,0.000,2,0.19,-0.83,9.61,16,0.088,8.32
1.6041,-0.04189,-0.02793,0.13439,0.00000,0.00000,0.00000,36,1,72,14,37,1,73,20,ok,4,0,0.000,2,0.19,-0.83,9.61,16,0.101,8.32
1.6269,-0.04189,-0.02793,0.13439,0.00000,0.00000,0.00000,37,1,72,11,37,1,72,22,ok,4,0,0.000,2,0.19,-0.83,9.61,16,0.113,8.32
1.6301,-0.04189,-0.02793,0.13439,0.00000,0.00000,0.00000,39,1,71,8,39,1,72,23,ok,4,0,0.000,2,0.19,-0.83,9.61,16,0.127,8.32
1.6426,-0.04189,-0.02793,0.13439,0.00000,0.00000,0.00000,40,1,71,5,40,0,72,24,ok,4,0,0.000,2,0.19,-0.83,9.61,16,0.139,8.32
1.6628,-0.04189,-0.02793,0.13439,0.00000,0.00000,0.00000,41,0,70,3,41,1,72,26,ok,4,0,0.000,2,0.19,-0.83,9.61,16,0.152,8.32
1.6676,-0.04189,-0.02793,0.13439,0.00000,0.00000,0.00000,43,0,69,1,42,0,72,27,ok,4,0,0.000,2,0.19,-0.83,9.61,16,0.164,8.32
1.6803,-0.04189,-0.02793,0.13439,0.00000,0.00000,0.00000,44,0,68,-1,44,0,71,29,ok,4,0,0.000,2,0.19,-0.83,9.61,16,0.177,8.32
1.7028,-0.04189,-0.02793,0.13439,0.00000,0.00000,0.00000,44,0,66,-2,45,-1,72,29,ok,4,0,0.000,2,0.19,-0.83,9.61,16,0.189,8.32
1.7061,-0.04712,-0.00698,0.16406,0.00000,0.00000,0.00000,46,0,65,-4,46,-1,73,28,ok,4,0,0.000,2,-0.87,-0.83,10.68,17,0.000,8.32
1.7186,-0.04712,-0.00698,0.16406,0.00000,0.00000,0.00000,47,1,64,-6,48,-1,75,26,ok,4,0,0.000,2,-0.87,-0.83,10.68,17,0.013,8.32
1.7388,-0.04712,-0.00698,0.16406,0.00000,0.00000,0.00000,49,2,61,-7,48,0,77,20,ok,4,0,0.000,2,-0.87,-0.83,10.68,17,0.025,8.32
1.7436,-0.04712,-0.00698,0.16406,0.00000,0.00000,0.00000,50,1,59,-8,49,0,78,17,ok,4,0,0.000,2,-0.87,-0.83,10.68,17,0.038,8.32
1.7561,-0.04712,-0.00698,0.16406,0.00000,0.00000,0.00000,50,2,57,-9,51,0,80,13,ok,4,0,0.001,2,-0.87,-0.83,10.68,17,0.050,8.32
1.7788,-0.04712,-0.00698,0.16406,0.00000,0.00000,0.00000,50,4,54,-10,52,0,80,13,ok,4,0,0.001,2,-0.87,-0.83,10.68,17,0.063,8.32
1.7819,-0.04712,-0.00698,0.16406,0.00000,0.00000,0.00000,51,5,51,-10,53,0,80,10,ok,4,0,0.001,2,-0.87,-0.83,10.68,17,0.076,8.32
1.7947,-0.04712,-0.00698,0.16406,0.00000,0.00000,0.00000,52,4,49,-10,54,0,80,7,ok,2,0,0.001,2,-0.87,-0.83,10.68,17,0.089,8.32
1.8148,-0.04712,-0.00698,0.16406,0.00000,0.00000,0.00000,53,5,46,-9,55,1,79,3,ok,2,0,0.001,2,-0.87,-0.83,10.68,17,0.101,8.32
1.8196,-0.04712,-0.00698,0.16406,0.00000,0.00000,0.00000,53,6,43,-9,56,0,79,2,ok,2,0,0.001,2,-0.87,-0.83,10.68,17,0.114,8.32
1.8321,-0.04712,-0.00698,0.16406,0.00000,0.00000,0.00000,55,6,41,-10,57,1,78,-2,ok,2,0,0.001,2,-0.87,-0.83,10.68,17,0.126,8.32
1.8548,-0.04712,-0.00698,0.16406,0.00000,0.00000,0.00000,55,6,39,-8,58,0,78,-4,ok,2,0,0.001,2,-0.87,-0.83,10.68,17,0.139,8.32
1.8580,-0.04712,-0.00698,0.16406,0.00000,0.00000,0.00000,57,7,36,-7,58,1,76,-5,ok,2,0,0.001,2,-0.87,-0.83,10.68,17,0.152,8.32
1.8706,-0.04712,-0.00698,0.16406,0.00000,0.00000,0.00000,57,8,33,-6,59,1,74,-7,ok,2,0,0.001,2,-0.87,-0.83,10.68,17,0.165,8.32
1.8908,-0.04712,-0.00698,0.16406,0.00000,0.00000,0.00000,58,8,29,-5,60,1,72,-7,ok,2,0,0.001,2,-0.87,-0.83,10.68,17,0.177,8.32
1.8956,-0.04712,-0.00698,0.16406,0.00000,0.00000,0.00000,59,9,26,-3,61,1,70,-9,ok,2,0,0.001,2,-0.87,-0.83,10.68,17,0.190,8.32
1.9083,-0.07854,-0.00349,0.21118,0.00000,0.00000,0.00000,60,10,22,-1,62,0,69,-11,ok,2,0,0.001,2,0.06,-0.70,9.77,18,0.000,8.32
1.9308,-0.07854,-0.00349,0.21118,0.00000,0.00000,0.00000,61,10,20,0,64,-2,67,-12,ok,2,0,0.001,2,0.06,-0.70,9.77,18,0.013,8.32
1.9339,-0.07854,-0.00349,0.21118,0.00000,0.00000,0.00000,62,11,18,1,65,-1,65,-13,ok,2,0,0.001,2,0.06,-0.70,9.77,18,0.026,8.32
1.9466,-0.07854,-0.00349,0.21118,0.00000,0.00000,0.00000,62,12,16,3,65,0,63,-14,ok,2,0,0.001,2,0.06,-0.70,9.77,18,0.039,8.32
1.9668,-0.07854,-0.00349,0.21118,0.00000,0.00000,0.00000,63,12,14,7,66,0,60,-14,ok,2,0,0.001,2,0.06,-0.70,9.77,18,0.051,8.32
1.9717,-0.07854,-0.00349,0.21118,0.00000,0.00000,0.00000,63,13,13,10,66,0,58,-15,ok,2,0,0.001,2,0.06,-0.70,9.77,18,0.064,8.32
1.9842,-0.07854,-0.00349,0.21118,0.00000,0.00000,0.00000,64,14,11,12,67,0,55,-13,ok,2,0,0.001,2,0.06,-0.70,9.77,18,0.076,8.32
2.0069,-0.07854,-0.00349,0.21118,0.00000,0.00000,0.00000,64,15,13,13,67,0,53,-13,ok,2,0,0.001,2,0.06,-0.70,9.77,18,0.089,8.32
2.0101,-0.07854,-0.00349,0.21118,0.00000,0.00000,0.00000,64,16,13,12,68,1,50,-12,ok,2,0,0.001,2,0.06,-0.70,9.77,18,0.102,8.32
2.0226,-0.07854,-0.00349,0.21118,0.00000,0.00000,0.00000,65,17,14,11,69,1,47,-11,ok,2,0,0.001,2,0.06,-0.70,9.77,18,0.115,8.32
2.0428,-0.07854,-0.00349,0.21118,0.00000,0.00000,0.00000,65,17,15,11,69,2,45,-11,ok,2,0,0.001,2,0.06,-0.70,9.77,18,0.127,8.32
2.0476,-0.07854,-0.00349,0.21118,0.00000,0.00000,0.00000,65,18,16,10,69,2,41,-9,ok,2,0,0.001,2,0.06,-0.70,9.77,18,0.140,8.32
2.0600,-0.07854,-0.00349,0.21118,0.00000,0.00000,0.00000,66,18,17,9,70,3,39,-9,ok,2,0,0.001,2,0.06,-0.70,9.77,18,0.152,8.32
2.0828,-0.07854,-0.00349,0.21118,0.00000,0.00000,0.00000,66,20,18,8,70,4,35,-7,ok,2,0,0.001,2,0.06,-0.70,9.77,18,0.165,8.32
2.0859,-0.07854,-0.00349,0.21118,0.00000,0.00000,0.00000,67,21,20,7,71,5,34,-6,ok,2,0,0.001,2,0.06,-0.70,9.77,18,0.178,8.32
2.0988,-0.07854,-0.00349,0.21118,0.00000,0.00000,0.00000,67,22,21,6,71,6,32,-4,ok,2,0,0.001,2,0.06,-0.70,9.77,18,0.191,8.32
2.1188,0.00873,0.00873,0.22166,0.00000,0.00000,0.00000,66,23,22,6,71,7,29,-1,ok,2,0,0.001,2,0.54,0.39,10.65,19,0.000,8.32
2.1238,0.00873,0.00873,0.22166,0.00000,0.00000,0.00000,66,24,23,6,71,8,28,1,ok,2,0,0.001,2,0.54,0.39,10.65,19,0.012,8.32
2.1361,0.00873,0.00873,0.22166,0.00000,0.00000,0.00000,65,25,25,5,72,9,27,5,ok,2,0,0.001,2,0.54,0.39,10.65,19,0.025,8.32
2.1588,0.00873,0.00873,0.22166,0.00000,0.00000,0.00000,65,28,26,5,72,10,27,7,ok,2,0,0.001,2,0.54,0.39,10.65,19,0.037,8.32
2.1619,0.00873,0.00873,0.22166,0.00000,0.00000,0.00000,64,29,27,3,71,12,29,6,ok,2,0,0.001,2,0.54,0.39,10.65,19,0.051,8.32
2.1746,0.00873,0.00873,0.22166,0.00000,0.00000,0.00000,65,28,28,3,72,13,29,5,ok,2,0,0.001,2,0.54,0.39,10.65,19,0.064,8.32
2.1948,0.00873,0.00873,0.22166,0.00000,0.00000,0.00000,68,25,30,3,72,14,30,3,ok,2,0,0.001,2,0.54,0.39,10.65,19,0.076,8.32
2.1996,0.00873,0.00873,0.22166,0.00000,0.00000,0.00000,70,21,31,2,72,15,31,3,ok,2,0,0.001,2,0.54,0.39,10.65,19,0.088,8.32
2.2122,0.00873,0.00873,0.22166,0.00000,0.00000,0.00000,71,17,33,2,71,17,33,3,ok,2,0,0.001,2,0.54,0.39,10.65,19,0.101,8.32
2.2348,0.00873,0.00873,0.22166,0.00000,0.00000,0.00000,71,15,34,2,72,18,34,2,ok,2,0,0.001,2,0.54,0.39,10.65,19,0.114,8.32
2.2380,0.00873,0.00873,0.22166,0.00000,0.00000,0.00000,71,14,35,1,71,20,36,1,ok,2,0,0.001,2,0.54,0.39,10.65,19,0.127,8.32
2.2506,0.00873,0.00873,0.22166,0.00000,0.00000,0.00000,71,11,36,1,71,22,38,1,ok,2,0,0.001,2,0.54,0.39,10.65,19,0.139,8.32
2.2708,0.00873,0.00873,0.22166,0.00000,0.00000,0.00000,70,7,38,2,71,24,39,2,ok,2,0,0.001,2,0.54,0.39,10.65,19,0.152,8.32
2.2756,0.00873,0.00873,0.22166,0.00000,0.00000,0.00000,69,5,39,2,71,25,40,1,ok,2,0,0.001,2,0.54,0.39,10.65,19,0.164,8.32
2.2881,0.00873,0.00873,0.22166,0.00000,0.00000,0.00000,69,1,41,1,71,27,42,1,ok,2,0,0.001,2,0.54,0.39,10.65,19,0.177,8.32
2.3109,0.00873,0.00873,0.22166,0.00000,0.00000,0.00000,67,-1,42,1,71,28,42,1,ok,2,0,0.001,2,0.54,0.39,10.65,19,0.189,8.32
2.3142,0.01571,-0.01047,0.30020,0.00000,0.00000,0.00000,66,-3,44,1,71,29,44,1,ok,2,0,0.001,2,-0.07,1.20,9.05,20,0.000,8.32
2.3266,0.01571,-0.01047,0.30020,0.00000,0.00000,0.00000,64,-4,44,2,72,28,45,0,ok,2,0,0.001,2,-0.07,1.20,9.05,20,0.013,8.32
2.3468,0.01571,-0.01047,0.30020,0.00000,0.00000,0.00000,63,-6,46,2,74,26,46,0,ok,2,0,0.001,2,-0.07,1.20,9.05,20,0.025,8.32
2.3516,0.01571,-0.01047,0.30020,0.00000,0.00000,0.00000,62,-8,47,2,76,21,47,0,ok,2,0,0.001,2,-0.07,1.20,9.05,20,0.038,8.32
2.3643,0.01571,-0.01047,0.30020,0.00000,0.00000,0.00000,60,-9,48,3,77,16,48,0,ok,2,0,0.001,2,-0.07,1.20,9.05,20,0.050,8.32
2.3868,0.01571,-0.01047,0.30020,0.00000,0.00000,0.00000,58,-10,49,3,79,14,49,0,ok,2,0,0.001,2,-0.07,1.20,9.05,20,0.063,8.32
2.3900,0.01571,-0.01047,0.30020,0.00000,0.00000,0.00000,55,-11,50,3,79,13,50,0,ok,2,0,0.001,2,-0.07,1.20,9.05,20,0.076,8.32
2.4026,0.01571,-0.01047,0.30020,0.00000,0.00000,0.00000,53,-12,50,5,79,11,51,0,ok,2,0,0.001,2,-0.07,1.20,9.05,20,0.089,8.32
2.4228,0.01571,-0.01047,0.30020,0.00000,0.00000,0.00000,50,-11,52,6,79,7,52,0,ok,2,0,0.001,2,-0.07,1.20,9.05,20,0.101,8.32
2.4276,0.01571,-0.01047,0.30020,0.00000,0.00000,0.00000,48,-11,53,5,78,4,53,0,ok,2,0,0.001,2,-0.07,1.20,9.05,20,0.114,8.32
2.4401,0.01571,-0.01047,0.30020,0.00000,0.00000,0.00000,46,-11,53,6,77,2,54,0,ok,2,0,0.001,2,-0.07,1.20,9.05,20,0.126,8.32
2.4629,0.01571,-0.01047,0.30020,0.00000,0.00000,0.00000,43,-11,54,7,77,-1,54,0,ok,2,0,0.001,2,-0.07,1.20,9.05,20,0.139,8.32
2.4660,0.01571,-0.01047,0.30020,0.00000,0.00000,0.00000,41,-11,56,7,76,-4,55,-1,ok,2,0,0.001,2,-0.07,1.20,9.05,20,0.152,8.32
2.4786,0.01571,-0.01047,0.30020,0.00000,0.00000,0.00000,38,-10,56,7,75,-5,56,0,ok,2,0,0.001,2,-0.07,1.20,9.05,20,0.165,8.32
2.4989,0.01571,-0.01047,0.30020,0.00000,0.00000,0.00000,35,-9,57,7,73,-8,57,-1,ok,2,0,0.001,2,-0.07,1.20,9.05,20,0.177,8.32
2.5038,0.01571,-0.01047,0.30020,0.00000,0.00000,0.00000,33,-8,58,8,71,-7,57,0,ok,2,0,0.001,2,-0.07,1.20,9.05,20,0.190,8.32
2.5164,0.07156,-0.06632,0.29671,0.00000,0.00000,0.00000,29,-6,58,8,70,-10,57,0,ok,2,0,0.001,2,0.21,0.49,10.37,21,0.000,8.32
2.5389,0.07156,-0.06632,0.29671,0.00000,0.00000,0.00000,26,-4,59,9,68,-11,59,0,ok,2,0,0.001,2,0.21,0.49,10.37,21,0.013,8.32
2.5420,0.07156,-0.06632,0.29671,0.00000,0.00000,0.00000,22,-2,60,11,66,-13,60,0,ok,2,0,0.001,3,0.21,0.49,10.37,21,0.026,8.32
2.5546,0.07156,-0.06632,0.29671,0.00000,0.00000,0.00000,20,-1,62,11,64,-13,61,-1,ok,2,0,0.001,3,0.21,0.49,10.37,21,0.038,8.32
2.5748,0.07156,-0.06632,0.29671,0.00000,0.00000,0.00000,18,1,62,11,62,-14,63,-3,ok,2,0,0.001,3,0.21,0.49,10.37,21,0.051,8.32
2.5797,0.07156,-0.06632,0.29671,0.00000,0.00000,0.00000,16,3,63,12,59,-14,63,-2,ok,2,0,0.001,3,0.21,0.49,10.37,21,0.063,8.32
2.5921,0.07156,-0.06632,0.29671,0.00000,0.00000,0.00000,14,7,63,13,57,-15,64,-2,ok,2,0,0.001,3,0.21,0.49,10.37,21,0.076,8.32
2.6149,0.07156,-0.06632,0.29671,0.00000,0.00000,0.00000,13,10,63,14,55,-14,65,-1,ok,2,0,0.001,3,0.21,0.49,10.37,21,0.089,8.32
2.6180,0.07156,-0.06632,0.29671,0.00000,0.00000,0.00000,11,13,64,15,52,-13,65,-1,ok,2,0,0.001,3,0.21,0.49,10.37,21,0.102,8.32
2.6307,0.07156,-0.06632,0.29671,0.00000,0.00000,0.00000,13,13,64,16,49,-13,66,0,ok,2,0,0.001,3,0.21,0.49,10.37,21,0.114,8.32
2.6508,0.07156,-0.06632,0.29671,0.00000,0.00000,0.00000,13,13,64,17,46,-12,67,-1,ok,2,0,0.001,3,0.21,0.49,10.37,21,0.127,8.32
2.6556,0.07156,-0.06632,0.29671,0.00000,0.00000,0.00000,14,12,65,17,44,-12,68,0,ok,2,0,0.001,3,0.21,0.49,10.37,21,0.139,8.32
2.6681,0.07156,-0.06632,0.29671,0.00000,0.00000,0.00000,15,12,65,18,41,-11,69,0,ok,2,0,0.001,3,0.21,0.49,10.37,21,0.152,8.32
2.6908,0.07156,-0.06632,0.29671,0.00000,0.00000,0.00000,16,11,66,19,38,-10,69,1,ok,2,0,0.001,3,0.21,0.49,10.37,21,0.164,8.32
2.6940,0.07156,-0.06632,0.29671,0.00000,0.00000,0.00000,18,10,66,19,35,-8,70,2,ok,2,0,0.001,3,0.21,0.49,10.37,21,0.178,8.32
2.7069,-0.03142,-0.00349,0.32289,0.00000,0.00000,0.00000,18,10,66,21,33,-7,70,2,ok,2,0,0.001,3,-0.68,-0.37,10.20,22,0.000,8.32
2.7268,-0.03142,-0.00349,0.32289,0.00000,0.00000,0.00000,21,9,66,21,31,-6,71,4,ok,0,0,0.001,3,-0.68,-0.37,10.20,22,0.013,8.32
2.7316,-0.03142,-0.00349,0.32289,0.00000,0.00000,0.00000,22,8,66,22,29,-2,71,5,ok,0,0,0.001,3,-0.68,-0.37,10.20,22,0.025,8.32
2.7441,-0.03142,-0.00349,0.32289,0.00000,0.00000,0.00000,23,7,65,23,28,0,71,6,ok,0,0,0.001,3,-0.68,-0.37,10.20,22,0.038,8.32
2.7668,-0.03142,-0.00349,0.32289,0.00000,0.00000,0.00000,25,6,65,24,27,3,71,8,ok,0,0,0.001,3,-0.68,-0.37,10.20,22,0.050,8.32
2.7699,-0.03142,-0.00349,0.32289,0.00000,0.00000,0.00000,26,6,65,25,26,6,72,8,ok,0,0,0.001,3,-0.68,-0.37,10.20,22,0.063,8.32
2.7826,-0.03142,-0.00349,0.32289,0.00000,0.00000,0.00000,27,5,64,28,28,5,72,9,ok,0,0,0.001,3,-0.68,-0.37,10.20,22,0.076,8.32
2.8028,-0.03142,-0.00349,0.32289,0.00000,0.00000,0.00000,28,4,64,29,28,5,72,11,ok,0,0,0.001,3,-0.68,-0.37,10.20,22,0.089,8.32
2.8076,-0.03142,-0.00349,0.32289,0.00000,0.00000,0.00000,29,4,65,28,30,3,72,12,ok,0,0,0.001,3,-0.68,-0.37,10.20,22,0.101,8.32
2.8201,-0.03142,-0.00349,0.32289,0.00000,0.00000,0.00000,30,3,68,25,31,2,73,14,ok,0,0,0.001,3,-0.68,-0.37,10.20,22,0.114,8.32
2.8428,-0.03142,-0.00349,0.32289,0.00000,0.00000,0.00000,31,2,70,21,32,2,73,15,ok,2,0,0.001,3,-0.68,-0.37,10.20,22,0.126,8.32
2.8461,-0.03142,-0.00349,0.32289,0.00000,0.00000,0.00000,33,2,71,17,33,2,72,17,ok,0,0,0.001,3,-0.68,-0.37,10.20,22,0.139,8.32
2.8586,-0.03142,-0.00349,0.32289,0.00000,0.00000,0.00000,34,2,72,15,34,1,72,19,ok,0,0,0.001,3,-0.68,-0.37,10.20,22,0.152,8.32
2.8788,-0.03142,-0.00349,0.32289,0.00000,0.00000,0.00000,36,1,71,14,37,1,73,20,ok,0,0,0.001,3,-0.68,-0.37,10.20,22,0.165,8.32
2.8836,-0.03142,-0.00349,0.32289,0.00000,0.00000,0.00000,37,1,71,11,37,1,72,22,ok,0,0,0.001,3,-0.68,-0.37,10.20,22,0.177,8.32
2.8961,-0.03142,-0.00349,0.32289,0.00000,0.00000,0.00000,39,1,71,8,39,1,72,23,ok,0,0,0.001,3,-0.68,-0.37,10.20,22,0.190,8.32
2.9188,-0.02793,0.01047,0.30892,0.00000,0.00000,0.00000,40,1,70,5,40,1,72,24,ok,0,0,0.001,3,0.96,0.50,11.02,23,0.000,8.32
2.9221,-0.02793,0.01047,0.30892,0.00000,0.00000,0.00000,42,0,70,3,41,1,72,26,ok,0,0,0.001,3,0.96,0.50,11.02,23,0.013,8.32
2.9346,-0.02793,0.01047,0.30892,0.00000,0.00000,0.00000,43,0,69,1,42,1,72,27,ok,0,0,0.001,3,0.96,0.50,11.02,23,0.026,8.32
2.9548,-0.02793,0.01047,0.30892,0.00000,0.00000,0.00000,45,0,68,-1,44,0,71,29,ok,0,0,0.001,3,0.96,0.50,11.02,23,0.039,8.32
2.9596,-0.02793,0.01047,0.30892,0.00000,0.00000,0.00000,45,0,65,-2,45,-1,73,29,ok,0,0,0.001,3,0.96,0.50,11.02,23,0.051,8.32
2.9721,-0.02793,0.01047,0.30892,0.00000,0.00000,0.00000,46,1,64,-4,46,0,74,28,ok,0,0,0.001,3,0.96,0.50,11.02,23,0.064,8.32
2.9948,-0.02793,0.01047,0.30892,0.00000,0.00000,0.00000,48,1,64,-6,48,0,75,26,ok,0,0,0.001,3,0.96,0.50,11.02,23,0.076,8.32
2.9979,-0.02793,0.01047,0.30892,0.00000,0.00000,0.00000,49,2,61,-7,48,0,77,20,ok,0,0,0.001,3,0.96,0.50,11.02,23,0.089,8.32
3.0107,-0.02793,0.01047,0.30892,0.00000,0.00000,0.00000,50,1,59,-8,49,0,79,17,ok,2,0,0.001,3,0.96,0.50,11.02,23,0.102,8.32
3.0308,-0.02793,0.01047,0.30892,0.00000,0.00000,0.00000,50,1,56,-9,51,0,80,14,ok,2,0,0.001,3,0.96,0.50,11.02,23,0.115,8.32
3.0356,-0.02793,0.01047,0.30892,0.00000,0.00000,0.00000,51,4,54,-10,52,0,80,13,ok,2,0,0.001,3,0.96,0.50,11.02,23,0.127,8.32
3.0481,-0.02793,0.01047,0.30892,0.00000,0.00000,0.00000,52,5,51,-9,53,0,80,10,ok,2,0,0.001,3,0.96,0.50,11.02,23,0.140,8.32
3.0708,-0.02793,0.01047,0.30892,0.00000,0.00000,0.00000,52,4,49,-10,54,0,80,7,ok,2,0,0.001,3,0.96,0.50,11.02,23,0.152,8.32
3.0739,-0.02793,0.01047,0.30892,0.00000,0.00000,0.00000,53,5,46,-9,55,1,80,4,ok,2,0,0.001,3,0.96,0.50,11.02,23,0.165,8.32
3.0866,-0.02793,0.01047,0.30892,0.00000,0.00000,0.00000,53,6,43,-9,56,1,79,2,ok,2,0,0.001,3,0.96,0.50,11.02,23,0.178,8.32
3.1068,-0.02793,0.01047,0.30892,0.00000,0.00000,0.00000,55,6,41,-10,57,1,78,-2,ok,2,0,0.001,3,0.96,0.50,11.02,23,0.191,8.32
3.1119,-0.08378,-0.04363,0.39270,0.00000,0.00000,0.00000,56,6,39,-9,58,0,78,-3,ok,2,0,0.001,3,0.23,-1.26,9.57,24,0.000,8.32
3.1241,-0.08378,-0.04363,0.39270,0.00000,0.00000,0.00000,57,7,36,-7,58,1,77,-5,ok,2,0,0.001,3,0.23,-1.26,9.57,24,0.013,8.32
3.1468,-0.08378,-0.04363,0.39270,0.00000,0.00000,0.00000,58,8,33,-6,59,1,75,-7,ok,2,0,0.001,3,0.23,-1.26,9.57,24,0.025,8.32
3.1499,-0.08378,-0.04363,0.39270,0.00000,0.00000,0.00000,59,8,29,-5,60,1,72,-7,ok,2,0,0.001,3,0.23,-1.26,9.57,24,0.038,8.32
3.1626,-0.08378,-0.04363,0.39270,0.00000,0.00000,0.00000,59,9,26,-3,61,1,71,-9,ok,2,0,0.001,3,0.23,-1.26,9.57,24,0.051,8.32
3.1828,-0.08378,-0.04363,0.39270,0.00000,0.00000,0.00000,61,10,22,-1,62,0,69,-11,ok,2,0,0.001,3,0.23,-1.26,9.57,24,0.064,8.32
3.1876,-0.08378,-0.04363,0.39270,0.00000,0.00000,0.00000,61,10,20,0,64,-2,67,-12,ok,2,0,0.001,3,0.23,-1.26,9.57,24,0.076,8.32
3.2003,-0.08378,-0.04363,0.39270,0.00000,0.00000,0.00000,62,11,18,1,64,-1,65,-13,ok,2,0,0.001,3,0.23,-1.26,9.57,24,0.089,8.32
3.2228,-0.08378,-0.04363,0.39270,0.00000,0.00000,0.00000,62,12,16,3,65,0,63,-14,ok,2,0,0.001,3,0.23,-1.26,9.57,24,0.101,8.32
3.2260,-0.08378,-0.04363,0.39270,0.00000,0.00000,0.00000,63,12,15,7,66,0,60,-14,ok,2,0,0.001,3,0.23,-1.26,9.57,24,0.114,8.32
3.2387,-0.08378,-0.04363,0.39270,0.00000,0.00000,0.00000,63,13,13,10,66,0,58,-15,ok,2,0,0.001,3,0.23,-1.26,9.57,24,0.127,8.32
3.2588,-0.08378,-0.04363,0.39270,0.00000,0.00000,0.00000,64,14,11,12,67,0,55,-13,ok,2,0,0.001,3,0.23,-1.26,9.57,24,0.140,8.32
3.2636,-0.08378,-0.04363,0.39270,0.00000,0.00000,0.00000,64,15,13,13,67,0,53,-13,ok,2,0,0.001,3,0.23,-1.26,9.57,24,0.152,8.32
3.2761,-0.08378,-0.04363,0.39270,0.00000,0.00000,0.00000,64,16,13,13,68,0,50,-12,ok,2,0,0.001,3,0.23,-1.26,9.57,24,0.165,8.32
3.2988,-0.08378,-0.04363,0.39270,0.00000,0.00000,0.00000,65,17,14,11,68,1,47,-11,ok,2,0,0.001,3,0.23,-1.26,9.57,24,0.177,8.32
3.3020,-0.08378,-0.04363,0.39270,0.00000,0.00000,0.00000,65,18,15,11,69,2,45,-11,ok,2,0,0.001,3,0.23,-1.26,9.57,24,0.190,8.32
3.3149,-0.02443,0.07330,0.39270,0.00000,0.00000,0.00000,66,18,16,10,69,2,41,-9,ok,2,0,0.001,3,1.10,-0.62,9.87,25,0.000,8.32
3.3348,-0.02443,0.07330,0.39270,0.00000,0.00000,0.00000,66,18,17,9,70,3,39,-9,ok,2,0,0.001,3,1.10,-0.62,9.87,25,0.013,8.32
3.3396,-0.02443,0.07330,0.39270,0.00000,0.00000,0.00000,66,20,18,8,70,5,35,-7,ok,2,0,0.001,3,1.10,-0.62,9.87,25,0.025,8.32
3.3521,-0.02443,0.07330,0.39270,0.00000,0.00000,0.00000,67,21,20,7,71,5,34,-6,ok,2,0,0.001,3,1.10,-0.62,9.87,25,0.038,8.32
3.3748,-0.02443,0.07330,0.39270,0.00000,0.00000,0.00000,67,22,21,6,71,6,32,-4,ok,2,0,0.001,3,1.10,-0.62,9.87,25,0.050,8.32
3.3781,-0.02443,0.07330,0.39270,0.00000,0.00000,0.00000,67,23,22,6,71,7,30,-1,ok,2,0,0.001,3,1.10,-0.62,9.87,25,0.063,8.32
3.3906,-0.02443,0.07330,0.39270,0.00000,0.00000,0.00000,67,24,23,6,71,8,28,2,ok,2,0,0.001,3,1.10,-0.62,9.87,25,0.076,8.32
3.4108,-0.02443,0.07330,0.39270,0.00000,0.00000,0.00000,66,25,24,5,72,9,27,5,ok,2,0,0.001,3,1.10,-0.62,9.87,25,0.089,8.32
3.4157,-0.02443,0.07330,0.39270,0.00000,0.00000,0.00000,65,28,26,5,72,10,27,7,ok,2,0,0.001,3,1.10,-0.62,9.87,25,0.101,8.32
3.4282,-0.02443,0.07330,0.39270,0.00000,0.00000,0.00000,64,29,27,3,71,12,29,6,ok,2,0,0.001,3,1.10,-0.62,9.87,25,0.114,8.32
3.4508,-0.02443,0.07330,0.39270,0.00000,0.00000,0.00000,66,28,28,3,71,13,29,6,ok,2,0,0.001,3,1.10,-0.62,9.87,25,0.126,8.32
3.4540,-0.02443,0.07330,0.39270,0.00000,0.00000,0.00000,68,25,29,3,72,15,30,4,ok,2,0,0.001,3,1.10,-0.62,9.87,25,0.139,8.32
3.4666,-0.02443,0.07330,0.39270,0.00000,0.00000,0.00000,70,21,31,2,72,16,32,3,ok,2,0,0.001,3,1.10,-0.62,9.87,25,0.152,8.32
3.4868,-0.02443,0.07330,0.39270,0.00000,0.00000,0.00000,71,17,32,2,71,18,33,3,ok,2,0,0.001,3,1.10,-0.62,9.87,25,0.165,8.32
3.4916,-0.02443,0.07330,0.39270,0.00000,0.00000,0.00000,72,15,34,2,72,19,34,2,ok,2,0,0.001,3,1.10,-0.62,9.87,25,0.177,8.32
3.5041,-0.02443,0.07330,0.39270,0.00000,0.00000,0.00000,71,14,35,1,71,21,36,1,ok,2,0,0.001,3,1.10,-0.62,9.87,25,0.190,8.32
3.5269,-0.04887,0.04014,0.51662,0.00000,0.00000,0.00000,71,11,36,1,71,22,38,1,ok,2,0,0.001,3,-0.87,0.06,12.06,26,0.000,8.32
3.5300,-0.04887,0.04014,0.51662,0.00000,0.00000,0.00000,71,7,38,2,71,24,39,2,ok,2,0,0.001,3,-0.87,0.06,12.06,26,0.013,8.32
3.5426,-0.04887,0.04014,0.51662,0.00000,0.00000,0.00000,70,5,39,2,72,25,40,1,ok,2,0,0.001,3,-0.87,0.06,12.06,26,0.026,8.32
3.5669,-0.04887,0.04014,0.51662,0.00000,0.00000,0.00000,69,1,40,1,71,27,42,2,ok,2,0,0.001,4,-0.87,0.06,12.06,26,0.039,8.32
3.5912,-0.04887,0.04014,0.51662,0.00000,0.00000,0.00000,68,-1,42,1,71,29,43,2,ok,2,0,0.001,4,-0.87,0.06,12.06,26,0.074,8.32
3.6032,-0.04887,0.04014,0.51662,0.00000,0.00000,0.00000,67,-3,43,1,71,29,44,1,ok,2,0,0.001,4,-0.87,0.06,12.06,26,0.087,8.32
3.6269,-0.04887,0.04014,0.51662,0.00000,0.00000,0.00000,64,-4,44,1,72,29,45,1,ok,2,0,0.001,4,-0.87,0.06,12.06,26,0.099,8.32
3.6299,-0.04887,0.04014,0.51662,0.00000,0.00000,0.00000,63,-6,45,2,74,26,46,0,ok,2,0,0.001,4,-0.87,0.06,12.06,26,0.113,8.32
3.6427,-0.04887,0.04014,0.51662,0.00000,0.00000,0.00000,63,-8,47,2,76,22,47,0,ok,2,0,0.001,4,-0.87,0.06,12.06,26,0.126,8.32
3.6628,-0.04887,0.04014,0.51662,0.00000,0.00000,0.00000,60,-9,48,3,77,17,49,0,ok,2,0,0.001,4,-0.87,0.06,12.06,26,0.139,8.32
3.6677,-0.04887,0.04014,0.51662,0.00000,0.00000,0.00000,58,-10,49,3,79,14,49,0,ok,2,0,0.001,4,-0.87,0.06,12.06,26,0.151,8.32
3.6801,-0.04887,0.04014,0.51662,0.00000,0.00000,0.00000,56,-11,50,3,79,14,50,0,ok,2,0,0.001,4,-0.87,0.06,12.06,26,0.164,8.32
3.7028,-0.04887,0.04014,0.51662,0.00000,0.00000,0.00000,53,-12,50,5,79,11,51,0,ok,2,0,0.001,4,-0.87,0.06,12.06,26,0.176,8.32
3.7060,-0.04887,0.04014,0.51662,0.00000,0.00000,0.00000,51,-12,52,6,79,8,52,0,ok,2,0,0.001,4,-0.87,0.06,12.06,26,0.189,8.32
3.7189,0.05236,-0.02967,0.51313,0.00000,0.00000,0.00000,48,-12,52,5,78,5,53,0,ok,2,0,0.001,4,-1.08,0.20,8.87,27,0.000,8.32
3.7388,0.05236,-0.02967,0.51313,0.00000,0.00000,0.00000,46,-11,53,6,77,2,54,0,ok,2,0,0.001,4,-1.08,0.20,8.87,27,0.013,8.32
3.7436,0.05236,-0.02967,0.51313,0.00000,0.00000,0.00000,43,-11,54,7,77,-1,54,0,ok,2,0,0.001,4,-1.08,0.20,8.87,27,0.025,8.32
3.7562,0.05236,-0.02967,0.51313,0.00000,0.00000,0.00000,41,-11,56,7,76,-3,55,-1,ok,2,0,0.001,4,-1.08,0.20,8.87,27,0.037,8.32
3.7788,0.05236,-0.02967,0.51313,0.00000,0.00000,0.00000,39,-10,56,7,75,-4,56,0,ok,2,0,0.001,4,-1.08,0.20,8.87,27,0.050,8.32
3.7819,0.05236,-0.02967,0.51313,0.00000,0.00000,0.00000,35,-9,57,7,73,-8,57,-1,ok,2,0,0.001,4,-1.08,0.20,8.87,27,0.063,8.32
3.7946,0.05236,-0.02967,0.51313,0.00000,0.00000,0.00000,33,-8,58,8,71,-7,57,0,ok,2,0,0.001,4,-1.08,0.20,8.87,27,0.076,8.32
3.8148,0.05236,-0.02967,0.51313,0.00000,0.00000,0.00000,29,-6,58,8,69,-10,58,0,ok,2,0,0.001,4,-1.08,0.20,8.87,27,0.089,8.32
3.8196,0.05236,-0.02967,0.51313,0.00000,0.00000,0.00000,27,-4,59,9,68,-11,59,0,ok,2,0,0.001,4,-1.08,0.20,8.87,27,0.101,8.32
3.8321,0.05236,-0.02967,0.51313,0.00000,0.00000,0.00000,23,-2,60,10,66,-12,60,0,ok,2,0,0.001,4,-1.08,0.20,8.87,27,0.114,8.32
3.8548,0.05236,-0.02967,0.51313,0.00000,0.00000,0.00000,21,-1,61,11,64,-13,61,0,ok,2,0,0.001,4,-1.08,0.20,8.87,27,0.126,8.32
3.8579,0.05236,-0.02967,0.51313,0.00000,0.00000,0.00000,19,1,62,11,62,-13,63,-3,ok,2,0,0.001,4,-1.08,0.20,8.87,27,0.139,8.32
3.8706,0.05236,-0.02967,0.51313,0.00000,0.00000,0.00000,17,3,62,12,59,-14,63,-1,ok,2,0,0.001,4,-1.08,0.20,8.87,27,0.152,8.32
3.8908,0.05236,-0.02967,0.51313,0.00000,0.00000,0.00000,15,7,63,13,57,-15,64,-2,ok,2,0,0.001,4,-1.08,0.20,8.87,27,0.164,8.32
3.8956,0.05236,-0.02967,0.51313,0.00000,0.00000,0.00000,13,10,63,14,54,-14,65,-1,ok,2,0,0.001,4,-1.08,0.20,8.87,27,0.177,8.32
3.9083,0.05236,-0.02967,0.51313,0.00000,0.00000,0.00000,11,13,64,15,52,-13,66,-1,ok,2,0,0.001,4,-1.08,0.20,8.87,27,0.189,8.32
3.9309,0.04014,-0.04363,0.54280,0.00000,0.00000,0.00000,13,13,64,16,49,-13,67,0,ok,2,0,0.001,4,-0.78,0.79,9.69,28,0.000,8.32
3.9340,0.04014,-0.04363,0.54280,0.00000,0.00000,0.00000,13,13,64,17,46,-12,67,-1,ok,2,0,0.001,4,-0.78,0.79,9.69,28,0.013,8.32
3.9467,0.04014,-0.04363,0.54280,0.00000,0.00000,0.00000,15,12,65,17,44,-12,68,0,ok,2,0,0.001,4,-0.78,0.79,9.69,28,0.026,8.32
3.9668,0.04014,-0.04363,0.54280,0.00000,0.00000,0.00000,16,11,65,18,41,-10,69,0,ok,2,0,0.001,4,-0.78,0.79,9.69,28,0.039,8.32
3.9716,0.04014,-0.04363,0.54280,0.00000,0.00000,0.00000,17,11,65,19,38,-10,69,2,ok,0,0,0.001,4,-0.78,0.79,9.69,28,0.051,8.32
3.9841,0.04014,-0.04363,0.54280,0.00000,0.00000,0.00000,18,10,66,20,35,-8,70,2,ok,0,0,0.001,4,-0.78,0.79,9.69,28,0.064,8.32
4.0068,0.04014,-0.04363,0.54280,0.00000,0.00000,0.00000,19,10,66,21,33,-7,71,3,ok,0,0,0.001,4,-0.78,0.79,9.69,28,0.076,8.32
4.0099,0.04014,-0.04363,0.54280,0.00000,0.00000,0.00000,21,8,66,21,31,-5,71,4,ok,0,0,0.001,4,-0.78,0.79,9.69,28,0.089,8.32
4.0226,0.04014,-0.04363,0.54280,0.00000,0.00000,0.00000,22,8,66,22,29,-2,72,5,ok,0,0,0.001,4,-0.78,0.79,9.69,28,0.102,8.32
4.0428,0.04014,-0.04363,0.54280,0.00000,0.00000,0.00000,24,7,65,23,28,0,72,6,ok,0,0,0.001,4,-0.78,0.79,9.69,28,0.115,8.32
4.0477,0.04014,-0.04363,0.54280,0.00000,0.00000,0.00000,25,6,65,24,26,4,72,7,ok,0,0,0.001,4,-0.78,0.79,9.69,28,0.127,8.32
4.0600,0.04014,-0.04363,0.54280,0.00000,0.00000,0.00000,26,6,65,25,26,6,72,8,ok,0,0,0.001,4,-0.78,0.79,9.69,28,0.140,8.32
4.0828,0.04014,-0.04363,0.54280,0.00000,0.00000,0.00000,27,5,64,28,28,5,72,9,ok,0,0,0.001,4,-0.78,0.79,9.69,28,0.152,8.32
4.0859,0.04014,-0.04363,0.54280,0.00000,0.00000,0.00000,29,4,64,29,28,5,73,11,ok,0,0,0.001,4,-0.78,0.79,9.69,28,0.165,8.32
4.0985,0.04014,-0.04363,0.54280,0.00000,0.00000,0.00000,30,4,65,28,29,3,73,12,ok,0,0,0.001,4,-0.78,0.79,9.69,28,0.178,8.32
4.1188,-0.03142,-0.02269,0.51662,0.00000,0.00000,0.00000,31,3,68,25,30,2,73,14,ok,0,0,0.001,4,0.17,0.03,11.19,29,0.000,8.32
4.1236,-0.03142,-0.02269,0.51662,0.00000,0.00000,0.00000,32,3,70,21,32,2,73,16,ok,0,0,0.001,4,0.17,0.03,11.19,29,0.012,8.32
4.1362,-0.03142,-0.02269,0.51662,0.00000,0.00000,0.00000,34,2,71,17,33,2,72,17,ok,0,0,0.001,4,0.17,0.03,11.19,29,0.025,8.32
4.1588,-0.03142,-0.02269,0.51662,0.00000,0.00000,0.00000,35,2,71,15,34,0,72,20,ok,0,0,0.001,4,0.17,0.03,11.19,29,0.038,8.32
4.1619,-0.03142,-0.02269,0.51662,0.00000,0.00000,0.00000,37,1,71,14,37,1,73,20,ok,0,0,0.001,4,0.17,0.03,11.19,29,0.051,8.32
4.1746,-0.03142,-0.02269,0.51662,0.00000,0.00000,0.00000,38,1,71,11,37,1,72,22,ok,0,0,0.001,4,0.17,0.03,11.19,29,0.064,8.32
4.1948,-0.03142,-0.02269,0.51662,0.00000,0.00000,0.00000,40,1,71,8,39,1,72,23,ok,0,0,0.001,4,0.17,0.03,11.19,29,0.076,8.32
4.1996,-0.03142,-0.02269,0.51662,0.00000,0.00000,0.00000,41,1,70,5,40,1,73,25,ok,0,0,0.001,4,0.17,0.03,11.19,29,0.089,8.32
4.2122,-0.03142,-0.02269,0.51662,0.00000,0.00000,0.00000,42,0,70,3,41,1,72,26,ok,0,0,0.001,4,0.17,0.03,11.19,29,0.101,8.32
4.2348,-0.03142,-0.02269,0.51662,0.00000,0.00000,0.00000,43,0,69,1,42,0,72,28,ok,0,0,0.001,4,0.17,0.03,11.19,29,0.114,8.32
4.2379,-0.03142,-0.02269,0.51662,0.00000,0.00000,0.00000,45,0,68,-1,44,1,72,29,ok,0,0,0.001,4,0.17,0.03,11.19,29,0.127,8.32
4.2505,-0.03142,-0.02269,0.51662,0.00000,0.00000,0.00000,45,0,65,-2,45,-1,73,29,ok,0,0,0.001,4,0.17,0.03,11.19,29,0.140,8.32
4.2708,-0.03142,-0.02269,0.51662,0.00000,0.00000,0.00000,47,1,64,-4,46,0,74,28,ok,0,0,0.001,4,0.17,0.03,11.19,29,0.152,8.32
4.2756,-0.03142,-0.02269,0.51662,0.00000,0.00000,0.00000,48,1,63,-6,47,0,76,26,ok,0,0,0.001,4,0.17,0.03,11.19,29,0.165,8.32
4.2883,-0.03142,-0.02269,0.51662,0.00000,0.00000,0.00000,49,2,61,-7,48,0,77,21,ok,0,0,0.001,4,0.17,0.03,11.19,29,0.177,8.32
4.3148,-0.03142,-0.02269,0.51662,0.00000,0.00000,0.00000,51,1,59,-8,49,0,79,17,ok,0,0,0.001,4,0.17,0.03,11.19,29,0.190,8.32
4.3181,-0.03142,-0.00000,0.56549,0.00000,0.00000,0.00000,51,2,56,-8,50,0,80,14,ok,2,0,0.001,4,0.27,-0.17,10.43,30,0.000,8.32
4.3306,-0.03142,-0.00000,0.56549,0.00000,0.00000,0.00000,51,4,54,-10,51,0,80,13,ok,2,0,0.001,4,0.27,-0.17,10.43,30,0.013,8.32
4.3508,-0.03142,-0.00000,0.56549,0.00000,0.00000,0.00000,52,5,51,-9,53,0,80,10,ok,2,0,0.001,4,0.27,-0.17,10.43,30,0.025,8.32
4.3558,-0.03142,-0.00000,0.56549,0.00000,0.00000,0.00000,53,4,48,-9,54,0,80,7,ok,2,0,0.001,4,0.27,-0.17,10.43,30,0.038,8.32
4.3680,-0.03142,-0.00000,0.56549,0.00000,0.00000,0.00000,54,5,46,-9,55,1,80,4,ok,2,0,0.001,4,0.27,-0.17,10.43,30,0.050,8.32
4.3908,-0.03142,-0.00000,0.56549,0.00000,0.00000,0.00000,54,6,43,-9,56,1,79,2,ok,2,0,0.001,4,0.27,-0.17,10.43,30,0.063,8.32
4.3939,-0.03142,-0.00000,0.56549,0.00000,0.00000,0.00000,56,6,41,-9,57,1,78,-2,ok,2,0,0.001,4,0.27,-0.17,10.43,30,0.076,8.32
4.4066,-0.03142,-0.00000,0.56549,0.00000,0.00000,0.00000,56,6,39,-8,58,0,78,-3,ok,2,0,0.001,4,0.27,-0.17,10.43,30,0.089,8.32
4.4268,-0.03142,-0.00000,0.56549,0.00000,0.00000,0.00000,58,7,35,-7,58,1,77,-5,ok,2,0,0.001,4,0.27,-0.17,10.43,30,0.101,8.32
4.4316,-0.03142,-0.00000,0.56549,0.00000,0.00000,0.00000,58,8,33,-6,59,1,75,-7,ok,2,0,0.001,4,0.27,-0.17,10.43,30,0.114,8.32
4.4440,-0.03142,-0.00000,0.56549,0.00000,0.00000,0.00000,59,8,29,-5,60,1,72,-7,ok,2,0,0.001,4,0.27,-0.17,10.43,30,0.126,8.32
4.4668,-0.03142,-0.00000,0.56549,0.00000,0.00000,0.00000,60,9,26,-3,61,1,71,-9,ok,2,0,0.001,4,0.27,-0.17,10.43,30,0.139,8.32
4.4699,-0.03142,-0.00000,0.56549,0.00000,0.00000,0.00000,61,10,22,-1,62,1,69,-11,ok,2,0,0.001,4,0.27,-0.17,10.43,30,0.152,8.32
4.4826,-0.03142,-0.00000,0.56549,0.00000,0.00000,0.00000,61,10,20,0,64,-1,67,-12,ok,2,0,0.001,4,0.27,-0.17,10.43,30,0.165,8.32
4.5028,-0.03142,-0.00000,0.56549,0.00000,0.00000,0.00000,62,11,18,1,64,-1,65,-13,ok,2,0,0.001,4,0.27,-0.17,10.43,30,0.177,8.32
4.5077,-0.03142,-0.00000,0.56549,0.00000,0.00000,0.00000,63,12,16,3,65,0,63,-13,ok,2,0,0.001,4,0.27,-0.17,10.43,30,0.190,8.32
4.5203,-0.07156,-0.02094,0.61087,0.00000,0.00000,0.00000,63,12,14,7,66,0,61,-14,ok,2,0,0.001,4,-0.91,0.29,9.77,31,0.000,8.32
4.5429,-0.07156,-0.02094,0.61087,0.00000,0.00000,0.00000,64,14,13,10,66,0,59,-14,ok,2,0,0.001,4,-0.91,0.29,9.77,31,0.013,8.32
4.5461,-0.07156,-0.02094,0.61087,0.00000,0.00000,0.00000,64,14,11,12,67,0,55,-13,ok,2,0,0.001,4,-0.91,0.29,9.77,31,0.026,8.32
4.5587,-0.07156,-0.02094,0.61087,0.00000,0.00000,0.00000,65,15,12,13,67,0,53,-12,ok,2,0,0.001,4,-0.91,0.29,9.77,31,0.039,8.32
4.5788,-0.07156,-0.02094,0.61087,0.00000,0.00000,0.00000,65,16,12,13,68,1,50,-12,ok,2,0,0.001,4,-0.91,0.29,9.77,31,0.051,8.32
4.5836,-0.07156,-0.02094,0.61087,0.00000,0.00000,0.00000,66,17,14,11,68,1,47,-11,ok,2,0,0.001,4,-0.91,0.29,9.77,31,0.064,8.32
4.5961,-0.07156,-0.02094,0.61087,0.00000,0.00000,0.00000,66,17,15,11,69,2,45,-10,ok,2,0,0.001,5,-0.91,0.29,9.77,31,0.076,8.32
4.6190,-0.07156,-0.02094,0.61087,0.00000,0.00000,0.00000,66,18,16,10,69,2,42,-9,ok,2,0,0.001,5,-0.91,0.29,9.77,31,0.089,8.32
4.6224,-0.07156,-0.02094,0.61087,0.00000,0.00000,0.00000,67,18,17,9,70,3,39,-9,ok,2,0,0.001,5,-0.91,0.29,9.77,31,0.102,8.32
4.6351,-0.07156,-0.02094,0.61087,0.00000,0.00000,0.00000,67,20,18,9,70,4,35,-7,ok,2,0,0.001,5,-0.91,0.29,9.77,31,0.115,8.32
4.6548,-0.07156,-0.02094,0.61087,0.00000,0.00000,0.00000,68,21,20,8,71,5,34,-5,ok,2,0,0.001,5,-0.91,0.29,9.77,31,0.127,8.32
4.6599,-0.07156,-0.02094,0.61087,0.00000,0.00000,0.00000,68,22,21,7,71,6,32,-4,ok,2,0,0.001,5,-0.91,0.29,9.77,31,0.140,8.32
4.6723,-0.07156,-0.02094,0.61087,0.00000,0.00000,0.00000,67,23,22,7,71,7,30,-1,ok,2,0,0.001,5,-0.91,0.29,9.77,31,0.152,8.32
4.6948,-0.07156,-0.02094,0.61087,0.00000,0.00000,0.00000,67,24,23,6,71,8,28,2,ok,2,0,0.001,5,-0.91,0.29,9.77,31,0.165,8.32
4.6979,-0.07156,-0.02094,0.61087,0.00000,0.00000,0.00000,66,25,25,5,71,9,27,5,ok,2,0,0.001,5,-0.91,0.29,9.77,31,0.178,8.32
4.7110,-0.07156,-0.02094,0.61087,0.00000,0.00000,0.00000,65,28,26,5,71,10,27,7,ok,2,0,0.001,5,-0.91,0.29,9.77,31,0.191,8.32
4.7308,-0.02443,0.05760,0.64577,0.00000,0.00000,0.00000,65,29,27,4,71,11,29,6,ok,2,0,0.001,5,1.05,-0.50,9.59,32,0.000,8.32
4.7356,-0.02443,0.05760,0.64577,0.00000,0.00000,0.00000,66,28,28,4,71,13,29,6,ok,2,0,0.001,5,1.05,-0.50,9.59,32,0.012,8.32
4.7481,-0.02443,0.05760,0.64577,0.00000,0.00000,0.00000,68,25,30,3,72,15,30,3,ok,2,0,0.001,5,1.05,-0.50,9.59,32,0.025,8.32
4.7708,-0.02443,0.05760,0.64577,0.00000,0.00000,0.00000,71,21,31,2,71,16,31,3,ok,2,0,0.001,5,1.05,-0.50,9.59,32,0.038,8.32
4.7739,-0.02443,0.05760,0.64577,0.00000,0.00000,0.00000,72,17,32,2,71,18,33,3,ok,2,0,0.001,5,1.05,-0.50,9.59,32,0.051,8.32
4.7866,-0.02443,0.05760,0.64577,0.00000,0.00000,0.00000,72,15,33,2,72,18,34,2,ok,2,0,0.001,5,1.05,-0.50,9.59,32,0.063,8.32
4.8068,-0.02443,0.05760,0.64577,0.00000,0.00000,0.00000,71,14,35,1,71,21,36,1,ok,2,0,0.001,5,1.05,-0.50,9.59,32,0.076,8.32
4.8116,-0.02443,0.05760,0.64577,0.00000,0.00000,0.00000,71,11,36,1,71,22,38,1,ok,2,0,0.001,5,1.05,-0.50,9.59,32,0.088,8.32
4.8240,-0.02443,0.05760,0.64577,0.00000,0.00000,0.00000,71,8,37,2,71,24,38,2,ok,2,0,0.001,5,1.05,-0.50,9.59,32,0.101,8.32
4.8468,-0.02443,0.05760,0.64577,0.00000,0.00000,0.00000,70,5,39,2,71,25,40,1,ok,2,0,0.001,5,1.05,-0.50,9.59,32,0.113,8.32
4.8499,-0.02443,0.05760,0.64577,0.00000,0.00000,0.00000,69,1,40,1,71,27,42,2,ok,2,0,0.001,5,1.05,-0.50,9.59,32,0.127,8.32
4.8628,-0.02443,0.05760,0.64577,0.00000,0.00000,0.00000,68,-1,41,1,71,29,43,2,ok,2,0,0.001,5,1.05,-0.50,9.59,32,0.139,8.32
4.8828,-0.02443,0.05760,0.64577,0.00000,0.00000,0.00000,67,-3,43,2,71,29,44,1,ok,2,0,0.001,5,1.05,-0.50,9.59,32,0.152,8.32
4.8876,-0.02443,0.05760,0.64577,0.00000,0.00000,0.00000,65,-4,43,2,72,29,45,1,ok,2,0,0.001,5,1.05,-0.50,9.59,32,0.164,8.32
4.9001,-0.02443,0.05760,0.64577,0.00000,0.00000,0.00000,64,-6,45,2,74,26,46,0,ok,2,0,0.001,5,1.05,-0.50,9.59,32,0.177,8.32
4.9229,-0.02443,0.05760,0.64577,0.00000,0.00000,0.00000,63,-8,46,2,76,22,47,0,ok,2,0,0.001,5,1.05,-0.50,9.59,32,0.190,8.32
4.9262,0.11519,0.03491,0.69115,0.00000,0.00000,0.00000,61,-9,48,3,77,17,49,1,ok,2,0,0.001,5,0.62,1.63,9.68,33,0.000,8.32
4.9388,0.11519,0.03491,0.69115,0.00000,0.00000,0.00000,58,-10,49,3,79,15,49,0,ok,2,0,0.001,5,0.62,1.63,9.68,33,0.013,8.32
4.9588,0.11519,0.03491,0.69115,0.00000,0.00000,0.00000,56,-11,50,3,79,14,50,0,ok,2,0,0.001,5,0.62,1.63,9.68,33,0.025,8.32
4.9636,0.11519,0.03491,0.69115,0.00000,0.00000,0.00000,54,-12,50,5,79,12,51,0,ok,2,0,0.001,5,0.62,1.63,9.68,33,0.038,8.32
4.9761,0.11519,0.03491,0.69115,0.00000,0.00000,0.00000,51,-11,52,5,79,8,52,0,ok,2,0,0.001,5,0.62,1.63,9.68,33,0.050,8.32
4.9988,0.11519,0.03491,0.69115,0.00000,0.00000,0.00000,48,-11,52,5,78,5,53,0,ok,2,0,0.001,5,0.62,1.63,9.68,33,0.063,8.32
5.0019,0.11519,0.03491,0.69115,0.00000,0.00000,0.00000,46,-11,53,6,77,3,54,0,ok,2,0,0.001,5,0.62,1.63,9.68,33,0.076,8.32
5.0228,0.11519,0.03491,0.69115,0.00000,0.00000,0.00000,43,-11,53,7,77,-1,54,1,ok,2,0,0.001,5,0.62,1.63,9.68,33,0.089,8.32
5.0349,0.11519,0.03491,0.69115,0.00000,0.00000,0.00000,42,-11,55,7,76,-3,55,0,ok,2,0,0.001,5,0.62,1.63,9.68,33,0.101,8.32
5.0396,0.11519,0.03491,0.69115,0.00000,0.00000,0.00000,39,-10,56,7,75,-4,56,1,ok,2,0,0.001,5,0.62,1.63,9.68,33,0.114,8.32
5.0521,0.11519,0.03491,0.69115,0.00000,0.00000,0.00000,36,-9,57,7,73,-7,57,-1,ok,2,0,0.001,5,0.62,1.63,9.68,33,0.126,8.32
5.0748,0.11519,0.03491,0.69115,0.00000,0.00000,0.00000,34,-8,57,8,70,-7,58,0,ok,2,0,0.001,5,0.62,1.63,9.68,33,0.139,8.32
5.0780,0.11519,0.03491,0.69115,0.00000,0.00000,0.00000,30,-6,58,8,69,-9,58,0,ok,2,0,0.001,5,0.62,1.63,9.68,33,0.152,8.32
5.0906,0.11519,0.03491,0.69115,0.00000,0.00000,0.00000,27,-4,59,9,68,-11,60,0,ok,2,0,0.001,5,0.62,1.63,9.68,33,0.165,8.32
5.1108,0.11519,0.03491,0.69115,0.00000,0.00000,0.00000,23,-2,60,11,66,-12,60,0,ok,2,0,0.001,5,0.62,1.63,9.68,33,0.177,8.32
5.1157,0.11519,0.03491,0.69115,0.00000,0.00000,0.00000,21,-1,61,11,64,-13,61,0,ok,2,0,0.001,5,0.62,1.63,9.68,33,0.190,8.32
5.1283,0.04712,-0.03142,0.69639,0.00000,0.00000,0.00000,20,1,62,11,62,-13,64,-2,ok,2,0,0.001,5,-0.29,0.69,10.01,34,0.000,8.32
5.1508,0.04712,-0.03142,0.69639,0.00000,0.00000,0.00000,18,3,62,12,59,-14,64,-1,ok,2,0,0.001,5,-0.29,0.69,10.01,34,0.012,8.32
5.1539,0.04712,-0.03142,0.69639,0.00000,0.00000,0.00000,15,7,62,13,57,-14,65,-1,ok,2,0,0.001,5,-0.29,0.69,10.01,34,0.026,8.32
5.1665,0.04712,-0.03142,0.69639,0.00000,0.00000,0.00000,14,10,62,14,55,-14,65,-1,ok,2,0,0.001,5,-0.29,0.69,10.01,34,0.039,8.32
5.1869,0.04712,-0.03142,0.69639,0.00000,0.00000,0.00000,12,12,63,15,52,-13,66,-1,ok,2,0,0.001,5,-0.29,0.69,10.01,34,0.051,8.32
5.1918,0.04712,-0.03142,0.69639,0.00000,0.00000,0.00000,13,13,64,16,49,-13,67,0,ok,2,0,0.001,5,-0.29,0.69,10.01,34,0.064,8.32
5.2041,0.04712,-0.03142,0.69639,0.00000,0.00000,0.00000,13,13,64,17,46,-12,67,0,ok,2,0,0.001,5,-0.29,0.69,10.01,34,0.076,8.32
5.2268,0.04712,-0.03142,0.69639,0.00000,0.00000,0.00000,15,12,65,17,44,-11,68,1,ok,2,0,0.001,5,-0.29,0.69,10.01,34,0.089,8.32
5.2300,0.04712,-0.03142,0.69639,0.00000,0.00000,0.00000,16,11,65,18,41,-10,69,1,ok,2,0,0.001,5,-0.29,0.69,10.01,34,0.102,8.32
5.2426,0.04712,-0.03142,0.69639,0.00000,0.00000,0.00000,17,11,65,19,38,-10,70,2,ok,0,0,0.001,5,-0.29,0.69,10.01,34,0.115,8.32
5.2669,0.04712,-0.03142,0.69639,0.00000,0.00000,0.00000,19,10,65,20,35,-8,70,2,ok,0,0,0.001,5,-0.29,0.69,10.01,34,0.127,8.32
5.2701,0.04712,-0.03142,0.69639,0.00000,0.00000,0.00000,19,10,65,21,33,-7,71,3,ok,0,0,0.001,5,-0.29,0.69,10.01,34,0.142,8.32
5.2827,0.04712,-0.03142,0.69639,0.00000,0.00000,0.00000,21,8,66,21,31,-5,71,5,ok,0,0,0.002,5,-0.29,0.69,10.01,34,0.155,8.32
5.3028,0.04712,-0.03142,0.69639,0.00000,0.00000,0.00000,23,8,66,23,29,-2,72,5,ok,0,0,0.002,5,-0.29,0.69,10.01,34,0.167,8.32
5.3076,0.04712,-0.03142,0.69639,0.00000,0.00000,0.00000,24,7,65,23,27,0,72,6,ok,0,0,0.002,5,-0.29,0.69,10.01,34,0.180,8.32
5.3205,-0.06807,-0.02094,0.69813,0.00000,0.00000,0.00000,25,6,65,24,26,4,72,7,ok,0,0,0.002,5,-0.06,-0.19,10.44,35,0.000,8.32
5.3428,-0.06807,-0.02094,0.69813,0.00000,0.00000,0.00000,26,6,65,25,26,6,72,9,ok,0,0,0.002,5,-0.06,-0.19,10.44,35,0.013,8.32
5.3460,-0.06807,-0.02094,0.69813,0.00000,0.00000,0.00000,28,5,64,28,28,5,72,10,ok,0,0,0.002,5,-0.06,-0.19,10.44,35,0.026,8.32
5.3585,-0.06807,-0.02094,0.69813,0.00000,0.00000,0.00000,29,4,63,29,28,5,72,12,ok,0,0,0.002,5,-0.06,-0.19,10.44,35,0.038,8.32
5.3788,-0.06807,-0.02094,0.69813,0.00000,0.00000,0.00000,30,4,65,28,29,3,72,13,ok,0,0,0.002,5,-0.06,-0.19,10.44,35,0.051,8.32
5.3836,-0.06807,-0.02094,0.69813,0.00000,0.00000,0.00000,31,3,67,25,30,2,73,15,ok,0,0,0.002,5,-0.06,-0.19,10.44,35,0.063,8.32
5.3963,-0.06807,-0.02094,0.69813,0.00000,0.00000,0.00000,32,2,70,21,31,2,73,16,ok,0,0,0.002,5,-0.06,-0.19,10.44,35,0.076,8.32
5.4188,-0.06807,-0.02094,0.69813,0.00000,0.00000,0.00000,34,2,71,18,33,2,73,18,ok,0,0,0.002,5,-0.06,-0.19,10.44,35,0.088,8.32
5.4219,-0.06807,-0.02094,0.69813,0.00000,0.00000,0.00000,35,2,71,15,34,1,73,20,ok,0,0,0.002,5,-0.06,-0.19,10.44,35,0.102,8.32
5.4345,-0.06807,-0.02094,0.69813,0.00000,0.00000,0.00000,37,1,71,15,37,1,73,20,ok,0,0,0.002,5,-0.06,-0.19,10.44,35,0.114,8.32
5.4548,-0.06807,-0.02094,0.69813,0.00000,0.00000,0.00000,38,1,71,11,37,1,72,22,ok,0,0,0.002,5,-0.06,-0.19,10.44,35,0.127,8.32
5.4596,-0.06807,-0.02094,0.69813,0.00000,0.00000,0.00000,40,1,71,8,39,1,72,23,ok,0,0,0.002,5,-0.06,-0.19,10.44,35,0.139,8.32
5.4723,-0.06807,-0.02094,0.69813,0.00000,0.00000,0.00000,41,1,70,5,40,1,72,25,ok,0,0,0.002,5,-0.06,-0.19,10.44,35,0.152,8.32
5.4948,-0.06807,-0.02094,0.69813,0.00000,0.00000,0.00000,42,0,70,3,41,1,72,26,ok,0,0,0.002,5,-0.06,-0.19,10.44,35,0.164,8.32
5.4980,-0.06807,-0.02094,0.69813,0.00000,0.00000,0.00000,44,0,68,1,42,0,72,28,ok,0,0,0.002,5,-0.06,-0.19,10.44,35,0.178,8.32
5.5105,-0.06807,-0.02094,0.69813,0.00000,0.00000,0.00000,45,0,67,-1,44,0,71,29,ok,0,0,0.002,5,-0.06,-0.19,10.44,35,0.190,8.32
5.5308,-0.08203,0.00349,0.70162,0.00000,0.00000,0.00000,45,0,65,-2,45,-1,73,29,ok,0,0,0.002,5,1.36,-0.72,10.79,36,0.000,8.32
5.5356,-0.08203,0.00349,0.70162,0.00000,0.00000,0.00000,47,1,64,-4,46,0,74,28,ok,0,0,0.002,5,1.36,-0.72,10.79,36,0.012,8.32
5.5483,-0.08203,0.00349,0.70162,0.00000,0.00000,0.00000,48,1,63,-6,47,0,75,26,ok,0,0,0.002,5,1.36,-0.72,10.79,36,0.025,8.32
5.5708,-0.08203,0.00349,0.70162,0.00000,0.00000,0.00000,50,2,61,-7,48,0,77,21,ok,0,0,0.002,5,1.36,-0.72,10.79,36,0.038,8.32
5.5739,-0.08203,0.00349,0.70162,0.00000,0.00000,0.00000,51,1,59,-8,49,0,78,17,ok,0,0,0.002,5,1.36,-0.72,10.79,36,0.051,8.32
5.5866,-0.08203,0.00349,0.70162,0.00000,0.00000,0.00000,51,2,56,-8,50,0,80,14,ok,2,0,0.002,5,1.36,-0.72,10.79,36,0.064,8.32
5.6068,-0.08203,0.00349,0.70162,0.00000,0.00000,0.00000,51,4,54,-9,52,0,80,13,ok,2,0,0.002,5,1.36,-0.72,10.79,36,0.076,8.32
5.6115,-0.08203,0.00349,0.70162,0.00000,0.00000,0.00000,52,5,51,-9,53,0,80,11,ok,2,0,0.002,6,1.36,-0.72,10.79,36,0.089,8.32
5.6243,-0.08203,0.00349,0.70162,0.00000,0.00000,0.00000,53,4,48,-9,54,0,80,7,ok,2,0,0.002,6,1.36,-0.72,10.79,36,0.101,8.32
5.6468,-0.08203,0.00349,0.70162,0.00000,0.00000,0.00000,54,5,46,-9,55,1,80,4,ok,2,0,0.002,6,1.36,-0.72,10.79,36,0.114,8.32
5.6500,-0.08203,0.00349,0.70162,0.00000,0.00000,0.00000,54,6,43,-9,56,1,79,2,ok,2,0,0.002,6,1.36,-0.72,10.79,36,0.127,8.32
5.6624,-0.08203,0.00349,0.70162,0.00000,0.00000,0.00000,56,6,41,-9,57,1,78,-2,ok,2,0,0.002,6,1.36,-0.72,10.79,36,0.140,8.32
5.6828,-0.08203,0.00349,0.70162,0.00000,0.00000,0.00000,56,6,39,-8,58,0,78,-3,ok,2,0,0.002,6,1.36,-0.72,10.79,36,0.152,8.32
5.6877,-0.08203,0.00349,0.70162,0.00000,0.00000,0.00000,58,7,35,-7,58,1,76,-5,ok,2,0,0.002,6,1.36,-0.72,10.79,36,0.165,8.32
5.7001,-0.08203,0.00349,0.70162,0.00000,0.00000,0.00000,58,8,33,-6,59,1,75,-7,ok,2,0,0.002,6,1.36,-0.72,10.79,36,0.177,8.32
5.7268,-0.08203,0.00349,0.70162,0.00000,0.00000,0.00000,59,8,29,-5,60,1,72,-7,ok,2,0,0.002,6,1.36,-0.72,10.79,36,0.190,8.32
5.7302,-0.11868,-0.02793,0.79238,0.00000,0.00000,0.00000,60,9,26,-3,61,1,71,-9,ok,2,0,0.002,6,-0.12,-1.69,10.36,37,0.000,8.32
5.7426,-0.11868,-0.02793,0.79238,0.00000,0.00000,0.00000,62,10,21,-1,62,0,69,-11,ok,2,0,0.002,6,-0.12,-1.69,10.36,37,0.013,8.32
5.7628,-0.11868,-0.02793,0.79238,0.00000,0.00000,0.00000,62,10,20,0,64,-2,67,-12,ok,2,0,0.002,6,-0.12,-1.69,10.36,37,0.025,8.32
5.7677,-0.11868,-0.02793,0.79238,0.00000,0.00000,0.00000,63,11,18,1,64,-1,65,-13,ok,2,0,0.002,6,-0.12,-1.69,10.36,37,0.038,8.32
5.7801,-0.11868,-0.02793,0.79238,0.00000,0.00000,0.00000,63,11,16,4,65,0,63,-13,ok,2,0,0.002,6,-0.12,-1.69,10.36,37,0.050,8.32
5.8028,-0.11868,-0.02793,0.79238,0.00000,0.00000,0.00000,64,12,14,7,66,0,60,-14,ok,2,0,0.002,6,-0.12,-1.69,10.36,37,0.063,8.32
5.8060,-0.11868,-0.02793,0.79238,0.00000,0.00000,0.00000,64,13,13,10,66,0,59,-14,ok,2,0,0.002,6,-0.12,-1.69,10.36,37,0.076,8.32
5.8187,-0.11868,-0.02793,0.79238,0.00000,0.00000,0.00000,64,14,11,13,67,0,55,-13,ok,2,0,0.002,6,-0.12,-1.69,10.36,37,0.089,8.32
5.8388,-0.11868,-0.02793,0.79238,0.00000,0.00000,0.00000,65,15,13,13,67,0,53,-12,ok,2,0,0.002,6,-0.12,-1.69,10.36,37,0.101,8.32
5.8436,-0.11868,-0.02793,0.79238,0.00000,0.00000,0.00000,65,16,12,13,68,1,50,-12,ok,2,0,0.002,6,-0.12,-1.69,10.36,37,0.114,8.32
5.8561,-0.11868,-0.02793,0.79238,0.00000,0.00000,0.00000,66,16,14,12,68,1,47,-11,ok,2,0,0.002,6,-0.12,-1.69,10.36,37,0.126,8.32
5.8788,-0.11868,-0.02793,0.79238,0.00000,0.00000,0.00000,66,17,15,11,69,2,45,-10,ok,2,0,0.002,6,-0.12,-1.69,10.36,37,0.139,8.32
5.8819,-0.11868,-0.02793,0.79238,0.00000,0.00000,0.00000,66,18,16,10,69,2,41,-9,ok,2,0,0.002,6,-0.12,-1.69,10.36,37,0.152,8.32
5.8945,-0.11868,-0.02793,0.79238,0.00000,0.00000,0.00000,67,18,17,9,70,3,39,-8,ok,2,0,0.002,6,-0.12,-1.69,10.36,37,0.165,8.32
5.9148,-0.11868,-0.02793,0.79238,0.00000,0.00000,0.00000,67,20,18,9,70,4,35,-7,ok,2,0,0.002,6,-0.12,-1.69,10.36,37,0.177,8.32
5.9195,-0.11868,-0.02793,0.79238,0.00000,0.00000,0.00000,68,21,20,8,71,4,34,-5,ok,2,0,0.002,6,-0.12,-1.69,10.36,37,0.190,8.32
5.9324,-0.11868,-0.02793,0.79238,0.00000,0.00000,0.00000,68,22,21,7,71,6,32,-4,ok,2,0,0.002,6,-0.12,-1.69,10.36,37,0.202,8.32
5.9548,-0.02269,0.04538,0.81681,0.00000,0.00000,0.00000,67,23,22,7,71,7,30,0,ok,2,0,0.002,6,0.06,-1.60,9.68,38,0.000,8.32
5.9580,-0.02269,0.04538,0.81681,0.00000,0.00000,0.00000,67,24,23,6,71,8,29,2,ok,2,0,0.002,6,0.06,-1.60,9.68,38,0.013,8.32
5.9705,-0.02269,0.04538,0.81681,0.00000,0.00000,0.00000,66,25,25,5,71,9,27,5,ok,2,0,0.002,6,0.06,-1.60,9.68,38,0.026,8.32
5.9908,-0.02269,0.04538,0.81681,0.00000,0.00000,0.00000,65,28,26,5,71,10,27,7,ok,2,0,0.002,6,0.06,-1.60,9.68,38,0.039,8.32
5.9956,-0.02269,0.04538,0.81681,0.00000,0.00000,0.00000,65,29,27,4,71,12,29,6,ok,2,0,0.002,6,0.06,-1.60,9.68,38,0.051,8.32
6.0082,-0.02269,0.04538,0.81681,0.00000,0.00000,0.00000,66,28,28,4,71,13,29,6,ok,2,0,0.002,6,0.06,-1.60,9.68,38,0.064,8.32
6.0308,-0.02269,0.04538,0.81681,0.00000,0.00000,0.00000,69,25,29,3,72,15,30,4,ok,2,0,0.002,6,0.06,-1.60,9.68,38,0.076,8.32
6.0340,-0.02269,0.04538,0.81681,0.00000,0.00000,0.00000,71,21,30,2,71,16,31,3,ok,2,0,0.002,6,0.06,-1.60,9.68,38,0.089,8.32
6.0465,-0.02269,0.04538,0.81681,0.00000,0.00000,0.00000,72,17,32,2,71,18,33,3,ok,2,0,0.002,6,0.06,-1.60,9.68,38,0.102,8.32
6.0668,-0.02269,0.04538,0.81681,0.00000,0.00000,0.00000,72,15,33,2,72,19,34,2,ok,2,0,0.002,6,0.06,-1.60,9.68,38,0.115,8.32
6.0715,-0.02269,0.04538,0.81681,0.00000,0.00000,0.00000,72,14,35,2,71,21,36,2,ok,2,0,0.002,6,0.06,-1.60,9.68,38,0.127,8.32
6.0841,-0.02269,0.04538,0.81681,0.00000,0.00000,0.00000,72,11,36,2,71,22,38,2,ok,2,0,0.002,6,0.06,-1.60,9.68,38,0.140,8.32
6.1068,-0.02269,0.04538,0.81681,0.00000,0.00000,0.00000,71,7,38,2,71,24,39,2,ok,2,0,0.002,6,0.06,-1.60,9.68,38,0.152,8.32
6.1100,-0.02269,0.04538,0.81681,0.00000,0.00000,0.00000,71,5,39,2,71,26,41,2,ok,2,0,0.002,6,0.06,-1.60,9.68,38,0.165,8.32
6.1225,-0.02269,0.04538,0.81681,0.00000,0.00000,0.00000,70,1,40,2,70,28,42,2,ok,2,0,0.002,6,0.06,-1.60,9.68,38,0.178,8.32
6.1428,-0.02269,0.04538,0.81681,0.00000,0.00000,0.00000,69,-1,41,1,70,29,43,2,ok,2,0,0.002,6,0.06,-1.60,9.68,38,0.191,8.32
6.1478,0.08552,0.02094,0.90234,0.00000,0.00000,0.00000,67,-3,43,2,71,29,44,1,ok,2,0,0.002,6,0.78,1.13,10.80,39,0.000,8.32
6.1601,0.08552,0.02094,0.90234,0.00000,0.00000,0.00000,65,-4,43,2,72,29,45,1,ok,2,0,0.002,6,0.78,1.13,10.80,39,0.013,8.32
6.1828,0.08552,0.02094,0.90234,0.00000,0.00000,0.00000,64,-6,45,2,74,27,46,0,ok,2,0,0.002,6,0.78,1.13,10.80,39,0.025,8.32
6.1860,0.08552,0.02094,0.90234,0.00000,0.00000,0.00000,63,-8,46,2,76,22,48,0,ok,2,0,0.002,6,0.78,1.13,10.80,39,0.038,8.32
6.1985,0.08552,0.02094,0.90234,0.00000,0.00000,0.00000,61,-9,48,3,77,17,49,0,ok,2,0,0.002,6,0.78,1.13,10.80,39,0.051,8.32
6.2188,0.08552,0.02094,0.90234,0.00000,0.00000,0.00000,59,-10,49,3,78,15,49,0,ok,2,0,0.002,6,0.78,1.13,10.80,39,0.064,8.32
6.2235,0.08552,0.02094,0.90234,0.00000,0.00000,0.00000,56,-10,50,3,79,14,50,0,ok,2,0,0.002,6,0.78,1.13,10.80,39,0.076,8.32
6.2361,0.08552,0.02094,0.90234,0.00000,0.00000,0.00000,54,-11,50,5,79,11,51,0,ok,2,0,0.002,6,0.78,1.13,10.80,39,0.089,8.32
6.2588,0.08552,0.02094,0.90234,0.00000,0.00000,0.00000,52,-11,51,6,78,8,52,0,ok,2,0,0.002,6,0.78,1.13,10.80,39,0.101,8.32
6.2619,0.08552,0.02094,0.90234,0.00000,0.00000,0.00000,49,-11,52,5,78,5,53,0,ok,2,0,0.002,6,0.78,1.13,10.80,39,0.114,8.32
6.2744,0.08552,0.02094,0.90234,0.00000,0.00000,0.00000,47,-11,53,6,77,3,54,0,ok,2,0,0.002,6,0.78,1.13,10.80,39,0.127,8.32
6.2948,0.08552,0.02094,0.90234,0.00000,0.00000,0.00000,44,-11,53,7,76,-1,55,1,ok,2,0,0.002,6,0.78,1.13,10.80,39,0.140,8.32
6.2997,0.08552,0.02094,0.90234,0.00000,0.00000,0.00000,42,-11,55,7,76,-3,55,0,ok,2,0,0.002,6,0.78,1.13,10.80,39,0.152,8.32
6.3121,0.08552,0.02094,0.90234,0.00000,0.00000,0.00000,40,-10,56,7,75,-4,57,1,ok,2,0,0.002,6,0.78,1.13,10.80,39,0.165,8.32
6.3348,0.08552,0.02094,0.90234,0.00000,0.00000,0.00000,37,-9,57,8,73,-7,57,-1,ok,2,0,0.002,6,0.78,1.13,10.80,39,0.177,8.32
6.3379,0.08552,0.02094,0.90234,0.00000,0.00000,0.00000,34,-8,57,8,70,-7,58,0,ok,2,0,0.002,6,0.78,1.13,10.80,39,0.190,8.32
6.3508,0.05934,-0.02967,0.92852,0.00000,0.00000,0.00000,30,-6,58,8,69,-9,58,0,ok,2,0,0.002,6,0.32,0.30,9.39,40,0.000,8.32
6.3709,0.05934,-0.02967,0.92852,0.00000,0.00000,0.00000,28,-4,58,9,68,-11,60,1,ok,2,0,0.002,6,0.32,0.30,9.39,40,0.013,8.32
6.3755,0.05934,-0.02967,0.92852,0.00000,0.00000,0.00000,24,-2,60,11,66,-12,60,0,ok,2,0,0.002,6,0.32,0.30,9.39,40,0.025,8.32
6.3881,0.05934,-0.02967,0.92852,0.00000,0.00000,0.00000,22,-1,61,11,64,-13,61,0,ok,2,0,0.002,6,0.32,0.30,9.39,40,0.038,8.32
6.4108,0.05934,-0.02967,0.92852,0.00000,0.00000,0.00000,20,1,62,12,62,-13,64,-2,ok,2,0,0.002,6,0.32,0.30,9.39,40,0.050,8.32
6.4140,0.05934,-0.02967,0.92852,0.00000,0.00000,0.00000,18,3,62,12,59,-14,64,-1,ok,2,0,0.002,6,0.32,0.30,9.39,40,0.063,8.32
6.4265,0.05934,-0.02967,0.92852,0.00000,0.00000,0.00000,16,7,62,13,57,-14,65,-1,ok,2,0,0.002,6,0.32,0.30,9.39,40,0.076,8.32
6.4468,0.05934,-0.02967,0.92852,0.00000,0.00000,0.00000,14,10,62,14,54,-14,65,-1,ok,2,0,0.002,6,0.32,0.30,9.39,40,0.089,8.32
6.4517,0.05934,-0.02967,0.92852,0.00000,0.00000,0.00000,12,12,63,15,52,-13,66,-1,ok,2,0,0.002,6,0.32,0.30,9.39,40,0.101,8.32
6.4642,0.05934,-0.02967,0.92852,0.00000,0.00000,0.00000,14,13,63,16,49,-13,67,0,ok,2,0,0.002,6,0.32,0.30,9.39,40,0.114,8.32
6.4868,0.05934,-0.02967,0.92852,0.00000,0.00000,0.00000,14,13,63,17,46,-12,67,0,ok,2,0,0.002,6,0.32,0.30,9.39,40,0.126,8.32
6.4899,0.05934,-0.02967,0.92852,0.00000,0.00000,0.00000,15,12,64,17,44,-11,68,1,ok,2,0,0.002,6,0.32,0.30,9.39,40,0.139,8.32
6.5026,0.05934,-0.02967,0.92852,0.00000,0.00000,0.00000,17,12,64,18,41,-10,69,1,ok,2,0,0.002,6,0.32,0.30,9.39,40,0.152,8.32
6.5228,0.05934,-0.02967,0.92852,0.00000,0.00000,0.00000,17,11,65,19,38,-10,70,2,ok,2,0,0.002,6,0.32,0.30,9.39,40,0.165,8.32
6.5275,0.05934,-0.02967,0.92852,0.00000,0.00000,0.00000,19,10,65,20,35,-8,70,2,ok,2,0,0.002,6,0.32,0.30,9.39,40,0.177,8.32
6.5402,0.05934,-0.02967,0.92852,0.00000,0.00000,0.00000,20,10,65,21,33,-6,71,3,ok,2,0,0.002,6,0.32,0.30,9.39,40,0.190,8.32
6.5628,-0.05934,0.02618,0.97040,0.00000,0.00000,0.00000,22,8,66,21,31,-5,71,5,ok,2,0,0.002,6,-0.81,-0.86,10.87,41,0.000,8.32
6.5661,-0.05934,0.02618,0.97040,0.00000,0.00000,0.00000,23,8,65,23,29,-2,72,5,ok,2,0,0.002,6,-0.81,-0.86,10.87,41,0.013,8.32
6.5785,-0.05934,0.02618,0.97040,0.00000,0.00000,0.00000,25,7,65,23,27,0,72,7,ok,0,0,0.002,6,-0.81,-0.86,10.87,41,0.026,8.32
6.5989,-0.05934,0.02618,0.97040,0.00000,0.00000,0.00000,26,6,65,24,26,4,72,8,ok,0,0,0.002,6,-0.81,-0.86,10.87,41,0.039,8.32
6.6036,-0.05934,0.02618,0.97040,0.00000,0.00000,0.00000,27,6,64,25,26,6,72,9,ok,0,0,0.002,6,-0.81,-0.86,10.87,41,0.051,8.32
6.6161,-0.05934,0.02618,0.97040,0.00000,0.00000,0.00000,28,5,64,28,28,6,73,10,ok,0,0,0.002,6,-0.81,-0.86,10.87,41,0.064,8.32
6.6388,-0.05934,0.02618,0.97040,0.00000,0.00000,0.00000,29,4,63,29,28,5,73,12,ok,0,0,0.002,7,-0.81,-0.86,10.87,41,0.076,8.32
6.6421,-0.05934,0.02618,0.97040,0.00000,0.00000,0.00000,31,4,65,28,29,3,73,13,ok,0,0,0.002,7,-0.81,-0.86,10.87,41,0.089,8.32
6.6549,-0.05934,0.02618,0.97040,0.00000,0.00000,0.00000,32,3,67,25,30,3,73,15,ok,2,0,0.002,7,-0.81,-0.86,10.87,41,0.102,8.32
6.6748,-0.05934,0.02618,0.97040,0.00000,0.00000,0.00000,33,3,70,21,32,3,73,16,ok,2,0,0.002,7,-0.81,-0.86,10.87,41,0.115,8.32
6.6796,-0.05934,0.02618,0.97040,0.00000,0.00000,0.00000,34,2,71,17,33,2,73,18,ok,2,0,0.002,7,-0.81,-0.86,10.87,41,0.127,8.32
6.6922,-0.05934,0.02618,0.97040,0.00000,0.00000,0.00000,35,2,71,15,34,1,73,20,ok,2,0,0.002,7,-0.81,-0.86,10.87,41,0.140,8.32
6.7148,-0.05934,0.02618,0.97040,0.00000,0.00000,0.00000,37,1,71,14,37,1,73,20,ok,2,0,0.002,7,-0.81,-0.86,10.87,41,0.152,8.32
6.7180,-0.05934,0.02618,0.97040,0.00000,0.00000,0.00000,38,1,71,11,37,1,72,23,ok,2,0,0.002,7,-0.81,-0.86,10.87,41,0.165,8.32
6.7305,-0.05934,0.02618,0.97040,0.00000,0.00000,0.00000,40,1,71,8,39,2,72,24,ok,2,0,0.002,7,-0.81,-0.86,10.87,41,0.178,8.32
6.7508,-0.05934,0.02618,0.97040,0.00000,0.00000,0.00000,41,1,70,5,40,1,73,25,ok,2,0,0.002,7,-0.81,-0.86,10.87,41,0.191,8.32
6.7558,-0.00698,-0.01047,0.93724,0.00000,0.00000,0.00000,43,0,69,3,41,2,72,26,ok,0,0,0.002,7,-1.47,0.05,9.56,42,0.000,8.32
6.7681,-0.00698,-0.01047,0.93724,0.00000,0.00000,0.00000,44,0,68,1,42,1,72,28,ok,0,0,0.002,7,-1.47,0.05,9.56,42,0.013,8.32
6.7908,-0.00698,-0.01047,0.93724,0.00000,0.00000,0.00000,46,0,67,-1,43,1,72,29,ok,0,0,0.002,7,-1.47,0.05,9.56,42,0.025,8.32
6.7941,-0.00698,-0.01047,0.93724,0.00000,0.00000,0.00000,46,0,65,-2,45,0,73,29,ok,0,0,0.002,7,-1.47,0.05,9.56,42,0.038,8.32
6.8065,-0.00698,-0.01047,0.93724,0.00000,0.00000,0.00000,47,1,64,-4,46,0,74,28,ok,0,0,0.002,7,-1.47,0.05,9.56,42,0.051,8.32
6.8268,-0.00698,-0.01047,0.93724,0.00000,0.00000,0.00000,49,1,63,-6,47,0,76,26,ok,0,0,0.002,7,-1.47,0.05,9.56,42,0.064,8.32
6.8315,-0.00698,-0.01047,0.93724,0.00000,0.00000,0.00000,50,2,61,-7,48,0,78,21,ok,2,0,0.002,7,-1.47,0.05,9.56,42,0.076,8.32
6.8441,-0.00698,-0.01047,0.93724,0.00000,0.00000,0.00000,51,1,59,-8,49,0,79,17,ok,2,0,0.002,7,-1.47,0.05,9.56,42,0.089,8.32
6.8668,-0.00698,-0.01047,0.93724,0.00000,0.00000,0.00000,52,2,56,-8,50,0,80,14,ok,2,0,0.002,7,-1.47,0.05,9.56,42,0.101,8.32
6.8702,-0.00698,-0.01047,0.93724,0.00000,0.00000,0.00000,52,4,54,-9,51,0,81,14,ok,2,0,0.002,7,-1.47,0.05,9.56,42,0.114,8.32
6.8825,-0.00698,-0.01047,0.93724,0.00000,0.00000,0.00000,53,5,51,-9,52,0,81,11,ok,2,0,0.002,7,-1.47,0.05,9.56,42,0.127,8.32
6.9028,-0.00698,-0.01047,0.93724,0.00000,0.00000,0.00000,54,4,48,-9,54,0,81,7,ok,2,0,0.002,7,-1.47,0.05,9.56,42,0.140,8.32
6.9075,-0.00698,-0.01047,0.93724,0.00000,0.00000,0.00000,54,5,46,-9,54,1,80,4,ok,2,0,0.002,7,-1.47,0.05,9.56,42,0.152,8.32
6.9202,-0.00698,-0.01047,0.93724,0.00000,0.00000,0.00000,55,6,43,-9,55,1,80,2,ok,2,0,0.002,7,-1.47,0.05,9.56,42,0.165,8.32
6.9428,-0.00698,-0.01047,0.93724,0.00000,0.00000,0.00000,57,6,41,-9,56,1,78,-2,ok,2,0,0.002,7,-1.47,0.05,9.56,42,0.177,8.32
6.9460,-0.00698,-0.01047,0.93724,0.00000,0.00000,0.00000,57,6,39,-8,57,1,78,-3,ok,2,0,0.002,7,-1.47,0.05,9.56,42,0.190,8.32
6.9588,-0.07679,-0.01396,1.00356,0.00000,0.00000,0.00000,58,7,35,-7,58,1,77,-5,ok,2,0,0.002,7,-0.58,-0.28,10.92,43,0.000,8.32
6.9788,-0.07679,-0.01396,1.00356,0.00000,0.00000,0.00000,59,8,32,-6,59,1,75,-7,ok,2,0,0.002,7,-0.58,-0.28,10.92,43,0.013,8.32
6.9835,-0.07679,-0.01396,1.00356,0.00000,0.00000,0.00000,60,8,29,-5,60,1,72,-7,ok,2,0,0.002,7,-0.58,-0.28,10.92,43,0.025,8.32
6.9961,-0.07679,-0.01396,1.00356,0.00000,0.00000,0.00000,60,9,26,-3,61,1,71,-8,ok,2,0,0.002,7,-0.58,-0.28,10.92,43,0.038,8.32
7.0188,-0.07679,-0.01396,1.00356,0.00000,0.00000,0.00000,62,10,21,-1,62,1,70,-10,ok,2,0,0.002,7,-0.58,-0.28,10.92,43,0.050,8.32
7.0220,-0.07679,-0.01396,1.00356,0.00000,0.00000,0.00000,62,10,20,0,64,-1,68,-12,ok,2,0,0.002,7,-0.58,-0.28,10.92,43,0.063,8.32
7.0347,-0.07679,-0.01396,1.00356,0.00000,0.00000,0.00000,63,11,18,1,64,-1,65,-13,ok,2,0,0.002,7,-0.58,-0.28,10.92,43,0.076,8.32
7.0548,-0.07679,-0.01396,1.00356,0.00000,0.00000,0.00000,63,12,16,4,65,0,63,-13,ok,2,0,0.002,7,-0.58,-0.28,10.92,43,0.089,8.32
7.0595,-0.07679,-0.01396,1.00356,0.00000,0.00000,0.00000,64,12,14,7,65,0,61,-14,ok,2,0,0.002,7,-0.58,-0.28,10.92,43,0.101,8.32
7.0721,-0.07679,-0.01396,1.00356,0.00000,0.00000,0.00000,64,13,12,10,66,0,59,-14,ok,2,0,0.002,7,-0.58,-0.28,10.92,43,0.114,8.32
7.0948,-0.07679,-0.01396,1.00356,0.00000,0.00000,0.00000,65,14,11,13,67,1,56,-13,ok,2,0,0.002,7,-0.58,-0.28,10.92,43,0.126,8.32
7.0979,-0.07679,-0.01396,1.00356,0.00000,0.00000,0.00000,65,15,12,13,67,1,53,-12,ok,2,0,0.002,7,-0.58,-0.28,10.92,43,0.139,8.32
7.1105,-0.07679,-0.01396,1.00356,0.00000,0.00000,0.00000,65,16,12,13,68,1,51,-12,ok,2,0,0.002,7,-0.58,-0.28,10.92,43,0.152,8.32
7.1308,-0.07679,-0.01396,1.00356,0.00000,0.00000,0.00000,66,16,14,12,68,1,47,-11,ok,2,0,0.002,7,-0.58,-0.28,10.92,43,0.165,8.32
7.1356,-0.07679,-0.01396,1.00356,0.00000,0.00000,0.00000,66,18,15,11,69,2,45,-10,ok,2,0,0.002,7,-0.58,-0.28,10.92,43,0.177,8.32
7.1484,-0.07679,-0.01396,1.00356,0.00000,0.00000,0.00000,67,18,15,10,69,3,42,-9,ok,2,0,0.002,7,-0.58,-0.28,10.92,43,0.189,8.32
7.1708,0.06109,0.03142,1.03149,0.00000,0.00000,0.00000,67,19,17,9,69,3,39,-8,ok,2,0,0.002,7,0.32,0.67,10.65,44,0.000,8.32
7.1740,0.06109,0.03142,1.03149,0.00000,0.00000,0.00000,67,20,18,9,70,5,36,-7,ok,2,0,0.002,7,0.32,0.67,10.65,44,0.013,8.32
7.1865,0.06109,0.03142,1.03149,0.00000,0.00000,0.00000,68,21,20,8,71,5,35,-5,ok,2,0,0.002,7,0.32,0.67,10.65,44,0.026,8.32
7.2068,0.06109,0.03142,1.03149,0.00000,0.00000,0.00000,68,22,21,7,70,7,32,-4,ok,2,0,0.002,7,0.32,0.67,10.65,44,0.039,8.32
7.2117,0.06109,0.03142,1.03149,0.00000,0.00000,0.00000,68,23,22,6,70,8,30,-1,ok,2,0,0.002,7,0.32,0.67,10.65,44,0.051,8.32
7.2241,0.06109,0.03142,1.03149,0.00000,0.00000,0.00000,68,24,23,6,71,9,29,2,ok,2,0,0.002,7,0.32,0.67,10.65,44,0.064,8.32
7.2468,0.06109,0.03142,1.03149,0.00000,0.00000,0.00000,67,25,24,5,71,9,28,5,ok,2,0,0.002,7,0.32,0.67,10.65,44,0.076,8.32
7.2500,0.06109,0.03142,1.03149,0.00000,0.00000,0.00000,66,28,25,5,71,11,27,7,ok,2,0,0.002,7,0.32,0.67,10.65,44,0.089,8.32
7.2627,0.06109,0.03142,1.03149,0.00000,0.00000,0.00000,66,29,27,4,71,12,29,6,ok,2,0,0.002,7,0.32,0.67,10.65,44,0.102,8.32
7.2828,0.06109,0.03142,1.03149,0.00000,0.00000,0.00000,67,28,28,4,71,13,29,6,ok,2,0,0.002,7,0.32,0.67,10.65,44,0.115,8.32
7.2875,0.06109,0.03142,1.03149,0.00000,0.00000,0.00000,69,25,29,3,71,15,31,4,ok,2,0,0.002,7,0.32,0.67,10.65,44,0.127,8.32
7.3001,0.06109,0.03142,1.03149,0.00000,0.00000,0.00000,72,21,30,2,71,16,32,3,ok,2,0,0.002,7,0.32,0.67,10.65,44,0.140,8.32
7.3228,0.06109,0.03142,1.03149,0.00000,0.00000,0.00000,73,17,32,2,71,18,34,3,ok,2,0,0.002,7,0.32,0.67,10.65,44,0.152,8.32
7.3261,0.06109,0.03142,1.03149,0.00000,0.00000,0.00000,73,15,33,2,71,19,35,2,ok,2,0,0.002,7,0.32,0.67,10.65,44,0.165,8.32
7.3385,0.06109,0.03142,1.03149,0.00000,0.00000,0.00000,72,14,35,2,70,21,37,1,ok,2,0,0.002,7,0.32,0.67,10.65,44,0.178,8.32
7.3588,0.02094,0.03142,1.11701,0.00000,0.00000,0.00000,72,11,36,2,70,23,39,1,ok,2,0,0.002,7,0.65,-0.71,10.48,45,0.000,8.32
7.3635,0.02094,0.03142,1.11701,0.00000,0.00000,0.00000,72,7,37,2,71,24,39,2,ok,2,0,0.002,7,0.65,-0.71,10.48,45,0.012,8.32
7.3763,0.02094,0.03142,1.11701,0.00000,0.00000,0.00000,71,5,39,2,71,26,41,2,ok,2,0,0.002,7,0.65,-0.71,10.48,45,0.025,8.32
7.3988,0.02094,0.03142,1.11701,0.00000,0.00000,0.00000,70,1,40,2,70,28,42,2,ok,2,0,0.002,7,0.65,-0.71,10.48,45,0.038,8.32
7.4019,0.02094,0.03142,1.11701,0.00000,0.00000,0.00000,69,-1,41,2,70,29,43,2,ok,2,0,0.002,7,0.65,-0.71,10.48,45,0.051,8.32
7.4144,0.02094,0.03142,1.11701,0.00000,0.00000,0.00000,68,-3,43,2,70,29,44,1,ok,2,0,0.002,7,0.65,-0.71,10.48,45,0.063,8.32
7.4348,0.02094,0.03142,1.11701,0.00000,0.00000,0.00000,66,-4,43,2,72,29,46,1,ok,2,0,0.002,7,0.65,-0.71,10.48,45,0.076,8.32
7.4397,0.02094,0.03142,1.11701,0.00000,0.00000,0.00000,65,-6,45,3,73,26,47,0,ok,2,0,0.002,7,0.65,-0.71,10.48,45,0.088,8.32
7.4521,0.02094,0.03142,1.11701,0.00000,0.00000,0.00000,64,-8,46,2,75,22,48,0,ok,2,0,0.002,7,0.65,-0.71,10.48,45,0.101,8.32
7.4748,0.02094,0.03142,1.11701,0.00000,0.00000,0.00000,62,-9,48,3,77,17,49,1,ok,2,0,0.002,7,0.65,-0.71,10.48,45,0.113,8.32
7.4780,0.02094,0.03142,1.11701,0.00000,0.00000,0.00000,59,-10,49,3,78,15,50,1,ok,2,0,0.002,7,0.65,-0.71,10.48,45,0.127,8.32
7.4905,0.02094,0.03142,1.11701,0.00000,0.00000,0.00000,57,-11,50,3,78,14,50,1,ok,2,0,0.002,7,0.65,-0.71,10.48,45,0.140,8.32
7.5108,0.02094,0.03142,1.11701,0.00000,0.00000,0.00000,55,-12,50,5,78,12,51,1,ok,2,0,0.002,7,0.65,-0.71,10.48,45,0.152,8.32
7.5156,0.02094,0.03142,1.11701,0.00000,0.00000,0.00000,52,-11,51,6,78,8,52,1,ok,2,0,0.002,7,0.65,-0.71,10.48,45,0.164,8.32
7.5281,0.02094,0.03142,1.11701,0.00000,0.00000,0.00000,49,-11,52,5,78,5,53,1,ok,2,0,0.002,7,0.65,-0.71,10.48,45,0.177,8.32
7.5508,0.02094,0.03142,1.11701,0.00000,0.00000,0.00000,47,-11,53,6,77,3,54,0,ok,2,0,0.002,7,0.65,-0.71,10.48,45,0.190,8.32
7.5541,0.02094,0.03142,1.11701,0.00000,0.00000,0.00000,44,-11,53,7,76,0,55,1,ok,2,0,0.002,7,0.65,-0.71,10.48,45,0.203,8.32
7.5668,0.09774,0.01745,1.09083,0.00000,0.00000,0.00000,42,-11,55,7,76,-3,55,0,ok,2,0,0.002,7,-1.67,1.47,9.30,46,0.000,8.32
7.5868,0.09774,0.01745,1.09083,0.00000,0.00000,0.00000,40,-10,55,7,75,-4,57,1,ok,2,0,0.002,7,-1.67,1.47,9.30,46,0.013,8.32
7.5915,0.09774,0.01745,1.09083,0.00000,0.00000,0.00000,37,-9,57,8,73,-7,57,-1,ok,2,0,0.002,7,-1.67,1.47,9.30,46,0.025,8.32
7.6043,0.09774,0.01745,1.09083,0.00000,0.00000,0.00000,34,-8,57,8,70,-7,58,0,ok,2,0,0.002,7,-1.67,1.47,9.30,46,0.038,8.32
7.6269,0.09774,0.01745,1.09083,0.00000,0.00000,0.00000,30,-6,58,9,69,-9,58,0,ok,2,0,0.002,7,-1.67,1.47,9.30,46,0.050,8.32
7.6301,0.09774,0.01745,1.09083,0.00000,0.00000,0.00000,28,-4,58,9,68,-10,60,1,ok,2,0,0.002,7,-1.67,1.47,9.30,46,0.063,8.32
7.6425,0.09774,0.01745,1.09083,0.00000,0.00000,0.00000,24,-2,60,11,66,-12,60,0,ok,2,0,0.002,8,-1.67,1.47,9.30,46,0.076,8.32
7.6629,0.09774,0.01745,1.09083,0.00000,0.00000,0.00000,22,-1,61,11,64,-12,61,0,ok,2,0,0.002,8,-1.67,1.47,9.30,46,0.089,8.32
7.6676,0.09774,0.01745,1.09083,0.00000,0.00000,0.00000,20,1,61,11,62,-13,64,-2,ok,2,0,0.002,8,-1.67,1.47,9.30,46,0.101,8.32
7.6801,0.09774,0.01745,1.09083,0.00000,0.00000,0.00000,18,3,62,12,59,-14,64,-1,ok,2,0,0.002,8,-1.67,1.47,9.30,46,0.114,8.32
7.7028,0.09774,0.01745,1.09083,0.00000,0.00000,0.00000,16,7,62,13,57,-14,65,-1,ok,2,0,0.002,8,-1.67,1.47,9.30,46,0.126,8.32
7.7060,0.09774,0.01745,1.09083,0.00000,0.00000,0.00000,14,10,62,14,54,-13,66,0,ok,2,0,0.002,8,-1.67,1.47,9.30,46,0.139,8.32
7.7185,0.09774,0.01745,1.09083,0.00000,0.00000,0.00000,12,13,63,15,51,-12,66,-1,ok,2,0,0.002,8,-1.67,1.47,9.30,46,0.152,8.32
7.7388,0.09774,0.01745,1.09083,0.00000,0.00000,0.00000,14,13,63,16,49,-12,67,0,ok,2,0,0.002,8,-1.67,1.47,9.30,46,0.165,8.32
7.7436,0.09774,0.01745,1.09083,0.00000,0.00000,0.00000,14,13,63,17,46,-11,68,0,ok,2,0,0.002,8,-1.67,1.47,9.30,46,0.177,8.32
7.7565,0.09774,0.01745,1.09083,0.00000,0.00000,0.00000,16,12,64,17,44,-11,69,1,ok,2,0,0.002,8,-1.67,1.47,9.30,46,0.190,8.32
7.7788,0.03142,-0.04538,1.12923,0.00000,0.00000,0.00000,17,12,64,18,41,-9,69,1,ok,2,0,0.002,8,-0.64,0.62,9.66,47,0.000,8.32
7.7819,0.03142,-0.04538,1.12923,0.00000,0.00000,0.00000,18,11,65,19,38,-9,70,2,ok,2,0,0.002,8,-0.64,0.62,9.66,47,0.013,8.32
7.7945,0.03142,-0.04538,1.12923,0.00000,0.00000,0.00000,20,10,65,20,35,-8,70,3,ok,2,0,0.002,8,-0.64,0.62,9.66,47,0.026,8.32
7.8148,0.03142,-0.04538,1.12923,0.00000,0.00000,0.00000,20,10,65,21,33,-6,71,3,ok,2,0,0.002,8,-0.64,0.62,9.66,47,0.039,8.32
7.8195,0.03142,-0.04538,1.12923,0.00000,0.00000,0.00000,22,8,65,22,31,-5,71,5,ok,2,0,0.002,8,-0.64,0.62,9.66,47,0.051,8.32
7.8321,0.03142,-0.04538,1.12923,0.00000,0.00000,0.00000,23,7,66,23,28,-2,72,5,ok,2,0,0.002,8,-0.64,0.62,9.66,47,0.064,8.32
7.8548,0.03142,-0.04538,1.12923,0.00000,0.00000,0.00000,25,7,65,23,27,1,72,7,ok,2,0,0.002,8,-0.64,0.62,9.66,47,0.076,8.32
7.8579,0.03142,-0.04538,1.12923,0.00000,0.00000,0.00000,26,6,65,25,26,4,72,8,ok,2,0,0.002,8,-0.64,0.62,9.66,47,0.089,8.32
7.8705,0.03142,-0.04538,1.12923,0.00000,0.00000,0.00000,27,6,65,25,25,6,73,9,ok,2,0,0.002,8,-0.64,0.62,9.66,47,0.102,8.32
7.8908,0.03142,-0.04538,1.12923,0.00000,0.00000,0.00000,28,5,64,28,27,6,73,10,ok,2,0,0.002,8,-0.64,0.62,9.66,47,0.115,8.32
7.8955,0.03142,-0.04538,1.12923,0.00000,0.00000,0.00000,29,4,64,29,28,6,73,11,ok,2,0,0.002,8,-0.64,0.62,9.66,47,0.127,8.32
7.9081,0.03142,-0.04538,1.12923,0.00000,0.00000,0.00000,31,4,65,28,29,3,73,13,ok,2,0,0.002,8,-0.64,0.62,9.66,47,0.140,8.32
7.9308,0.03142,-0.04538,1.12923,0.00000,0.00000,0.00000,32,3,67,25,30,3,73,14,ok,2,0,0.002,8,-0.64,0.62,9.66,47,0.152,8.32
7.9341,0.03142,-0.04538,1.12923,0.00000,0.00000,0.00000,33,3,70,21,31,3,73,16,ok,2,0,0.002,8,-0.64,0.62,9.66,47,0.165,8.32
7.9465,0.03142,-0.04538,1.12923,0.00000,0.00000,0.00000,35,2,71,18,32,2,73,18,ok,2,0,0.002,8,-0.64,0.62,9.66,47,0.178,8.32
7.9668,-0.06981,-0.04538,1.14319,0.00000,0.00000,0.00000,36,2,71,15,34,1,73,20,ok,2,0,0.002,8,0.34,0.83,9.22,48,0.000,8.32
7.9715,-0.06981,-0.04538,1.14319,0.00000,0.00000,0.00000,38,1,71,15,36,1,74,20,ok,2,0,0.002,8,0.34,0.83,9.22,48,0.013,8.32
7.9843,-0.06981,-0.04538,1.14319,0.00000,0.00000,0.00000,39,1,71,12,36,1,73,23,ok,2,0,0.002,8,0.34,0.83,9.22,48,0.025,8.32
8.0068,-0.06981,-0.04538,1.14319,0.00000,0.00000,0.00000,41,1,71,9,38,1,72,24,ok,2,0,0.002,8,0.34,0.83,9.22,48,0.038,8.32
8.0099,-0.06981,-0.04538,1.14319,0.00000,0.00000,0.00000,42,1,70,6,40,1,73,25,ok,2,0,0.002,8,0.34,0.83,9.22,48,0.051,8.32
8.0225,-0.06981,-0.04538,1.14319,0.00000,0.00000,0.00000,43,0,69,3,40,1,73,26,ok,2,0,0.002,8,0.34,0.83,9.22,48,0.064,8.32
8.0428,-0.06981,-0.04538,1.14319,0.00000,0.00000,0.00000,45,0,68,2,42,1,72,28,ok,0,0,0.002,8,0.34,0.83,9.22,48,0.076,8.32
8.0476,-0.06981,-0.04538,1.14319,0.00000,0.00000,0.00000,46,0,67,0,43,1,72,29,ok,0,0,0.002,8,0.34,0.83,9.22,48,0.088,8.32
8.0601,-0.06981,-0.04538,1.14319,0.00000,0.00000,0.00000,46,0,65,-1,44,0,73,29,ok,2,0,0.002,8,0.34,0.83,9.22,48,0.101,8.32
8.0828,-0.06981,-0.04538,1.14319,0.00000,0.00000,0.00000,48,0,64,-3,46,0,74,29,ok,2,0,0.002,8,0.34,0.83,9.22,48,0.114,8.32
8.0860,-0.06981,-0.04538,1.14319,0.00000,0.00000,0.00000,49,0,63,-6,47,0,76,26,ok,2,0,0.002,8,0.34,0.83,9.22,48,0.127,8.32
8.0985,-0.06981,-0.04538,1.14319,0.00000,0.00000,0.00000,50,2,61,-6,48,0,78,21,ok,2,0,0.002,8,0.34,0.83,9.22,48,0.140,8.32
8.1188,-0.06981,-0.04538,1.14319,0.00000,0.00000,0.00000,51,1,59,-8,49,0,79,17,ok,2,0,0.002,8,0.34,0.83,9.22,48,0.152,8.32
8.1235,-0.06981,-0.04538,1.14319,0.00000,0.00000,0.00000,52,1,56,-8,50,0,81,14,ok,2,0,0.002,8,0.34,0.83,9.22,48,0.165,8.32
8.1361,-0.06981,-0.04538,1.14319,0.00000,0.00000,0.00000,52,4,54,-9,51,0,81,14,ok,2,0,0.002,8,0.34,0.83,9.22,48,0.177,8.32
8.1588,-0.06981,-0.04538,1.14319,0.00000,0.00000,0.00000,53,5,51,-9,52,0,81,11,ok,2,0,0.002,8,0.34,0.83,9.22,48,0.190,8.32
8.1622,-0.06981,-0.04538,1.14319,0.00000,0.00000,0.00000,54,4,48,-9,53,0,81,7,ok,2,0,0.002,8,0.34,0.83,9.22,48,0.203,8.32
8.1748,-0.11170,0.02793,1.21999,0.00000,0.00000,0.00000,54,5,46,-8,54,1,80,4,ok,2,0,0.002,8,-0.51,-1.61,8.83,49,0.000,8.32
8.1948,-0.11170,0.02793,1.21999,0.00000,0.00000,0.00000,55,6,43,-9,55,1,79,2,ok,2,0,0.002,8,-0.51,-1.61,8.83,49,0.013,8.32
8.1995,-0.11170,0.02793,1.21999,0.00000,0.00000,0.00000,57,6,41,-9,56,1,78,-1,ok,2,0,0.002,8,-0.51,-1.61,8.83,49,0.025,8.32
8.2121,-0.11170,0.02793,1.21999,0.00000,0.00000,0.00000,57,6,38,-8,57,0,78,-3,ok,2,0,0.002,8,-0.51,-1.61,8.83,49,0.038,8.32
8.2348,-0.11170,0.02793,1.21999,0.00000,0.00000,0.00000,58,7,35,-7,58,1,77,-4,ok,2,0,0.002,8,-0.51,-1.61,8.83,49,0.050,8.32
8.2382,-0.11170,0.02793,1.21999,0.00000,0.00000,0.00000,59,8,32,-6,59,2,75,-6,ok,2,0,0.002,8,-0.51,-1.61,8.83,49,0.063,8.32
8.2505,-0.11170,0.02793,1.21999,0.00000,0.00000,0.00000,60,8,28,-5,60,2,72,-7,ok,2,0,0.002,8,-0.51,-1.61,8.83,49,0.076,8.32
8.2708,-0.11170,0.02793,1.21999,0.00000,0.00000,0.00000,60,9,26,-3,61,2,71,-8,ok,2,0,0.002,8,-0.51,-1.61,8.83,49,0.089,8.32
8.2756,-0.11170,0.02793,1.21999,0.00000,0.00000,0.00000,62,10,21,-1,62,1,70,-10,ok,2,0,0.002,8,-0.51,-1.61,8.83,49,0.101,8.32
8.2881,-0.11170,0.02793,1.21999,0.00000,0.00000,0.00000,62,10,20,0,64,-1,67,-11,ok,2,0,0.002,8,-0.51,-1.61,8.83,49,0.114,8.32
8.3108,-0.11170,0.02793,1.21999,0.00000,0.00000,0.00000,63,11,18,1,64,0,65,-13,ok,2,0,0.002,8,-0.51,-1.61,8.83,49,0.126,8.32
8.3140,-0.11170,0.02793,1.21999,0.00000,0.00000,0.00000,63,11,16,4,65,1,63,-13,ok,2,0,0.002,8,-0.51,-1.61,8.83,49,0.139,8.32
8.3267,-0.11170,0.02793,1.21999,0.00000,0.00000,0.00000,64,12,14,7,65,0,61,-13,ok,2,0,0.002,8,-0.51,-1.61,8.83,49,0.152,8.32
8.3468,-0.11170,0.02793,1.21999,0.00000,0.00000,0.00000,64,13,12,10,66,1,59,-14,ok,2,0,0.002,8,-0.51,-1.61,8.83,49,0.164,8.32
8.3515,-0.11170,0.02793,1.21999,0.00000,0.00000,0.00000,65,14,10,13,67,1,56,-12,ok,2,0,0.002,8,-0.51,-1.61,8.83,49,0.177,8.32
8.3643,-0.11170,0.02793,1.21999,0.00000,0.00000,0.00000,65,15,12,13,67,1,53,-12,ok,2,0,0.002,8,-0.51,-1.61,8.83,49,0.189,8.32
8.3868,-0.04712,-0.01571,1.24791,0.00000,0.00000,0.00000,65,16,12,13,68,1,51,-11,ok,2,0,0.002,8,0.35,-0.63,10.53,50,0.000,8.32
8.3899,-0.04712,-0.01571,1.24791,0.00000,0.00000,0.00000,66,16,14,12,68,2,48,-11,ok,2,0,0.002,8,0.35,-0.63,10.53,50,0.013,8.32
8.4028,-0.04712,-0.01571,1.24791,0.00000,0.00000,0.00000,66,18,15,11,69,3,45,-10,ok,2,0,0.002,8,0.35,-0.63,10.53,50,0.026,8.32
8.4228,-0.04712,-0.01571,1.24791,0.00000,0.00000,0.00000,67,18,15,10,69,3,42,-9,ok,2,0,0.002,8,0.35,-0.63,10.53,50,0.039,8.32
8.4275,-0.04712,-0.01571,1.24791,0.00000,0.00000,0.00000,67,19,17,9,69,4,40,-8,ok,2,0,0.002,8,0.35,-0.63,10.53,50,0.051,8.32
8.4401,-0.04712,-0.01571,1.24791,0.00000,0.00000,0.00000,67,20,18,9,70,5,36,-6,ok,2,0,0.002,8,0.35,-0.63,10.53,50,0.064,8.32
8.4628,-0.04712,-0.01571,1.24791,0.00000,0.00000,0.00000,68,21,20,8,71,5,34,-5,ok,2,0,0.002,8,0.35,-0.63,10.53,50,0.076,8.32
8.4660,-0.04712,-0.01571,1.24791,0.00000,0.00000,0.00000,68,22,21,7,71,6,32,-3,ok,2,0,0.002,8,0.35,-0.63,10.53,50,0.089,8.32
8.4787,-0.04712,-0.01571,1.24791,0.00000,0.00000,0.00000,68,23,22,7,70,8,30,0,ok,2,0,0.002,8,0.35,-0.63,10.53,50,0.102,8.32
8.4988,-0.04712,-0.01571,1.24791,0.00000,0.00000,0.00000,68,24,23,6,71,8,29,2,ok,2,0,0.002,8,0.35,-0.63,10.53,50,0.115,8.32
8.5035,-0.04712,-0.01571,1.24791,0.00000,0.00000,0.00000,67,25,24,5,71,9,28,6,ok,2,0,0.002,8,0.35,-0.63,10.53,50,0.127,8.32
8.5161,-0.04712,-0.01571,1.24791,0.00000,0.00000,0.00000,67,28,26,5,71,10,27,8,ok,2,0,0.002,8,0.35,-0.63,10.53,50,0.140,8.32
8.5388,-0.04712,-0.01571,1.24791,0.00000,0.00000,0.00000,66,29,27,4,71,12,29,6,ok,2,0,0.002,8,0.35,-0.63,10.53,50,0.152,8.32
8.5420,-0.04712,-0.01571,1.24791,0.00000,0.00000,0.00000,67,28,28,4,71,13,29,6,ok,2,0,0.002,8,0.35,-0.63,10.53,50,0.165,8.32
8.5545,-0.04712,-0.01571,1.24791,0.00000,0.00000,0.00000,69,25,30,3,71,15,31,4,ok,2,0,0.003,8,0.35,-0.63,10.53,50,0.178,8.32
8.5748,-0.00873,0.04363,1.33518,0.00000,0.00000,0.00000,72,21,31,3,71,16,32,3,ok,2,0,0.003,8,0.21,0.47,9.24,51,0.000,8.32
8.5796,-0.00873,0.04363,1.33518,0.00000,0.00000,0.00000,73,17,32,2,71,18,33,3,ok,2,0,0.003,8,0.21,0.47,9.24,51,0.012,8.32
8.5921,-0.00873,0.04363,1.33518,0.00000,0.00000,0.00000,73,15,33,2,72,19,35,2,ok,2,0,0.003,8,0.21,0.47,9.24,51,0.025,8.32
8.6148,-0.00873,0.04363,1.33518,0.00000,0.00000,0.00000,72,14,35,2,71,21,36,1,ok,2,0,0.003,8,0.21,0.47,9.24,51,0.038,8.32
8.6180,-0.00873,0.04363,1.33518,0.00000,0.00000,0.00000,73,11,36,2,71,22,38,1,ok,2,0,0.003,8,0.21,0.47,9.24,51,0.051,8.32
8.6305,-0.00873,0.04363,1.33518,0.00000,0.00000,0.00000,72,8,37,2,71,24,39,2,ok,2,0,0.003,8,0.21,0.47,9.24,51,0.063,8.32
8.6508,-0.00873,0.04363,1.33518,0.00000,0.00000,0.00000,71,5,38,2,71,26,41,2,ok,2,0,0.003,8,0.21,0.47,9.24,51,0.076,8.32
8.6555,-0.00873,0.04363,1.33518,0.00000,0.00000,0.00000,70,1,40,2,70,28,42,2,ok,2,0,0.003,9,0.21,0.47,9.24,51,0.088,8.32
8.6682,-0.00873,0.04363,1.33518,0.00000,0.00000,0.00000,69,0,41,2,70,29,43,2,ok,2,0,0.003,9,0.21,0.47,9.24,51,0.101,8.32
8.6909,-0.00873,0.04363,1.33518,0.00000,0.00000,0.00000,68,-3,43,2,70,29,44,1,ok,2,0,0.003,9,0.21,0.47,9.24,51,0.113,8.32
8.6942,-0.00873,0.04363,1.33518,0.00000,0.00000,0.00000,66,-4,43,2,72,29,45,1,ok,2,0,0.003,9,0.21,0.47,9.24,51,0.127,8.32
8.7066,-0.00873,0.04363,1.33518,0.00000,0.00000,0.00000,65,-6,45,3,73,27,47,1,ok,2,0,0.003,9,0.21,0.47,9.24,51,0.140,8.32
8.7268,-0.00873,0.04363,1.33518,0.00000,0.00000,0.00000,64,-8,46,3,75,22,48,1,ok,2,0,0.003,9,0.21,0.47,9.24,51,0.152,8.32
8.7316,-0.00873,0.04363,1.33518,0.00000,0.00000,0.00000,62,-9,48,4,77,17,49,1,ok,2,0,0.003,9,0.21,0.47,9.24,51,0.165,8.32
8.7442,-0.00873,0.04363,1.33518,0.00000,0.00000,0.00000,59,-10,49,3,78,15,49,1,ok,2,0,0.003,9,0.21,0.47,9.24,51,0.177,8.32
8.7668,-0.00873,0.04363,1.33518,0.00000,0.00000,0.00000,57,-11,49,3,78,14,50,1,ok,2,0,0.003,9,0.21,0.47,9.24,51,0.190,8.32
8.7703,-0.00873,0.04363,1.33518,0.00000,0.00000,0.00000,55,-12,50,5,78,12,51,1,ok,2,0,0.003,9,0.21,0.47,9.24,51,0.203,8.32
8.7828,0.07854,-0.00349,1.32994,0.00000,0.00000,0.00000,52,-11,51,6,78,8,52,1,ok,2,0,0.003,9,-0.79,0.36,9.88,52,0.000,8.32
8.8028,0.07854,-0.00349,1.32994,0.00000,0.00000,0.00000,49,-11,52,6,78,5,54,1,ok,2,0,0.003,9,-0.79,0.36,9.88,52,0.013,8.32
8.8076,0.07854,-0.00349,1.32994,0.00000,0.00000,0.00000,47,-11,53,6,77,3,54,0,ok,2,0,0.003,9,-0.79,0.36,9.88,52,0.025,8.32
8.8203,0.07854,-0.00349,1.32994,0.00000,0.00000,0.00000,44,-11,53,7,76,0,55,1,ok,2,0,0.003,9,-0.79,0.36,9.88,52,0.038,8.32
8.8428,0.07854,-0.00349,1.32994,0.00000,0.00000,0.00000,42,-11,55,7,76,-3,55,0,ok,2,0,0.003,9,-0.79,0.36,9.88,52,0.050,8.32
8.8459,0.07854,-0.00349,1.32994,0.00000,0.00000,0.00000,40,-10,55,7,75,-4,57,1,ok,2,0,0.003,9,-0.79,0.36,9.88,52,0.063,8.32
8.8585,0.07854,-0.00349,1.32994,0.00000,0.00000,0.00000,37,-9,57,8,73,-7,57,-1,ok,2,0,0.003,9,-0.79,0.36,9.88,52,0.076,8.32
8.8788,0.07854,-0.00349,1.32994,0.00000,0.00000,0.00000,34,-8,57,8,70,-7,58,0,ok,2,0,0.003,9,-0.79,0.36,9.88,52,0.088,8.32
8.8836,0.07854,-0.00349,1.32994,0.00000,0.00000,0.00000,31,-6,58,9,69,-9,58,0,ok,2,0,0.003,9,-0.79,0.36,9.88,52,0.101,8.32
8.8963,0.07854,-0.00349,1.32994,0.00000,0.00000,0.00000,28,-4,58,9,68,-10,60,1,ok,2,0,0.003,9,-0.79,0.36,9.88,52,0.113,8.32
8.9188,0.07854,-0.00349,1.32994,0.00000,0.00000,0.00000,24,-1,60,11,66,-12,60,1,ok,2,0,0.003,9,-0.79,0.36,9.88,52,0.126,8.32
8.9219,0.07854,-0.00349,1.32994,0.00000,0.00000,0.00000,22,-1,61,11,64,-12,61,0,ok,2,0,0.003,9,-0.79,0.36,9.88,52,0.139,8.32
8.9345,0.07854,-0.00349,1.32994,0.00000,0.00000,0.00000,20,1,61,12,62,-13,64,-2,ok,2,0,0.003,9,-0.79,0.36,9.88,52,0.152,8.32
8.9548,0.07854,-0.00349,1.32994,0.00000,0.00000,0.00000,18,3,62,12,59,-14,64,-1,ok,2,0,0.003,9,-0.79,0.36,9.88,52,0.164,8.32
8.9595,0.07854,-0.00349,1.32994,0.00000,0.00000,0.00000,16,7,62,13,57,-14,65,-1,ok,2,0,0.003,9,-0.79,0.36,9.88,52,0.177,8.32
8.9723,0.07854,-0.00349,1.32994,0.00000,0.00000,0.00000,15,10,62,14,54,-13,66,0,ok,2,0,0.003,9,-0.79,0.36,9.88,52,0.189,8.32
8.9948,0.10123,0.03840,1.35438,0.00000,0.00000,0.00000,13,13,63,15,51,-12,66,-1,ok,2,0,0.003,9,0.64,1.58,9.89,53,0.000,8.32
8.9980,0.10123,0.03840,1.35438,0.00000,0.00000,0.00000,14,13,63,16,49,-12,67,0,ok,2,0,0.003,9,0.64,1.58,9.89,53,0.013,8.32
9.0105,0.10123,0.03840,1.35438,0.00000,0.00000,0.00000,14,13,63,17,46,-11,68,0,ok,2,0,0.003,9,0.64,1.58,9.89,53,0.026,8.32
9.0308,0.10123,0.03840,1.35438,0.00000,0.00000,0.00000,16,12,64,17,44,-11,69,1,ok,2,0,0.003,9,0.64,1.58,9.89,53,0.039,8.32
9.0356,0.10123,0.03840,1.35438,0.00000,0.00000,0.00000,17,12,64,18,41,-9,69,1,ok,2,0,0.003,9,0.64,1.58,9.89,53,0.051,8.32
9.0481,0.10123,0.03840,1.35438,0.00000,0.00000,0.00000,18,11,65,19,38,-9,70,2,ok,2,0,0.003,9,0.64,1.58,9.89,53,0.064,8.32
9.0708,0.10123,0.03840,1.35438,0.00000,0.00000,0.00000,20,10,65,20,35,-7,70,2,ok,2,0,0.003,9,0.64,1.58,9.89,53,0.076,8.32
9.0741,0.10123,0.03840,1.35438,0.00000,0.00000,0.00000,20,10,65,21,33,-6,71,3,ok,2,0,0.003,9,0.64,1.58,9.89,53,0.089,8.32
9.0865,0.10123,0.03840,1.35438,0.00000,0.00000,0.00000,22,9,65,21,31,-4,71,5,ok,2,0,0.003,9,0.64,1.58,9.89,53,0.102,8.32
9.1068,0.10123,0.03840,1.35438,0.00000,0.00000,0.00000,24,8,65,23,29,-1,72,5,ok,2,0,0.003,9,0.64,1.58,9.89,53,0.115,8.32
9.1115,0.10123,0.03840,1.35438,0.00000,0.00000,0.00000,25,7,65,23,27,1,72,7,ok,2,0,0.003,9,0.64,1.58,9.89,53,0.127,8.32
9.1241,0.10123,0.03840,1.35438,0.00000,0.00000,0.00000,26,6,65,24,26,5,72,8,ok,2,0,0.003,9,0.64,1.58,9.89,53,0.140,8.32
9.1469,0.10123,0.03840,1.35438,0.00000,0.00000,0.00000,28,6,64,25,26,7,73,9,ok,2,0,0.003,9,0.64,1.58,9.89,53,0.152,8.32
9.1501,0.10123,0.03840,1.35438,0.00000,0.00000,0.00000,29,5,63,28,27,6,73,10,ok,2,0,0.003,9,0.64,1.58,9.89,53,0.165,8.32
9.1627,0.10123,0.03840,1.35438,0.00000,0.00000,0.00000,30,5,63,29,28,6,73,12,ok,2,0,0.003,9,0.64,1.58,9.89,53,0.178,8.32
9.1828,0.06458,0.06458,1.33343,0.00000,0.00000,0.00000,31,4,64,28,29,4,73,13,ok,2,0,0.003,9,-0.65,1.14,8.84,54,0.000,8.32
9.1876,0.06458,0.06458,1.33343,0.00000,0.00000,0.00000,32,3,67,25,30,3,74,15,ok,2,0,0.003,9,-0.65,1.14,8.84,54,0.012,8.32
9.2001,0.06458,0.06458,1.33343,0.00000,0.00000,0.00000,34,3,69,21,31,3,74,16,ok,2,0,0.003,9,-0.65,1.14,8.84,54,0.025,8.32
9.2228,0.06458,0.06458,1.33343,0.00000,0.00000,0.00000,35,2,70,17,32,3,73,18,ok,2,0,0.003,9,-0.65,1.14,8.84,54,0.038,8.32
9.2261,0.06458,0.06458,1.33343,0.00000,0.00000,0.00000,36,2,70,15,34,2,73,20,ok,2,0,0.003,9,-0.65,1.14,8.84,54,0.051,8.32
9.2386,0.06458,0.06458,1.33343,0.00000,0.00000,0.00000,38,1,71,15,36,2,74,21,ok,2,0,0.003,9,-0.65,1.14,8.84,54,0.063,8.32
9.2588,0.06458,0.06458,1.33343,0.00000,0.00000,0.00000,39,1,71,11,36,2,73,23,ok,2,0,0.003,9,-0.65,1.14,8.84,54,0.076,8.32
9.2635,0.06458,0.06458,1.33343,0.00000,0.00000,0.00000,41,1,70,8,38,3,73,24,ok,2,0,0.003,9,-0.65,1.14,8.84,54,0.088,8.32
9.2761,0.06458,0.06458,1.33343,0.00000,0.00000,0.00000,42,1,70,6,40,2,73,25,ok,2,0,0.003,9,-0.65,1.14,8.84,54,0.101,8.32
9.2988,0.06458,0.06458,1.33343,0.00000,0.00000,0.00000,44,0,69,3,40,2,73,27,ok,2,0,0.003,9,-0.65,1.14,8.84,54,0.113,8.32
9.3022,0.06458,0.06458,1.33343,0.00000,0.00000,0.00000,45,0,68,1,42,2,73,28,ok,2,0,0.003,9,-0.65,1.14,8.84,54,0.127,8.32
9.3145,0.06458,0.06458,1.33343,0.00000,0.00000,0.00000,46,0,67,0,43,2,73,29,ok,2,0,0.003,9,-0.65,1.14,8.84,54,0.140,8.32
9.3348,0.06458,0.06458,1.33343,0.00000,0.00000,0.00000,47,0,65,-2,44,1,74,29,ok,2,0,0.003,9,-0.65,1.14,8.84,54,0.152,8.32
9.3395,0.06458,0.06458,1.33343,0.00000,0.00000,0.00000,48,1,64,-4,46,1,75,29,ok,2,0,0.003,9,-0.65,1.14,8.84,54,0.164,8.32
9.3521,0.06458,0.06458,1.33343,0.00000,0.00000,0.00000,49,1,63,-6,47,1,77,27,ok,2,0,0.003,9,-0.65,1.14,8.84,54,0.177,8.32
9.3788,0.06458,0.06458,1.33343,0.00000,0.00000,0.00000,51,2,61,-7,48,1,79,21,ok,2,0,0.003,9,-0.65,1.14,8.84,54,0.190,8.32
9.3822,-0.11170,0.01920,1.39626,0.00000,0.00000,0.00000,52,1,58,-8,48,1,80,17,ok,2,0,0.003,9,-0.37,-0.67,8.83,55,0.000,8.32
9.3945,-0.11170,0.01920,1.39626,0.00000,0.00000,0.00000,52,1,56,-8,50,1,81,15,ok,2,0,0.003,9,-0.37,-0.67,8.83,55,0.013,8.32
9.4148,-0.11170,0.01920,1.39626,0.00000,0.00000,0.00000,53,3,53,-9,51,0,82,14,ok,2,0,0.003,9,-0.37,-0.67,8.83,55,0.025,8.32
9.4195,-0.11170,0.01920,1.39626,0.00000,0.00000,0.00000,54,4,51,-8,52,0,81,12,ok,2,0,0.003,9,-0.37,-0.67,8.83,55,0.038,8.32
9.4323,-0.11170,0.01920,1.39626,0.00000,0.00000,0.00000,54,4,48,-8,53,1,82,8,ok,2,0,0.003,9,-0.37,-0.67,8.83,55,0.050,8.32
9.4548,-0.11170,0.01920,1.39626,0.00000,0.00000,0.00000,55,5,46,-8,54,1,81,4,ok,2,0,0.003,9,-0.37,-0.67,8.83,55,0.063,8.32
9.4580,-0.11170,0.01920,1.39626,0.00000,0.00000,0.00000,55,6,43,-8,55,1,80,3,ok,2,0,0.003,9,-0.37,-0.67,8.83,55,0.076,8.32
9.4705,-0.11170,0.01920,1.39626,0.00000,0.00000,0.00000,57,6,41,-9,56,2,79,-1,ok,2,0,0.003,9,-0.37,-0.67,8.83,55,0.089,8.32
9.4908,-0.11170,0.01920,1.39626,0.00000,0.00000,0.00000,57,6,38,-8,57,1,79,-2,ok,2,0,0.003,9,-0.37,-0.67,8.83,55,0.101,8.32
9.4955,-0.11170,0.01920,1.39626,0.00000,0.00000,0.00000,59,7,35,-7,58,2,77,-4,ok,2,0,0.003,9,-0.37,-0.67,8.83,55,0.114,8.32
9.5083,-0.11170,0.01920,1.39626,0.00000,0.00000,0.00000,59,8,33,-6,59,2,75,-6,ok,2,0,0.003,9,-0.37,-0.67,8.83,55,0.126,8.32
9.5308,-0.11170,0.01920,1.39626,0.00000,0.00000,0.00000,60,8,29,-5,60,2,72,-7,ok,2,0,0.003,9,-0.37,-0.67,8.83,55,0.139,8.32
9.5339,-0.11170,0.01920,1.39626,0.00000,0.00000,0.00000,61,9,26,-3,61,2,71,-8,ok,2,0,0.003,9,-0.37,-0.67,8.83,55,0.152,8.32
9.5465,-0.11170,0.01920,1.39626,0.00000,0.00000,0.00000,62,10,21,-1,62,1,70,-10,ok,2,0,0.003,9,-0.37,-0.67,8.83,55,0.165,8.32
9.5668,-0.11170,0.01920,1.39626,0.00000,0.00000,0.00000,62,10,20,0,64,-1,68,-11,ok,2,0,0.003,9,-0.37,-0.67,8.83,55,0.177,8.32
9.5716,-0.11170,0.01920,1.39626,0.00000,0.00000,0.00000,63,11,18,1,64,0,65,-12,ok,2,0,0.003,9,-0.37,-0.67,8.83,55,0.190,8.32
9.5844,-0.11170,0.01920,1.39626,0.00000,0.00000,0.00000,64,12,16,4,65,1,63,-13,ok,2,0,0.003,9,-0.37,-0.67,8.83,55,0.202,8.32
9.6068,-0.04538,-0.04538,1.43292,0.00000,0.00000,0.00000,64,12,14,7,65,1,61,-13,ok,2,0,0.003,9,-0.30,0.57,10.42,56,0.000,8.32
9.6099,-0.04538,-0.04538,1.43292,0.00000,0.00000,0.00000,64,13,12,10,66,1,59,-14,ok,2,0,0.003,9,-0.30,0.57,10.42,56,0.013,8.32
9.6225,-0.04538,-0.04538,1.43292,0.00000,0.00000,0.00000,65,14,11,13,67,1,56,-12,ok,2,0,0.003,9,-0.30,0.57,10.42,56,0.026,8.32
9.6428,-0.04538,-0.04538,1.43292,0.00000,0.00000,0.00000,65,15,12,13,67,1,53,-12,ok,2,0,0.003,9,-0.30,0.57,10.42,56,0.039,8.32
9.6476,-0.04538,-0.04538,1.43292,0.00000,0.00000,0.00000,66,16,12,13,68,1,51,-12,ok,2,0,0.003,9,-0.30,0.57,10.42,56,0.051,8.32
9.6603,-0.04538,-0.04538,1.43292,0.00000,0.00000,0.00000,67,17,14,12,68,2,48,-11,ok,2,0,0.003,9,-0.30,0.57,10.42,56,0.064,8.32
9.6831,-0.04538,-0.04538,1.43292,0.00000,0.00000,0.00000,67,18,15,11,69,3,45,-10,ok,2,0,0.003,9,-0.30,0.57,10.42,56,0.076,8.32
9.6863,-0.04538,-0.04538,1.43292,0.00000,0.00000,0.00000,67,18,15,10,69,3,42,-9,ok,2,0,0.003,10,-0.30,0.57,10.42,56,0.090,8.32
9.6988,-0.04538,-0.04538,1.43292,0.00000,0.00000,0.00000,68,19,17,9,69,4,40,-8,ok,2,0,0.003,10,-0.30,0.57,10.42,56,0.102,8.32
9.7188,-0.04538,-0.04538,1.43292,0.00000,0.00000,0.00000,68,20,17,9,69,5,36,-6,ok,2,0,0.003,10,-0.30,0.57,10.42,56,0.115,8.32
9.7238,-0.04538,-0.04538,1.43292,0.00000,0.00000,0.00000,69,21,20,8,70,5,35,-5,ok,2,0,0.003,10,-0.30,0.57,10.42,56,0.127,8.32
9.7363,-0.04538,-0.04538,1.43292,0.00000,0.00000,0.00000,69,22,21,7,70,6,32,-3,ok,2,0,0.003,10,-0.30,0.57,10.42,56,0.140,8.32
9.7589,-0.04538,-0.04538,1.43292,0.00000,0.00000,0.00000,68,23,22,7,70,8,30,0,ok,2,0,0.003,10,-0.30,0.57,10.42,56,0.152,8.32
9.7620,-0.04538,-0.04538,1.43292,0.00000,0.00000,0.00000,68,24,23,6,71,8,29,2,ok,2,0,0.003,10,-0.30,0.57,10.42,56,0.165,8.32
9.7745,-0.04538,-0.04538,1.43292,0.00000,0.00000,0.00000,68,25,25,6,71,9,28,6,ok,2,0,0.003,10,-0.30,0.57,10.42,56,0.178,8.32
9.7948,0.09948,-0.01396,1.45560,0.00000,0.00000,0.00000,67,28,26,5,71,10,27,8,ok,2,0,0.003,10,-0.27,0.90,8.75,57,0.000,8.32
9.7995,0.09948,-0.01396,1.45560,0.00000,0.00000,0.00000,66,29,27,4,71,13,29,6,ok,2,0,0.003,10,-0.27,0.90,8.75,57,0.013,8.32
9.8121,0.09948,-0.01396,1.45560,0.00000,0.00000,0.00000,67,28,28,4,71,14,30,6,ok,2,0,0.003,10,-0.27,0.90,8.75,57,0.025,8.32
9.8348,0.09948,-0.01396,1.45560,0.00000,0.00000,0.00000,70,25,30,3,71,15,31,3,ok,2,0,0.003,10,-0.27,0.90,8.75,57,0.038,8.32
9.8380,0.09948,-0.01396,1.45560,0.00000,0.00000,0.00000,72,21,31,3,70,16,32,3,ok,2,0,0.003,10,-0.27,0.90,8.75,57,0.051,8.32
9.8505,0.09948,-0.01396,1.45560,0.00000,0.00000,0.00000,73,17,32,2,70,18,34,3,ok,2,0,0.003,10,-0.27,0.90,8.75,57,0.064,8.32
9.8748,0.09948,-0.01396,1.45560,0.00000,0.00000,0.00000,73,15,33,2,71,19,35,2,ok,2,0,0.003,10,-0.27,0.90,8.75,57,0.076,8.32
9.8781,0.09948,-0.01396,1.45560,0.00000,0.00000,0.00000,73,14,35,2,70,21,36,1,ok,2,0,0.003,10,-0.27,0.90,8.75,57,0.091,8.32
9.8906,0.09948,-0.01396,1.45560,0.00000,0.00000,0.00000,73,11,36,2,70,22,39,1,ok,2,0,0.003,10,-0.27,0.90,8.75,57,0.103,8.32
9.9108,0.09948,-0.01396,1.45560,0.00000,0.00000,0.00000,72,8,37,2,70,24,39,2,ok,2,0,0.003,10,-0.27,0.90,8.75,57,0.116,8.32
9.9156,0.09948,-0.01396,1.45560,0.00000,0.00000,0.00000,72,5,38,2,70,26,41,2,ok,2,0,0.003,10,-0.27,0.90,8.75,57,0.128,8.32
9.9281,0.09948,-0.01396,1.45560,0.00000,0.00000,0.00000,71,2,40,2,70,28,43,2,ok,2,0,0.003,10,-0.27,0.90,8.75,57,0.141,8.32
9.9508,0.09948,-0.01396,1.45560,0.00000,0.00000,0.00000,70,-1,41,2,70,29,44,2,ok,2,0,0.003,10,-0.27,0.90,8.75,57,0.153,8.32
9.9541,0.09948,-0.01396,1.45560,0.00000,0.00000,0.00000,68,-3,43,2,70,29,45,1,ok,2,0,0.003,10,-0.27,0.90,8.75,57,0.167,8.32
9.9666,0.09948,-0.01396,1.45560,0.00000,0.00000,0.00000,66,-4,43,2,71,29,46,1,ok,2,0,0.003,10,-0.27,0.90,8.75,57,0.179,8.32
9.9868,0.09948,-0.01396,1.45560,0.00000,0.00000,0.00000,65,-6,45,3,73,26,47,0,ok,2,0,0.003,10,-0.27,0.90,8.75,57,0.192,8.32
9.9918,0.09948,-0.01396,1.45560,0.00000,0.00000,0.00000,64,-8,46,3,75,22,48,0,ok,2,0,0.003,10,-0.27,0.90,8.75,57,0.204,8.32
10.0043,0.06632,0.03142,1.52018,0.00000,0.00000,0.00000,62,-9,48,4,76,17,49,1,ok,2,0,0.003,10,0.90,1.06,9.49,58,0.000,8.32
10.0308,0.06632,0.03142,1.52018,0.00000,0.00000,0.00000,60,-10,49,3,78,15,50,1,ok,2,0,0.003,10,0.90,1.06,9.49,58,0.013,8.32
10.0340,0.06632,0.03142,1.52018,0.00000,0.00000,0.00000,58,-10,49,3,78,14,50,1,ok,2,0,0.003,10,0.90,1.06,9.49,58,0.030,8.32
10.0466,0.06632,0.03142,1.52018,0.00000,0.00000,0.00000,55,-11,49,5,78,12,52,1,ok,2,0,0.003,10,0.90,1.06,9.49,58,0.042,8.32
10.0668,0.06632,0.03142,1.52018,0.00000,0.00000,0.00000,53,-11,51,6,78,8,53,1,ok,2,0,0.003,10,0.90,1.06,9.49,58,0.055,8.32
10.0716,0.06632,0.03142,1.52018,0.00000,0.00000,0.00000,50,-11,52,6,78,5,54,1,ok,2,0,0.003,10,0.90,1.06,9.49,58,0.067,8.32
10.0841,0.06632,0.03142,1.52018,0.00000,0.00000,0.00000,48,-10,52,6,77,3,55,0,ok,2,0,0.003,10,0.90,1.06,9.49,58,0.080,8.32
10.1068,0.06632,0.03142,1.52018,0.00000,0.00000,0.00000,45,-11,53,7,76,0,55,1,ok,2,0,0.003,10,0.90,1.06,9.49,58,0.092,8.32
10.1099,0.06632,0.03142,1.52018,0.00000,0.00000,0.00000,43,-11,55,8,76,-2,56,0,ok,2,0,0.003,10,0.90,1.06,9.49,58,0.106,8.32
10.1225,0.06632,0.03142,1.52018,0.00000,0.00000,0.00000,40,-10,55,8,74,-4,57,1,ok,2,0,0.003,10,0.90,1.06,9.49,58,0.119,8.32
10.1428,0.06632,0.03142,1.52018,0.00000,0.00000,0.00000,37,-9,56,8,73,-7,58,0,ok,2,0,0.003,10,0.90,1.06,9.49,58,0.131,8.32
10.1476,0.06632,0.03142,1.52018,0.00000,0.00000,0.00000,35,-8,57,9,70,-6,58,0,ok,2,0,0.003,10,0.90,1.06,9.49,58,0.143,8.32
10.1601,0.06632,0.03142,1.52018,0.00000,0.00000,0.00000,31,-6,57,9,69,-9,58,0,ok,2,0,0.003,10,0.90,1.06,9.49,58,0.156,8.32
10.1828,0.06632,0.03142,1.52018,0.00000,0.00000,0.00000,28,-4,58,9,68,-10,60,1,ok,2,0,0.003,10,0.90,1.06,9.49,58,0.168,8.32
10.1859,0.06632,0.03142,1.52018,0.00000,0.00000,0.00000,24,-2,59,11,66,-11,61,1,ok,2,0,0.003,10,0.90,1.06,9.49,58,0.182,8.32
10.1990,0.15184,-0.03316,1.52542,0.00000,0.00000,0.00000,22,-1,60,11,63,-12,62,0,ok,2,0,0.003,10,-0.21,1.51,9.36,59,0.000,8.32
10.2188,0.15184,-0.03316,1.52542,0.00000,0.00000,0.00000,21,1,61,12,62,-12,64,-2,ok,2,0,0.003,10,-0.21,1.51,9.36,59,0.013,8.32
10.2236,0.15184,-0.03316,1.52542,0.00000,0.00000,0.00000,19,3,62,12,59,-13,64,-1,ok,2,0,0.003,10,-0.21,1.51,9.36,59,0.025,8.32
10.2361,0.15184,-0.03316,1.52542,0.00000,0.00000,0.00000,16,7,62,13,57,-14,65,-1,ok,2,0,0.003,10,-0.21,1.51,9.36,59,0.038,8.32
10.2588,0.15184,-0.03316,1.52542,0.00000,0.00000,0.00000,15,10,62,14,54,-13,66,-1,ok,2,0,0.003,10,-0.21,1.51,9.36,59,0.050,8.32
10.2619,0.15184,-0.03316,1.52542,0.00000,0.00000,0.00000,13,13,63,15,51,-12,66,-1,ok,2,0,0.003,10,-0.21,1.51,9.36,59,0.063,8.32
10.2746,0.15184,-0.03316,1.52542,0.00000,0.00000,0.00000,15,13,63,16,49,-12,67,0,ok,2,0,0.003,10,-0.21,1.51,9.36,59,0.076,8.32
10.2948,0.15184,-0.03316,1.52542,0.00000,0.00000,0.00000,15,13,63,17,46,-11,68,0,ok,2,0,0.003,10,-0.21,1.51,9.36,59,0.089,8.32
10.2996,0.15184,-0.03316,1.52542,0.00000,0.00000,0.00000,16,12,64,17,43,-11,69,1,ok,2,0,0.003,10,-0.21,1.51,9.36,59,0.101,8.32
10.3120,0.15184,-0.03316,1.52542,0.00000,0.00000,0.00000,18,12,64,18,40,-9,70,1,ok,2,0,0.003,10,-0.21,1.51,9.36,59,0.114,8.32
10.3348,0.15184,-0.03316,1.52542,0.00000,0.00000,0.00000,18,11,65,19,37,-9,70,2,ok,2,0,0.003,10,-0.21,1.51,9.36,59,0.126,8.32
10.3380,0.15184,-0.03316,1.52542,0.00000,0.00000,0.00000,20,10,65,20,34,-7,70,2,ok,2,0,0.003,10,-0.21,1.51,9.36,59,0.139,8.32
10.3507,0.15184,-0.03316,1.52542,0.00000,0.00000,0.00000,21,10,65,21,32,-6,71,3,ok,2,0,0.003,10,-0.21,1.51,9.36,59,0.152,8.32
10.3708,0.15184,-0.03316,1.52542,0.00000,0.00000,0.00000,23,9,65,22,30,-4,72,5,ok,2,0,0.003,10,-0.21,1.51,9.36,59,0.165,8.32
10.3756,0.15184,-0.03316,1.52542,0.00000,0.00000,0.00000,24,8,65,23,28,-1,73,5,ok,2,0,0.003,10,-0.21,1.51,9.36,59,0.177,8.32
10.3881,0.15184,-0.03316,1.52542,0.00000,0.00000,0.00000,25,7,65,23,27,1,73,7,ok,2,0,0.003,10,-0.21,1.51,9.36,59,0.190,8.32
10.4108,0.08901,0.03665,1.51146,0.00000,0.00000,0.00000,27,6,65,25,26,4,73,8,ok,2,0,0.003,10,1.42,0.85,11.00,60,0.000,8.32
10.4140,0.08901,0.03665,1.51146,0.00000,0.00000,0.00000,28,6,64,25,25,7,73,9,ok,2,0,0.003,10,1.42,0.85,11.00,60,0.013,8.32
10.4266,0.08901,0.03665,1.51146,0.00000,0.00000,0.00000,29,5,63,28,27,6,73,10,ok,2,0,0.003,10,1.42,0.85,11.00,60,0.026,8.32
10.4468,0.08901,0.03665,1.51146,0.00000,0.00000,0.00000,30,5,63,29,27,6,73,12,ok,2,0,0.003,10,1.42,0.85,11.00,60,0.039,8.32
10.4516,0.08901,0.03665,1.51146,0.00000,0.00000,0.00000,32,4,64,28,29,4,73,13,ok,2,0,0.003,10,1.42,0.85,11.00,60,0.051,8.32
10.4641,0.08901,0.03665,1.51146,0.00000,0.00000,0.00000,33,3,67,25,30,3,74,15,ok,2,0,0.003,10,1.42,0.85,11.00,60,0.064,8.32
10.4868,0.08901,0.03665,1.51146,0.00000,0.00000,0.00000,34,3,69,22,31,3,74,16,ok,2,0,0.003,10,1.42,0.85,11.00,60,0.076,8.32
10.4899,0.08901,0.03665,1.51146,0.00000,0.00000,0.00000,35,2,70,18,32,3,74,18,ok,2,0,0.003,10,1.42,0.85,11.00,60,0.089,8.32
10.5026,0.08901,0.03665,1.51146,0.00000,0.00000,0.00000,37,2,71,16,33,2,74,20,ok,2,0,0.003,10,1.42,0.85,11.00,60,0.102,8.32
10.5228,0.08901,0.03665,1.51146,0.00000,0.00000,0.00000,38,1,70,15,36,2,74,20,ok,2,0,0.003,10,1.42,0.85,11.00,60,0.115,8.32
10.5277,0.08901,0.03665,1.51146,0.00000,0.00000,0.00000,39,1,71,12,36,2,73,23,ok,2,0,0.003,10,1.42,0.85,11.00,60,0.127,8.32
10.5401,0.08901,0.03665,1.51146,0.00000,0.00000,0.00000,41,1,70,9,38,3,73,24,ok,2,0,0.003,10,1.42,0.85,11.00,60,0.140,8.32
10.5628,0.08901,0.03665,1.51146,0.00000,0.00000,0.00000,42,1,70,6,39,2,74,25,ok,2,0,0.003,10,1.42,0.85,11.00,60,0.152,8.32
10.5659,0.08901,0.03665,1.51146,0.00000,0.00000,0.00000,44,0,69,3,40,2,73,27,ok,2,0,0.003,10,1.42,0.85,11.00,60,0.165,8.32
10.5788,0.08901,0.03665,1.51146,0.00000,0.00000,0.00000,45,0,68,1,41,2,73,28,ok,2,0,0.003,10,1.42,0.85,11.00,60,0.178,8.32
10.5988,0.08901,0.03665,1.51146,0.00000,0.00000,0.00000,47,0,67,0,43,2,73,29,ok,2,0,0.003,10,1.42,0.85,11.00,60,0.191,8.32
10.6039,-0.06458,-0.03316,1.52367,0.00000,0.00000,0.00000,47,0,65,-1,44,1,74,29,ok,2,0,0.003,10,-0.48,-1.41,10.45,61,0.000,8.32
10.6161,-0.06458,-0.03316,1.52367,0.00000,0.00000,0.00000,48,0,64,-3,45,0,75,29,ok,2,0,0.003,10,-0.48,-1.41,10.45,61,0.013,8.32
10.6388,-0.06458,-0.03316,1.52367,0.00000,0.00000,0.00000,50,0,63,-5,46,0,77,27,ok,2,0,0.003,10,-0.48,-1.41,10.45,61,0.025,8.32
10.6419,-0.06458,-0.03316,1.52367,0.00000,0.00000,0.00000,51,1,61,-6,47,0,79,21,ok,2,0,0.003,10,-0.48,-1.41,10.45,61,0.038,8.32
10.6546,-0.06458,-0.03316,1.52367,0.00000,0.00000,0.00000,52,1,58,-7,48,0,80,18,ok,2,0,0.003,10,-0.48,-1.41,10.45,61,0.051,8.32
10.6748,-0.06458,-0.03316,1.52367,0.00000,0.00000,0.00000,52,1,56,-8,49,0,82,14,ok,2,0,0.003,10,-0.48,-1.41,10.45,61,0.063,8.32
10.6797,-0.06458,-0.03316,1.52367,0.00000,0.00000,0.00000,52,3,54,-9,50,0,82,14,ok,2,0,0.003,10,-0.48,-1.41,10.45,61,0.076,8.32
10.6922,-0.06458,-0.03316,1.52367,0.00000,0.00000,0.00000,53,4,51,-8,52,0,82,11,ok,2,0,0.003,10,-0.48,-1.41,10.45,61,0.088,8.32
10.7148,-0.06458,-0.03316,1.52367,0.00000,0.00000,0.00000,54,4,48,-8,53,0,81,8,ok,2,0,0.003,11,-0.48,-1.41,10.45,61,0.101,8.32
10.7180,-0.06458,-0.03316,1.52367,0.00000,0.00000,0.00000,55,5,46,-8,54,1,81,4,ok,2,0,0.003,11,-0.48,-1.41,10.45,61,0.114,8.32
10.7307,-0.06458,-0.03316,1.52367,0.00000,0.00000,0.00000,55,6,43,-8,55,1,80,2,ok,2,0,0.003,11,-0.48,-1.41,10.45,61,0.127,8.32
10.7508,-0.06458,-0.03316,1.52367,0.00000,0.00000,0.00000,57,6,41,-9,56,1,79,-1,ok,2,0,0.003,11,-0.48,-1.41,10.45,61,0.139,8.32
10.7556,-0.06458,-0.03316,1.52367,0.00000,0.00000,0.00000,57,6,38,-8,57,1,78,-3,ok,2,0,0.003,11,-0.48,-1.41,10.45,61,0.152,8.32
10.7681,-0.06458,-0.03316,1.52367,0.00000,0.00000,0.00000,59,7,35,-7,57,1,77,-4,ok,2,0,0.003,11,-0.48,-1.41,10.45,61,0.164,8.32
10.7908,-0.06458,-0.03316,1.52367,0.00000,0.00000,0.00000,59,8,32,-5,58,2,75,-6,ok,2,0,0.003,11,-0.48,-1.41,10.45,61,0.177,8.32
10.7941,-0.06458,-0.03316,1.52367,0.00000,0.00000,0.00000,60,8,28,-4,59,2,72,-7,ok,2,0,0.003,11,-0.48,-1.41,10.45,61,0.190,8.32
10.8068,-0.07505,-0.01745,1.55334,0.00000,0.00000,0.00000,61,9,26,-3,60,2,71,-9,ok,2,0,0.003,11,-0.02,-0.44,10.43,62,0.000,8.32
10.8268,-0.07505,-0.01745,1.55334,0.00000,0.00000,0.00000,62,10,21,-1,61,1,70,-10,ok,2,0,0.003,11,-0.02,-0.44,10.43,62,0.013,8.32
10.8316,-0.07505,-0.01745,1.55334,0.00000,0.00000,0.00000,63,10,20,1,63,-1,68,-11,ok,2,0,0.003,11,-0.02,-0.44,10.43,62,0.025,8.32
10.8443,-0.07505,-0.01745,1.55334,0.00000,0.00000,0.00000,64,11,18,2,64,0,65,-13,ok,2,0,0.003,11,-0.02,-0.44,10.43,62,0.038,8.32
10.8668,-0.07505,-0.01745,1.55334,0.00000,0.00000,0.00000,64,12,16,4,64,1,64,-13,ok,2,0,0.003,11,-0.02,-0.44,10.43,62,0.050,8.32
10.8699,-0.07505,-0.01745,1.55334,0.00000,0.00000,0.00000,65,12,14,7,65,0,61,-13,ok,2,0,0.003,11,-0.02,-0.44,10.43,62,0.063,8.32
10.8825,-0.07505,-0.01745,1.55334,0.00000,0.00000,0.00000,65,14,12,11,65,1,59,-14,ok,2,0,0.003,11,-0.02,-0.44,10.43,62,0.076,8.32
10.9028,-0.07505,-0.01745,1.55334,0.00000,0.00000,0.00000,65,14,10,13,66,1,56,-12,ok,2,0,0.003,11,-0.02,-0.44,10.43,62,0.088,8.32
10.9076,-0.07505,-0.01745,1.55334,0.00000,0.00000,0.00000,66,15,12,13,67,1,54,-12,ok,2,0,0.003,11,-0.02,-0.44,10.43,62,0.101,8.32
10.9201,-0.07505,-0.01745,1.55334,0.00000,0.00000,0.00000,66,16,12,13,68,2,51,-12,ok,2,0,0.003,11,-0.02,-0.44,10.43,62,0.114,8.32
10.9428,-0.07505,-0.01745,1.55334,0.00000,0.00000,0.00000,67,17,13,12,68,2,48,-11,ok,2,0,0.003,11,-0.02,-0.44,10.43,62,0.126,8.32
10.9459,-0.07505,-0.01745,1.55334,0.00000,0.00000,0.00000,67,18,15,11,68,3,46,-10,ok,2,0,0.003,11,-0.02,-0.44,10.43,62,0.139,8.32
10.9586,-0.07505,-0.01745,1.55334,0.00000,0.00000,0.00000,67,18,15,11,68,3,42,-9,ok,2,0,0.003,11,-0.02,-0.44,10.43,62,0.152,8.32
10.9788,-0.07505,-0.01745,1.55334,0.00000,0.00000,0.00000,68,19,17,9,69,4,40,-8,ok,2,0,0.003,11,-0.02,-0.44,10.43,62,0.165,8.32
10.9836,-0.07505,-0.01745,1.55334,0.00000,0.00000,0.00000,68,20,17,9,69,5,36,-6,ok,2,0,0.003,11,-0.02,-0.44,10.43,62,0.177,8.32
10.9961,-0.07505,-0.01745,1.55334,0.00000,0.00000,0.00000,69,21,19,8,70,5,35,-5,ok,2,0,0.003,11,-0.02,-0.44,10.43,62,0.190,8.32
11.0188,0.09774,-0.01920,1.59349,0.00000,0.00000,0.00000,69,22,21,7,70,7,32,-3,ok,2,0,0.003,11,-1.56,0.31,10.55,63,0.000,8.32
11.0221,0.09774,-0.01920,1.59349,0.00000,0.00000,0.00000,68,23,22,7,70,8,30,-1,ok,2,0,0.003,11,-1.56,0.31,10.55,63,0.013,8.32
11.0346,0.09774,-0.01920,1.59349,0.00000,0.00000,0.00000,68,24,23,6,70,9,29,2,ok,2,0,0.003,11,-1.56,0.31,10.55,63,0.026,8.32
11.0548,0.09774,-0.01920,1.59349,0.00000,0.00000,0.00000,67,25,25,5,71,10,28,5,ok,2,0,0.003,11,-1.56,0.31,10.55,63,0.039,8.32
11.0596,0.09774,-0.01920,1.59349,0.00000,0.00000,0.00000,67,28,26,5,71,11,27,7,ok,2,0,0.003,11,-1.56,0.31,10.55,63,0.051,8.32
11.0722,0.09774,-0.01920,1.59349,0.00000,0.00000,0.00000,66,29,27,4,70,13,29,6,ok,2,0,0.003,11,-1.56,0.31,10.55,63,0.064,8.32
11.0948,0.09774,-0.01920,1.59349,0.00000,0.00000,0.00000,67,28,28,4,71,14,30,6,ok,2,0,0.003,11,-1.56,0.31,10.55,63,0.076,8.32
11.0980,0.09774,-0.01920,1.59349,0.00000,0.00000,0.00000,70,25,29,3,71,15,31,4,ok,2,0,0.003,11,-1.56,0.31,10.55,63,0.089,8.32
11.1107,0.09774,-0.01920,1.59349,0.00000,0.00000,0.00000,72,21,30,3,70,16,32,3,ok,2,0,0.003,11,-1.56,0.31,10.55,63,0.102,8.32
11.1308,0.09774,-0.01920,1.59349,0.00000,0.00000,0.00000,73,17,32,2,70,18,34,3,ok,2,0,0.003,11,-1.56,0.31,10.55,63,0.115,8.32
11.1357,0.09774,-0.01920,1.59349,0.00000,0.00000,0.00000,74,15,33,3,71,19,35,2,ok,2,0,0.003,11,-1.56,0.31,10.55,63,0.127,8.32
11.1481,0.09774,-0.01920,1.59349,0.00000,0.00000,0.00000,73,14,35,2,70,21,37,2,ok,2,0,0.003,11,-1.56,0.31,10.55,63,0.140,8.32
11.1709,0.09774,-0.01920,1.59349,0.00000,0.00000,0.00000,73,11,36,2,70,22,39,1,ok,2,0,0.003,11,-1.56,0.31,10.55,63,0.152,8.32
11.1739,0.09774,-0.01920,1.59349,0.00000,0.00000,0.00000,73,7,38,3,70,24,40,2,ok,2,0,0.003,11,-1.56,0.31,10.55,63,0.165,8.32
11.1868,0.09774,-0.01920,1.59349,0.00000,0.00000,0.00000,72,5,39,3,70,26,41,2,ok,2,0,0.003,11,-1.56,0.31,10.55,63,0.178,8.32
11.2068,0.09774,-0.01920,1.59349,0.00000,0.00000,0.00000,71,1,40,2,69,28,43,2,ok,2,0,0.003,11,-1.56,0.31,10.55,63,0.191,8.32
11.2119,0.05236,0.01222,1.64410,0.00000,0.00000,0.00000,70,-1,41,2,69,29,44,2,ok,2,0,0.003,11,1.05,0.22,10.11,64,0.000,8.32
11.2241,0.05236,0.01222,1.64410,0.00000,0.00000,0.00000,69,-3,43,2,70,29,45,1,ok,2,0,0.003,11,1.05,0.22,10.11,64,0.013,8.32
11.2468,0.05236,0.01222,1.64410,0.00000,0.00000,0.00000,66,-4,43,2,71,29,46,1,ok,2,0,0.003,11,1.05,0.22,10.11,64,0.025,8.32
11.2500,0.05236,0.01222,1.64410,0.00000,0.00000,0.00000,65,-6,45,3,73,27,47,1,ok,2,0,0.003,11,1.05,0.22,10.11,64,0.038,8.32
11.2626,0.05236,0.01222,1.64410,0.00000,0.00000,0.00000,65,-8,46,3,75,22,48,1,ok,2,0,0.003,11,1.05,0.22,10.11,64,0.051,8.32
11.2828,0.05236,0.01222,1.64410,0.00000,0.00000,0.00000,62,-9,47,4,76,17,49,1,ok,2,0,0.003,11,1.05,0.22,10.11,64,0.064,8.32
11.2876,0.05236,0.01222,1.64410,0.00000,0.00000,0.00000,60,-10,49,3,78,15,50,1,ok,2,0,0.003,11,1.05,0.22,10.11,64,0.076,8.32
11.3001,0.05236,0.01222,1.64410,0.00000,0.00000,0.00000,58,-10,49,3,78,14,51,1,ok,2,0,0.003,11,1.05,0.22,10.11,64,0.089,8.32
11.3228,0.05236,0.01222,1.64410,0.00000,0.00000,0.00000,55,-11,49,5,78,12,52,1,ok,2,0,0.003,11,1.05,0.22,10.11,64,0.101,8.32
11.3259,0.05236,0.01222,1.64410,0.00000,0.00000,0.00000,53,-11,51,6,78,8,53,1,ok,2,0,0.003,11,1.05,0.22,10.11,64,0.114,8.32
11.3385,0.05236,0.01222,1.64410,0.00000,0.00000,0.00000,50,-11,52,6,78,5,54,1,ok,2,0,0.003,11,1.05,0.22,10.11,64,0.127,8.32
11.3588,0.05236,0.01222,1.64410,0.00000,0.00000,0.00000,48,-11,53,7,77,3,55,0,ok,2,0,0.003,11,1.05,0.22,10.11,64,0.140,8.32
11.3638,0.05236,0.01222,1.64410,0.00000,0.00000,0.00000,45,-11,53,7,76,0,55,1,ok,2,0,0.003,11,1.05,0.22,10.11,64,0.152,8.32
11.3761,0.05236,0.01222,1.64410,0.00000,0.00000,0.00000,43,-11,55,8,75,-3,56,0,ok,2,0,0.003,11,1.05,0.22,10.11,64,0.165,8.32
11.3988,0.05236,0.01222,1.64410,0.00000,0.00000,0.00000,41,-10,55,8,74,-4,57,1,ok,2,0,0.003,11,1.05,0.22,10.11,64,0.177,8.32
11.4020,0.05236,0.01222,1.64410,0.00000,0.00000,0.00000,37,-9,56,8,73,-7,58,0,ok,2,0,0.003,11,1.05,0.22,10.11,64,0.190,8.32
11.4149,0.09425,-0.03491,1.63886,0.00000,0.00000,0.00000,35,-8,57,9,70,-6,58,0,ok,2,0,0.003,11,-0.67,0.56,8.69,65,0.000,8.32
11.4348,0.09425,-0.03491,1.63886,0.00000,0.00000,0.00000,31,-6,57,9,69,-9,59,0,ok,2,0,0.003,11,-0.67,0.56,8.69,65,0.013,8.32
11.4396,0.09425,-0.03491,1.63886,0.00000,0.00000,0.00000,29,-4,58,10,68,-10,60,1,ok,2,0,0.003,11,-0.67,0.56,8.69,65,0.025,8.32
11.4521,0.09425,-0.03491,1.63886,0.00000,0.00000,0.00000,24,-2,60,11,65,-11,61,0,ok,2,0,0.003,11,-0.67,0.56,8.69,65,0.038,8.32
11.4748,0.09425,-0.03491,1.63886,0.00000,0.00000,0.00000,23,-1,61,11,63,-12,62,0,ok,2,0,0.003,11,-0.67,0.56,8.69,65,0.050,8.32
11.4779,0.09425,-0.03491,1.63886,0.00000,0.00000,0.00000,21,1,61,12,62,-12,64,-2,ok,2,0,0.003,11,-0.67,0.56,8.69,65,0.063,8.32
11.4905,0.09425,-0.03491,1.63886,0.00000,0.00000,0.00000,19,3,62,13,59,-13,64,-1,ok,2,0,0.003,11,-0.67,0.56,8.69,65,0.076,8.32
11.5108,0.09425,-0.03491,1.63886,0.00000,0.00000,0.00000,16,7,62,13,57,-14,65,-1,ok,2,0,0.003,11,-0.67,0.56,8.69,65,0.089,8.32
11.5156,0.09425,-0.03491,1.63886,0.00000,0.00000,0.00000,15,10,62,15,54,-13,66,0,ok,2,0,0.003,11,-0.67,0.56,8.69,65,0.101,8.32
11.5280,0.09425,-0.03491,1.63886,0.00000,0.00000,0.00000,13,13,63,15,51,-12,66,-1,ok,2,0,0.003,11,-0.67,0.56,8.69,65,0.114,8.32
11.5508,0.09425,-0.03491,1.63886,0.00000,0.00000,0.00000,15,13,63,16,49,-12,67,0,ok,2,0,0.003,11,-0.67,0.56,8.69,65,0.126,8.32
11.5541,0.09425,-0.03491,1.63886,0.00000,0.00000,0.00000,15,13,63,17,46,-11,68,0,ok,2,0,0.003,11,-0.67,0.56,8.69,65,0.139,8.32
11.5667,0.09425,-0.03491,1.63886,0.00000,0.00000,0.00000,16,12,64,18,43,-11,69,1,ok,2,0,0.003,11,-0.67,0.56,8.69,65,0.152,8.32
11.5868,0.09425,-0.03491,1.63886,0.00000,0.00000,0.00000,18,12,64,19,40,-9,70,1,ok,2,0,0.003,11,-0.67,0.56,8.69,65,0.165,8.32
11.5916,0.09425,-0.03491,1.63886,0.00000,0.00000,0.00000,18,11,65,19,37,-9,70,2,ok,2,0,0.003,11,-0.67,0.56,8.69,65,0.177,8.32
11.6041,0.09425,-0.03491,1.63886,0.00000,0.00000,0.00000,20,10,65,20,34,-7,70,3,ok,2,0,0.003,11,-0.67,0.56,8.69,65,0.190,8.32
11.6268,0.02967,-0.03665,1.67552,0.00000,0.00000,0.00000,21,10,65,21,32,-6,71,3,ok,2,0,0.003,11,-0.54,-0.72,8.48,66,0.000,8.32
11.6299,0.02967,-0.03665,1.67552,0.00000,0.00000,0.00000,23,9,65,22,31,-5,72,5,ok,2,0,0.003,11,-0.54,-0.72,8.48,66,0.013,8.32
11.6426,0.02967,-0.03665,1.67552,0.00000,0.00000,0.00000,24,8,65,23,28,-1,72,5,ok,2,0,0.003,11,-0.54,-0.72,8.48,66,0.026,8.32
11.6628,0.02967,-0.03665,1.67552,0.00000,0.00000,0.00000,26,7,65,24,27,1,72,7,ok,2,0,0.003,11,-0.54,-0.72,8.48,66,0.039,8.32
11.6676,0.02967,-0.03665,1.67552,0.00000,0.00000,0.00000,27,6,65,25,26,4,72,8,ok,2,0,0.003,11,-0.54,-0.72,8.48,66,0.051,8.32
11.6801,0.02967,-0.03665,1.67552,0.00000,0.00000,0.00000,28,6,64,25,25,7,73,9,ok,2,0,0.003,11,-0.54,-0.72,8.48,66,0.064,8.32
11.7028,0.02967,-0.03665,1.67552,0.00000,0.00000,0.00000,29,5,64,28,27,6,73,10,ok,2,0,0.003,11,-0.54,-0.72,8.48,66,0.076,8.32
11.7063,0.02967,-0.03665,1.67552,0.00000,0.00000,0.00000,30,4,63,30,27,6,73,12,ok,2,0,0.003,11,-0.54,-0.72,8.48,66,0.089,8.32
11.7186,0.02967,-0.03665,1.67552,0.00000,0.00000,0.00000,31,4,65,28,29,4,73,13,ok,2,0,0.003,12,-0.54,-0.72,8.48,66,0.102,8.32
11.7388,0.02967,-0.03665,1.67552,0.00000,0.00000,0.00000,33,3,67,25,30,3,74,15,ok,2,0,0.003,12,-0.54,-0.72,8.48,66,0.115,8.32
11.7436,0.02967,-0.03665,1.67552,0.00000,0.00000,0.00000,34,3,70,22,31,3,74,16,ok,2,0,0.003,12,-0.54,-0.72,8.48,66,0.127,8.32
11.7563,0.02967,-0.03665,1.67552,0.00000,0.00000,0.00000,35,2,71,18,32,3,73,18,ok,2,0,0.003,12,-0.54,-0.72,8.48,66,0.140,8.32
11.7788,0.02967,-0.03665,1.67552,0.00000,0.00000,0.00000,37,2,71,16,33,1,73,20,ok,2,0,0.003,12,-0.54,-0.72,8.48,66,0.152,8.32
11.7819,0.02967,-0.03665,1.67552,0.00000,0.00000,0.00000,38,1,71,15,36,2,74,20,ok,2,0,0.003,12,-0.54,-0.72,8.48,66,0.165,8.32
11.7946,0.02967,-0.03665,1.67552,0.00000,0.00000,0.00000,39,1,71,12,36,2,73,23,ok,2,0,0.003,12,-0.54,-0.72,8.48,66,0.178,8.32
11.8148,0.02967,-0.03665,1.67552,0.00000,0.00000,0.00000,41,1,71,9,38,2,73,24,ok,2,0,0.003,12,-0.54,-0.72,8.48,66,0.191,8.32
11.8198,-0.00698,0.01745,1.62141,0.00000,0.00000,0.00000,42,1,70,6,39,1,73,25,ok,2,0,0.003,12,-0.30,0.23,10.46,67,0.000,8.32
11.8320,-0.00698,0.01745,1.62141,0.00000,0.00000,0.00000,44,0,69,4,40,2,73,27,ok,2,0,0.003,12,-0.30,0.23,10.46,67,0.013,8.32
11.8548,-0.00698,0.01745,1.62141,0.00000,0.00000,0.00000,45,0,68,2,41,1,73,28,ok,2,0,0.003,12,-0.30,0.23,10.46,67,0.025,8.32
11.8579,-0.00698,0.01745,1.62141,0.00000,0.00000,0.00000,47,0,67,0,43,1,72,29,ok,2,0,0.003,12,-0.30,0.23,10.46,67,0.038,8.32
11.8707,-0.00698,0.01745,1.62141,0.00000,0.00000,0.00000,47,0,65,-1,44,0,73,29,ok,2,0,0.003,12,-0.30,0.23,10.46,67,0.051,8.32
11.8908,-0.00698,0.01745,1.62141,0.00000,0.00000,0.00000,48,1,64,-3,45,0,74,29,ok,2,0,0.003,12,-0.30,0.23,10.46,67,0.064,8.32
11.8958,-0.00698,0.01745,1.62141,0.00000,0.00000,0.00000,50,0,63,-5,46,0,76,27,ok,2,0,0.003,12,-0.30,0.23,10.46,67,0.076,8.32
11.9081,-0.00698,0.01745,1.62141,0.00000,0.00000,0.00000,51,2,61,-6,47,0,78,21,ok,2,0,0.003,12,-0.30,0.23,10.46,67,0.089,8.32
11.9308,-0.00698,0.01745,1.62141,0.00000,0.00000,0.00000,52,1,58,-8,48,0,80,17,ok,2,0,0.003,12,-0.30,0.23,10.46,67,0.101,8.32
11.9341,-0.00698,0.01745,1.62141,0.00000,0.00000,0.00000,52,1,56,-8,49,1,81,14,ok,2,0,0.003,12,-0.30,0.23,10.46,67,0.114,8.32
11.9466,-0.00698,0.01745,1.62141,0.00000,0.00000,0.00000,52,3,53,-9,51,1,81,14,ok,2,0,0.003,12,-0.30,0.23,10.46,67,0.127,8.32
11.9668,-0.00698,0.01745,1.62141,0.00000,0.00000,0.00000,53,4,51,-9,52,1,81,11,ok,2,0,0.003,12,-0.30,0.23,10.46,67,0.140,8.32
11.9717,-0.00698,0.01745,1.62141,0.00000,0.00000,0.00000,54,4,48,-9,53,1,81,7,ok,2,0,0.003,12,-0.30,0.23,10.46,67,0.152,8.32
11.9841,-0.00698,0.01745,1.62141,0.00000,0.00000,0.00000,55,5,45,-8,54,2,81,4,ok,2,0,0.003,12,-0.30,0.23,10.46,67,0.165,8.32
12.0068,-0.00698,0.01745,1.62141,0.00000,0.00000,0.00000,55,6,43,-8,55,1,80,3,ok,2,0,0.003,12,-0.30,0.23,10.46,67,0.177,8.32
12.0101,-0.00698,0.01745,1.62141,0.00000,0.00000,0.00000,57,6,40,-9,56,2,79,-1,ok,2,0,0.003,12,-0.30,0.23,10.46,67,0.190,8.32
12.0229,-0.16057,0.02094,1.75406,0.00000,0.00000,0.00000,58,6,38,-8,57,1,79,-3,ok,2,0,0.003,12,-0.91,-1.82,9.63,68,0.000,8.32
12.0428,-0.16057,0.02094,1.75406,0.00000,0.00000,0.00000,59,7,35,-6,57,1,77,-4,ok,2,0,0.003,12,-0.91,-1.82,9.63,68,0.013,8.32
12.0476,-0.16057,0.02094,1.75406,0.00000,0.00000,0.00000,60,8,32,-5,58,2,75,-6,ok,2,0,0.003,12,-0.91,-1.82,9.63,68,0.025,8.32
12.0601,-0.16057,0.02094,1.75406,0.00000,0.00000,0.00000,61,8,28,-4,59,2,73,-6,ok,2,0,0.003,12,-0.91,-1.82,9.63,68,0.038,8.32
12.0828,-0.16057,0.02094,1.75406,0.00000,0.00000,0.00000,61,8,25,-3,60,2,72,-8,ok,2,0,0.003,12,-0.91,-1.82,9.63,68,0.050,8.32
12.0861,-0.16057,0.02094,1.75406,0.00000,0.00000,0.00000,63,10,21,-1,61,1,70,-10,ok,2,0,0.003,12,-0.91,-1.82,9.63,68,0.063,8.32
12.0987,-0.16057,0.02094,1.75406,0.00000,0.00000,0.00000,63,10,19,1,63,-1,68,-11,ok,2,0,0.003,12,-0.91,-1.82,9.63,68,0.076,8.32
12.1188,-0.16057,0.02094,1.75406,0.00000,0.00000,0.00000,64,11,18,2,64,0,66,-12,ok,2,0,0.003,12,-0.91,-1.82,9.63,68,0.089,8.32
12.1236,-0.16057,0.02094,1.75406,0.00000,0.00000,0.00000,64,11,16,4,64,1,64,-13,ok,2,0,0.003,12,-0.91,-1.82,9.63,68,0.101,8.32
12.1363,-0.16057,0.02094,1.75406,0.00000,0.00000,0.00000,65,12,14,7,65,1,61,-13,ok,2,0,0.003,12,-0.91,-1.82,9.63,68,0.114,8.32
12.1588,-0.16057,0.02094,1.75406,0.00000,0.00000,0.00000,64,13,12,11,66,1,59,-14,ok,2,0,0.003,12,-0.91,-1.82,9.63,68,0.126,8.32
12.1620,-0.16057,0.02094,1.75406,0.00000,0.00000,0.00000,65,14,10,13,67,1,56,-12,ok,2,0,0.004,12,-0.91,-1.82,9.63,68,0.139,8.32
12.1747,-0.16057,0.02094,1.75406,0.00000,0.00000,0.00000,65,15,12,13,67,1,53,-12,ok,2,0,0.004,12,-0.91,-1.82,9.63,68,0.152,8.32
12.1948,-0.16057,0.02094,1.75406,0.00000,0.00000,0.00000,66,16,12,13,68,2,51,-11,ok,2,0,0.004,12,-0.91,-1.82,9.63,68,0.165,8.32
12.1996,-0.16057,0.02094,1.75406,0.00000,0.00000,0.00000,67,16,13,12,68,2,48,-10,ok,2,0,0.004,12,-0.91,-1.82,9.63,68,0.177,8.32
12.2122,-0.16057,0.02094,1.75406,0.00000,0.00000,0.00000,67,17,15,11,69,3,45,-10,ok,2,0,0.004,12,-0.91,-1.82,9.63,68,0.190,8.32
12.2348,0.01396,-0.01571,1.77849,0.00000,0.00000,0.00000,67,18,15,11,69,3,42,-8,ok,2,0,0.004,12,-0.16,0.40,9.03,69,0.000,8.32
12.2379,0.01396,-0.01571,1.77849,0.00000,0.00000,0.00000,68,18,17,9,69,4,40,-8,ok,2,0,0.004,12,-0.16,0.40,9.03,69,0.013,8.32
12.2508,0.01396,-0.01571,1.77849,0.00000,0.00000,0.00000,68,20,18,9,69,6,36,-7,ok,2,0,0.004,12,-0.16,0.40,9.03,69,0.026,8.32
