# run_gait log  cmd_fwd=0.100 hz=80.0 fw_balance=off policy_yaw_sign=-1
t,roll,pitch,yaw,gx,gy,gz,j0,j1,j2,j3,j4,j5,j6,j7,guard_state,hottest_j,hottest_tier,hottest_frac,duty_s,ax,ay,az,imu_n,imu_age_s,volt
0.0309,0.02269,0.02094,0.00000,0.00000,0.00000,0.00000,21,-1,59,7,66,-12,61,0,ok,4,0,0.000,0,0.21,0.25,9.99,8,0.021,nan
0.0344,0.02269,0.02094,0.00000,0.00000,0.00000,0.00000,19,0,61,8,64,-12,63,-2,ok,4,0,0.000,0,0.21,0.25,9.99,8,0.043,nan
0.0473,0.02269,0.02094,0.00000,0.00000,0.00000,0.00000,17,2,61,9,61,-13,64,0,ok,4,0,0.000,0,0.21,0.25,9.99,8,0.055,8.21
0.0669,0.02269,0.02094,0.00000,0.00000,0.00000,0.00000,15,6,62,9,59,-13,64,0,ok,4,0,0.000,0,0.21,0.25,9.99,8,0.068,8.21
0.0720,0.02269,0.02094,0.00000,0.00000,0.00000,0.00000,13,9,62,11,56,-12,65,1,ok,4,0,0.000,0,0.21,0.25,9.99,8,0.080,8.21
0.0845,0.01396,0.01920,0.00000,0.00000,0.00000,0.00000,11,11,63,11,53,-12,65,1,ok,4,0,0.000,0,0.20,0.12,9.96,9,0.000,8.21
0.1069,0.01396,0.01920,0.00000,0.00000,0.00000,0.00000,13,12,63,12,51,-12,66,2,ok,4,0,0.000,0,0.20,0.12,9.96,9,0.013,8.21
0.1101,0.01396,0.01920,0.00000,0.00000,0.00000,0.00000,13,11,63,13,48,-12,66,2,ok,4,0,0.000,0,0.20,0.12,9.96,9,0.026,8.21
0.1227,0.01396,0.01920,0.00000,0.00000,0.00000,0.00000,14,10,64,14,45,-12,66,3,ok,4,0,0.000,0,0.20,0.12,9.96,9,0.038,8.21
0.1429,0.01396,0.01920,0.00000,0.00000,0.00000,0.00000,15,9,64,15,42,-10,67,3,ok,4,0,0.000,0,0.20,0.12,9.96,9,0.051,8.21
0.1477,0.01396,0.01920,0.00000,0.00000,0.00000,0.00000,16,9,65,15,39,-10,68,4,ok,4,0,0.000,0,0.20,0.12,9.96,9,0.063,8.21
0.1602,0.01396,0.01920,0.00000,0.00000,0.00000,0.00000,18,8,65,16,36,-8,68,4,ok,4,0,0.000,0,0.20,0.12,9.96,9,0.076,8.21
0.1829,0.01396,0.01920,0.00000,0.00000,0.00000,0.00000,19,7,65,17,34,-7,69,5,ok,4,0,0.000,0,0.20,0.12,9.96,9,0.088,8.21
0.1859,0.01396,0.01920,0.00000,0.00000,0.00000,0.00000,21,6,66,18,32,-5,69,6,ok,4,0,0.000,0,0.20,0.12,9.96,9,0.102,8.21
0.1985,0.01396,0.01920,0.00000,0.00000,0.00000,0.00000,22,5,66,19,30,-2,70,6,ok,4,0,0.000,0,0.20,0.12,9.96,9,0.114,8.21
0.2188,0.01396,0.01920,0.00000,0.00000,0.00000,0.00000,23,5,66,21,28,0,70,8,ok,4,0,0.000,0,0.20,0.12,9.96,9,0.127,8.21
0.2238,0.01396,0.01920,0.00000,0.00000,0.00000,0.00000,24,5,66,22,27,4,70,9,ok,4,0,0.000,0,0.20,0.12,9.96,9,0.139,8.21
0.2360,0.01396,0.01920,0.00000,0.00000,0.00000,0.00000,26,4,65,23,27,6,71,9,ok,4,0,0.000,0,0.20,0.12,9.96,9,0.152,8.21
0.2589,0.01396,0.01920,0.00000,0.00000,0.00000,0.00000,27,4,65,26,29,6,71,10,ok,4,0,0.000,0,0.20,0.12,9.96,9,0.164,8.21
0.2619,0.01396,0.01920,0.00000,0.00000,0.00000,0.00000,28,3,64,28,29,6,72,11,ok,4,0,0.000,0,0.20,0.12,9.96,9,0.178,8.21
0.2749,-0.08727,-0.11694,0.01920,0.00000,0.00000,0.00000,29,3,66,26,30,4,72,12,ok,4,0,0.000,0,-0.31,-1.49,9.55,10,0.000,8.21
0.2949,-0.08727,-0.11694,0.01920,0.00000,0.00000,0.00000,30,2,69,24,31,3,73,13,ok,4,0,0.000,0,-0.31,-1.49,9.55,10,0.013,8.21
0.2996,-0.08727,-0.11694,0.01920,0.00000,0.00000,0.00000,31,1,72,21,32,3,73,14,ok,4,0,0.000,0,-0.31,-1.49,9.55,10,0.025,8.21
0.3120,-0.08727,-0.11694,0.01920,0.00000,0.00000,0.00000,33,0,73,17,33,2,73,16,ok,4,0,0.000,0,-0.31,-1.49,9.55,10,0.038,8.21
0.3350,-0.08727,-0.11694,0.01920,0.00000,0.00000,0.00000,34,0,73,15,35,1,73,18,ok,4,0,0.000,0,-0.31,-1.49,9.55,10,0.050,8.21
0.3393,-0.08727,-0.11694,0.01920,0.00000,0.00000,0.00000,34,-1,74,15,37,2,74,19,ok,4,0,0.000,0,-0.31,-1.49,9.55,10,0.064,8.21
0.3518,-0.08727,-0.11694,0.01920,0.00000,0.00000,0.00000,36,-1,74,12,37,2,73,21,ok,4,0,0.000,0,-0.31,-1.49,9.55,10,0.076,8.21
0.3750,-0.08727,-0.11694,0.01920,0.00000,0.00000,0.00000,37,-1,73,9,39,2,73,22,ok,4,0,0.000,0,-0.31,-1.49,9.55,10,0.089,8.21
0.3791,-0.08727,-0.11694,0.01920,0.00000,0.00000,0.00000,38,-1,73,6,40,1,73,23,ok,4,0,0.000,0,-0.31,-1.49,9.55,10,0.104,8.21
0.3919,-0.08727,-0.11694,0.01920,0.00000,0.00000,0.00000,39,-2,72,4,41,1,72,25,ok,4,0,0.000,0,-0.31,-1.49,9.55,10,0.116,8.21
0.4150,-0.08727,-0.11694,0.01920,0.00000,0.00000,0.00000,40,-2,71,2,42,0,72,26,ok,4,0,0.000,0,-0.31,-1.49,9.55,10,0.129,8.21
0.4191,-0.08727,-0.11694,0.01920,0.00000,0.00000,0.00000,42,-2,70,0,43,-1,71,28,ok,4,0,0.000,0,-0.31,-1.49,9.55,10,0.144,8.21
0.4308,-0.08727,-0.11694,0.01920,0.00000,0.00000,0.00000,42,-2,67,-2,44,-2,72,28,ok,4,0,0.000,0,-0.31,-1.49,9.55,10,0.156,8.21
0.4509,-0.08727,-0.11694,0.01920,0.00000,0.00000,0.00000,44,-1,66,-4,46,-2,73,28,ok,4,0,0.000,0,-0.31,-1.49,9.55,10,0.169,8.21
0.4560,-0.08727,-0.11694,0.01920,0.00000,0.00000,0.00000,45,-1,65,-6,47,-2,75,25,ok,4,0,0.000,0,-0.31,-1.49,9.55,10,0.181,8.21
0.4684,-0.08727,-0.11694,0.01920,0.00000,0.00000,0.00000,47,0,63,-7,48,-2,76,20,ok,4,0,0.000,0,-0.31,-1.49,9.55,10,0.194,8.21
0.4909,-0.07505,0.01047,0.04538,0.00000,0.00000,0.00000,48,0,61,-8,49,-2,77,17,ok,4,0,0.000,0,0.53,0.58,11.46,11,0.000,8.21
0.4939,-0.07505,0.01047,0.04538,0.00000,0.00000,0.00000,49,1,58,-9,50,-1,79,14,ok,4,0,0.000,0,0.53,0.58,11.46,11,0.013,8.21
0.5068,-0.07505,0.01047,0.04538,0.00000,0.00000,0.00000,49,3,55,-10,52,-1,79,13,ok,4,0,0.000,0,0.53,0.58,11.46,11,0.026,8.21
0.5268,-0.07505,0.01047,0.04538,0.00000,0.00000,0.00000,51,4,52,-10,54,0,79,11,ok,4,0,0.000,1,0.53,0.58,11.46,11,0.038,8.21
0.5316,-0.07505,0.01047,0.04538,0.00000,0.00000,0.00000,51,4,49,-10,55,0,79,7,ok,4,0,0.000,1,0.53,0.58,11.46,11,0.051,8.21
0.5440,-0.07505,0.01047,0.04538,0.00000,0.00000,0.00000,53,5,46,-10,56,0,78,4,ok,4,0,0.000,1,0.53,0.58,11.46,11,0.063,8.21
0.5669,-0.07505,0.01047,0.04538,0.00000,0.00000,0.00000,53,6,43,-10,57,0,78,2,ok,4,0,0.000,1,0.53,0.58,11.46,11,0.076,8.21
0.5699,-0.07505,0.01047,0.04538,0.00000,0.00000,0.00000,55,6,41,-11,58,1,77,-1,ok,4,0,0.000,1,0.53,0.58,11.46,11,0.089,8.21
0.5827,-0.07505,0.01047,0.04538,0.00000,0.00000,0.00000,55,6,39,-10,59,0,77,-3,ok,4,0,0.000,1,0.53,0.58,11.46,11,0.102,8.21
0.6029,-0.07505,0.01047,0.04538,0.00000,0.00000,0.00000,57,6,36,-8,59,1,76,-4,ok,4,0,0.000,1,0.53,0.58,11.46,11,0.114,8.21
0.6076,-0.07505,0.01047,0.04538,0.00000,0.00000,0.00000,57,7,33,-7,60,2,74,-6,ok,4,0,0.000,1,0.53,0.58,11.46,11,0.127,8.21
0.6202,-0.07505,0.01047,0.04538,0.00000,0.00000,0.00000,58,7,29,-6,60,1,72,-7,ok,2,0,0.000,1,0.53,0.58,11.46,11,0.139,8.21
0.6429,-0.07505,0.01047,0.04538,0.00000,0.00000,0.00000,59,8,27,-4,61,1,70,-8,ok,2,0,0.000,1,0.53,0.58,11.46,11,0.152,8.21
0.6459,-0.07505,0.01047,0.04538,0.00000,0.00000,0.00000,60,10,22,-2,62,1,69,-10,ok,2,0,0.000,1,0.53,0.58,11.46,11,0.165,8.21
0.6585,-0.07505,0.01047,0.04538,0.00000,0.00000,0.00000,60,10,20,-1,64,-1,67,-11,ok,2,0,0.000,1,0.53,0.58,11.46,11,0.178,8.21
0.6789,-0.07505,0.01047,0.04538,0.00000,0.00000,0.00000,61,10,19,0,65,0,65,-13,ok,2,0,0.000,1,0.53,0.58,11.46,11,0.190,8.21
0.6838,-0.00524,0.01920,0.08727,0.00000,0.00000,0.00000,61,11,17,3,66,1,63,-13,ok,2,0,0.000,1,0.38,0.37,9.78,12,0.000,8.21
0.6960,-0.00524,0.01920,0.08727,0.00000,0.00000,0.00000,62,12,15,6,66,0,60,-14,ok,2,0,0.000,1,0.38,0.37,9.78,12,0.013,8.21
0.7189,-0.00524,0.01920,0.08727,0.00000,0.00000,0.00000,62,13,13,10,67,1,59,-15,ok,2,0,0.000,1,0.38,0.37,9.78,12,0.025,8.21
0.7219,-0.00524,0.01920,0.08727,0.00000,0.00000,0.00000,62,14,12,12,68,1,55,-13,ok,2,0,0.000,1,0.38,0.37,9.78,12,0.038,8.21
0.7345,-0.00524,0.01920,0.08727,0.00000,0.00000,0.00000,63,15,13,13,68,1,53,-13,ok,2,0,0.000,1,0.38,0.37,9.78,12,0.051,8.21
0.7549,-0.00524,0.01920,0.08727,0.00000,0.00000,0.00000,63,16,13,13,69,1,50,-12,ok,2,0,0.000,1,0.38,0.37,9.78,12,0.064,8.21
0.7597,-0.00524,0.01920,0.08727,0.00000,0.00000,0.00000,64,17,14,11,69,1,47,-11,ok,2,0,0.000,1,0.38,0.37,9.78,12,0.076,8.21
0.7721,-0.00524,0.01920,0.08727,0.00000,0.00000,0.00000,64,18,15,10,70,2,45,-10,ok,2,0,0.000,1,0.38,0.37,9.78,12,0.089,8.21
0.7949,-0.00524,0.01920,0.08727,0.00000,0.00000,0.00000,65,18,16,10,70,3,41,-9,ok,2,0,0.000,1,0.38,0.37,9.78,12,0.101,8.21
0.7981,-0.00524,0.01920,0.08727,0.00000,0.00000,0.00000,66,19,17,8,70,3,39,-9,ok,2,0,0.000,1,0.38,0.37,9.78,12,0.114,8.21
0.8105,-0.00524,0.01920,0.08727,0.00000,0.00000,0.00000,66,20,18,8,70,5,35,-7,ok,2,0,0.000,1,0.38,0.37,9.78,12,0.127,8.21
0.8308,-0.00524,0.01920,0.08727,0.00000,0.00000,0.00000,67,21,20,7,71,5,34,-5,ok,2,0,0.000,1,0.38,0.37,9.78,12,0.140,8.21
0.8357,-0.00524,0.01920,0.08727,0.00000,0.00000,0.00000,67,22,21,6,71,6,32,-4,ok,2,0,0.000,1,0.38,0.37,9.78,12,0.152,8.21
0.8481,-0.00524,0.01920,0.08727,0.00000,0.00000,0.00000,66,23,22,6,71,7,30,-1,ok,2,0,0.000,1,0.38,0.37,9.78,12,0.165,8.21
0.8709,-0.00524,0.01920,0.08727,0.00000,0.00000,0.00000,66,24,23,5,72,8,29,2,ok,2,0,0.000,1,0.38,0.37,9.78,12,0.177,8.21
0.8740,-0.00524,0.01920,0.08727,0.00000,0.00000,0.00000,66,25,25,5,72,9,27,5,ok,2,0,0.000,1,0.38,0.37,9.78,12,0.190,8.21
0.8869,0.03491,-0.03840,0.11694,0.00000,0.00000,0.00000,65,28,26,4,72,10,27,7,ok,2,0,0.000,1,1.19,0.05,10.21,13,0.000,8.21
0.9068,0.03491,-0.03840,0.11694,0.00000,0.00000,0.00000,64,29,27,3,72,12,29,6,ok,2,0,0.000,1,1.19,0.05,10.21,13,0.013,8.21
0.9116,0.03491,-0.03840,0.11694,0.00000,0.00000,0.00000,66,28,29,3,72,13,29,5,ok,2,0,0.000,1,1.19,0.05,10.21,13,0.025,8.21
0.9241,0.03491,-0.03840,0.11694,0.00000,0.00000,0.00000,68,25,30,2,72,14,30,3,ok,2,0,0.000,1,1.19,0.05,10.21,13,0.038,8.21
0.9469,0.03491,-0.03840,0.11694,0.00000,0.00000,0.00000,70,21,31,2,72,15,32,3,ok,2,0,0.000,1,1.19,0.05,10.21,13,0.050,8.21
0.9500,0.03491,-0.03840,0.11694,0.00000,0.00000,0.00000,71,17,33,2,71,18,33,3,ok,2,0,0.000,1,1.19,0.05,10.21,13,0.063,8.21
0.9629,0.03491,-0.03840,0.11694,0.00000,0.00000,0.00000,71,15,34,2,72,18,34,2,ok,2,0,0.000,1,1.19,0.05,10.21,13,0.076,8.21
0.9828,0.03491,-0.03840,0.11694,0.00000,0.00000,0.00000,71,14,36,1,71,20,36,1,ok,2,0,0.000,1,1.19,0.05,10.21,13,0.089,8.21
0.9876,0.03491,-0.03840,0.11694,0.00000,0.00000,0.00000,71,11,37,1,71,22,38,1,ok,2,0,0.000,1,1.19,0.05,10.21,13,0.101,8.21
1.0001,0.03491,-0.03840,0.11694,0.00000,0.00000,0.00000,70,7,38,2,71,23,39,1,ok,2,0,0.000,1,1.19,0.05,10.21,13,0.114,8.21
1.0229,0.03491,-0.03840,0.11694,0.00000,0.00000,0.00000,69,5,39,2,71,25,40,1,ok,2,0,0.000,1,1.19,0.05,10.21,13,0.126,8.21
1.0261,0.03491,-0.03840,0.11694,0.00000,0.00000,0.00000,68,1,41,1,71,27,42,1,ok,2,0,0.000,1,1.19,0.05,10.21,13,0.139,8.21
1.0386,0.03491,-0.03840,0.11694,0.00000,0.00000,0.00000,67,-1,42,1,70,28,42,1,ok,2,0,0.000,1,1.19,0.05,10.21,13,0.152,8.21
1.0589,0.03491,-0.03840,0.11694,0.00000,0.00000,0.00000,66,-3,44,2,71,28,44,0,ok,2,0,0.000,1,1.19,0.05,10.21,13,0.165,8.21
1.0636,0.03491,-0.03840,0.11694,0.00000,0.00000,0.00000,64,-4,44,2,72,28,45,0,ok,2,0,0.000,1,1.19,0.05,10.21,13,0.177,8.21
1.0761,0.03491,-0.03840,0.11694,0.00000,0.00000,0.00000,63,-6,46,2,74,26,46,-1,ok,2,0,0.000,1,1.19,0.05,10.21,13,0.190,8.21
1.0989,0.10123,0.03491,0.19024,0.00000,0.00000,0.00000,62,-8,47,2,76,21,47,-1,ok,2,0,0.000,1,0.57,1.43,9.79,14,0.000,8.21
1.1021,0.10123,0.03491,0.19024,0.00000,0.00000,0.00000,60,-9,48,3,77,17,48,0,ok,2,0,0.000,1,0.57,1.43,9.79,14,0.013,8.21
1.1146,0.10123,0.03491,0.19024,0.00000,0.00000,0.00000,57,-10,50,3,78,14,49,0,ok,2,0,0.000,1,0.57,1.43,9.79,14,0.026,8.21
1.1349,0.10123,0.03491,0.19024,0.00000,0.00000,0.00000,55,-11,50,2,79,14,50,0,ok,2,0,0.000,1,0.57,1.43,9.79,14,0.039,8.21
1.1396,0.10123,0.03491,0.19024,0.00000,0.00000,0.00000,53,-11,50,5,79,11,51,0,ok,2,0,0.000,1,0.57,1.43,9.79,14,0.051,8.21
1.1521,0.10123,0.03491,0.19024,0.00000,0.00000,0.00000,50,-11,52,5,79,8,52,0,ok,2,0,0.000,1,0.57,1.43,9.79,14,0.064,8.21
1.1749,0.10123,0.03491,0.19024,0.00000,0.00000,0.00000,48,-11,52,5,78,5,53,0,ok,2,0,0.000,1,0.57,1.43,9.79,14,0.076,8.21
1.1780,0.10123,0.03491,0.19024,0.00000,0.00000,0.00000,45,-10,53,6,77,2,54,0,ok,2,0,0.000,1,0.57,1.43,9.79,14,0.089,8.21
1.1908,0.10123,0.03491,0.19024,0.00000,0.00000,0.00000,43,-11,54,6,77,-1,54,0,ok,2,0,0.000,1,0.57,1.43,9.79,14,0.102,8.21
1.2109,0.10123,0.03491,0.19024,0.00000,0.00000,0.00000,41,-11,55,7,76,-3,55,-1,ok,2,0,0.000,1,0.57,1.43,9.79,14,0.115,8.21
1.2156,0.10123,0.03491,0.19024,0.00000,0.00000,0.00000,38,-10,56,7,75,-4,56,0,ok,2,0,0.000,1,0.57,1.43,9.79,14,0.127,8.21
1.2281,0.10123,0.03491,0.19024,0.00000,0.00000,0.00000,35,-9,57,7,74,-7,57,-1,ok,2,0,0.000,1,0.57,1.43,9.79,14,0.140,8.21
1.2509,0.10123,0.03491,0.19024,0.00000,0.00000,0.00000,33,-8,57,8,71,-7,57,0,ok,2,0,0.000,1,0.57,1.43,9.79,14,0.152,8.21
1.2539,0.10123,0.03491,0.19024,0.00000,0.00000,0.00000,29,-6,58,8,70,-9,58,0,ok,2,0,0.000,1,0.57,1.43,9.79,14,0.165,8.21
1.2668,0.10123,0.03491,0.19024,0.00000,0.00000,0.00000,26,-4,59,9,69,-11,59,0,ok,2,0,0.000,1,0.57,1.43,9.79,14,0.178,8.21
1.2869,0.10123,0.03491,0.19024,0.00000,0.00000,0.00000,22,-2,60,10,66,-12,60,0,ok,2,0,0.000,1,0.57,1.43,9.79,14,0.191,8.21
1.2919,0.07505,-0.04887,0.18326,0.00000,0.00000,0.00000,20,-1,61,11,64,-13,61,0,ok,2,0,0.000,1,-0.56,1.35,10.22,15,0.000,8.21
1.3041,0.07505,-0.04887,0.18326,0.00000,0.00000,0.00000,19,0,62,11,62,-13,63,-3,ok,2,0,0.000,1,-0.56,1.35,10.22,15,0.013,8.21
1.3269,0.07505,-0.04887,0.18326,0.00000,0.00000,0.00000,17,3,62,12,59,-14,64,-2,ok,2,0,0.000,1,-0.56,1.35,10.22,15,0.025,8.21
1.3300,0.07505,-0.04887,0.18326,0.00000,0.00000,0.00000,14,7,63,13,58,-15,64,-2,ok,2,0,0.000,1,-0.56,1.35,10.22,15,0.038,8.21
1.3426,0.07505,-0.04887,0.18326,0.00000,0.00000,0.00000,13,10,63,14,55,-14,65,-1,ok,2,0,0.000,1,-0.56,1.35,10.22,15,0.051,8.21
1.3629,0.07505,-0.04887,0.18326,0.00000,0.00000,0.00000,11,12,64,15,52,-13,66,-1,ok,2,0,0.000,1,-0.56,1.35,10.22,15,0.064,8.21
1.3676,0.07505,-0.04887,0.18326,0.00000,0.00000,0.00000,13,13,64,16,50,-13,67,-1,ok,2,0,0.000,1,-0.56,1.35,10.22,15,0.076,8.21
1.3801,0.07505,-0.04887,0.18326,0.00000,0.00000,0.00000,12,13,64,17,46,-12,67,-1,ok,2,0,0.000,1,-0.56,1.35,10.22,15,0.089,8.21
1.4029,0.07505,-0.04887,0.18326,0.00000,0.00000,0.00000,14,12,65,17,44,-12,68,0,ok,0,0,0.000,1,-0.56,1.35,10.22,15,0.101,8.21
1.4059,0.07505,-0.04887,0.18326,0.00000,0.00000,0.00000,15,12,65,18,41,-10,69,0,ok,0,0,0.000,1,-0.56,1.35,10.22,15,0.114,8.21
1.4185,0.07505,-0.04887,0.18326,0.00000,0.00000,0.00000,16,11,66,19,38,-10,69,1,ok,4,0,0.000,1,-0.56,1.35,10.22,15,0.127,8.21
1.4389,0.07505,-0.04887,0.18326,0.00000,0.00000,0.00000,18,10,66,19,35,-8,70,2,ok,4,0,0.000,1,-0.56,1.35,10.22,15,0.140,8.21
1.4438,0.07505,-0.04887,0.18326,0.00000,0.00000,0.00000,18,10,66,20,33,-7,70,3,ok,4,0,0.000,1,-0.56,1.35,10.22,15,0.152,8.21
1.4562,0.07505,-0.04887,0.18326,0.00000,0.00000,0.00000,21,9,66,21,31,-5,71,4,ok,4,0,0.000,1,-0.56,1.35,10.22,15,0.165,8.21
1.4789,0.07505,-0.04887,0.18326,0.00000,0.00000,0.00000,22,8,66,22,29,-2,72,4,ok,4,0,0.000,1,-0.56,1.35,10.22,15,0.177,8.21
1.4821,0.07505,-0.04887,0.18326,0.00000,0.00000,0.00000,23,7,66,23,28,0,72,6,ok,4,0,0.000,1,-0.56,1.35,10.22,15,0.190,8.21
1.4949,0.05585,-0.00873,0.18850,0.00000,0.00000,0.00000,24,6,66,24,27,3,72,7,ok,4,0,0.000,1,1.01,1.23,10.22,16,0.000,8.21
1.5149,0.05585,-0.00873,0.18850,0.00000,0.00000,0.00000,26,6,65,25,26,6,72,8,ok,4,0,0.000,1,1.01,1.23,10.22,16,0.013,8.21
1.5198,0.05585,-0.00873,0.18850,0.00000,0.00000,0.00000,27,6,64,28,28,5,72,9,ok,4,0,0.000,1,1.01,1.23,10.22,16,0.025,8.21
1.5321,0.05585,-0.00873,0.18850,0.00000,0.00000,0.00000,28,5,64,29,28,5,72,11,ok,4,0,0.000,1,1.01,1.23,10.22,16,0.038,8.21
1.5549,0.05585,-0.00873,0.18850,0.00000,0.00000,0.00000,29,4,65,27,30,3,72,12,ok,4,0,0.000,2,1.01,1.23,10.22,16,0.050,8.21
1.5579,0.05585,-0.00873,0.18850,0.00000,0.00000,0.00000,30,3,68,24,31,2,73,14,ok,4,0,0.000,2,1.01,1.23,10.22,16,0.063,8.21
1.5706,0.05585,-0.00873,0.18850,0.00000,0.00000,0.00000,32,3,70,21,32,2,73,15,ok,4,0,0.000,2,1.01,1.23,10.22,16,0.076,8.21
1.5909,0.05585,-0.00873,0.18850,0.00000,0.00000,0.00000,33,2,71,17,33,2,73,17,ok,4,0,0.000,2,1.01,1.23,10.22,16,0.089,8.21
1.5959,0.05585,-0.00873,0.18850,0.00000,0.00000,0.00000,34,2,71,15,34,1,73,19,ok,4,0,0.000,2,1.01,1.23,10.22,16,0.101,8.21
1.6084,0.05585,-0.00873,0.18850,0.00000,0.00000,0.00000,36,1,71,14,37,1,73,20,ok,4,0,0.000,2,1.01,1.23,10.22,16,0.114,8.21
1.6309,0.05585,-0.00873,0.18850,0.00000,0.00000,0.00000,37,1,71,11,37,1,72,22,ok,4,0,0.000,2,1.01,1.23,10.22,16,0.126,8.21
1.6341,0.05585,-0.00873,0.18850,0.00000,0.00000,0.00000,39,1,71,8,39,2,72,23,ok,4,0,0.000,2,1.01,1.23,10.22,16,0.139,8.21
1.6466,0.05585,-0.00873,0.18850,0.00000,0.00000,0.00000,40,1,70,5,40,1,73,24,ok,4,0,0.000,2,1.01,1.23,10.22,16,0.152,8.21
1.6668,0.05585,-0.00873,0.18850,0.00000,0.00000,0.00000,42,0,70,3,41,1,72,26,ok,4,0,0.000,2,1.01,1.23,10.22,16,0.165,8.21
1.6716,0.05585,-0.00873,0.18850,0.00000,0.00000,0.00000,43,0,69,1,42,1,72,27,ok,4,0,0.000,2,1.01,1.23,10.22,16,0.177,8.21
1.6842,0.05585,-0.00873,0.18850,0.00000,0.00000,0.00000,45,0,68,-1,44,1,72,29,ok,4,0,0.000,2,1.01,1.23,10.22,16,0.190,8.21
1.7069,0.08901,-0.04538,0.15708,0.00000,0.00000,0.00000,45,0,65,-2,45,0,73,29,ok,4,0,0.000,2,-1.83,0.70,11.98,17,0.000,8.21
1.7099,0.08901,-0.04538,0.15708,0.00000,0.00000,0.00000,46,0,65,-4,46,0,74,28,ok,4,0,0.001,2,-1.83,0.70,11.98,17,0.013,8.21
1.7226,0.08901,-0.04538,0.15708,0.00000,0.00000,0.00000,47,1,64,-6,47,0,76,25,ok,4,0,0.001,2,-1.83,0.70,11.98,17,0.026,8.21
1.7429,0.08901,-0.04538,0.15708,0.00000,0.00000,0.00000,49,2,62,-7,48,0,78,20,ok,4,0,0.001,2,-1.83,0.70,11.98,17,0.039,8.21
1.7477,0.08901,-0.04538,0.15708,0.00000,0.00000,0.00000,50,1,59,-8,49,0,79,16,ok,4,0,0.001,2,-1.83,0.70,11.98,17,0.051,8.21
1.7601,0.08901,-0.04538,0.15708,0.00000,0.00000,0.00000,50,1,57,-9,50,0,81,13,ok,4,0,0.001,2,-1.83,0.70,11.98,17,0.064,8.21
1.7829,0.08901,-0.04538,0.15708,0.00000,0.00000,0.00000,50,4,54,-10,51,0,81,13,ok,4,0,0.001,2,-1.83,0.70,11.98,17,0.076,8.21
1.7859,0.08901,-0.04538,0.15708,0.00000,0.00000,0.00000,51,5,52,-10,53,0,81,10,ok,4,0,0.001,2,-1.83,0.70,11.98,17,0.089,8.21
1.7988,0.08901,-0.04538,0.15708,0.00000,0.00000,0.00000,52,4,49,-10,54,0,81,6,ok,4,0,0.001,2,-1.83,0.70,11.98,17,0.102,8.21
1.8189,0.08901,-0.04538,0.15708,0.00000,0.00000,0.00000,53,5,46,-9,55,1,80,3,ok,2,0,0.001,2,-1.83,0.70,11.98,17,0.115,8.21
1.8236,0.08901,-0.04538,0.15708,0.00000,0.00000,0.00000,53,6,43,-9,55,1,80,2,ok,2,0,0.001,2,-1.83,0.70,11.98,17,0.127,8.21
1.8362,0.08901,-0.04538,0.15708,0.00000,0.00000,0.00000,56,6,41,-10,56,1,78,-2,ok,2,0,0.001,2,-1.83,0.70,11.98,17,0.139,8.21
1.8589,0.08901,-0.04538,0.15708,0.00000,0.00000,0.00000,56,6,39,-8,58,0,78,-4,ok,2,0,0.001,2,-1.83,0.70,11.98,17,0.152,8.21
1.8619,0.08901,-0.04538,0.15708,0.00000,0.00000,0.00000,57,7,36,-7,58,1,77,-5,ok,2,0,0.001,2,-1.83,0.70,11.98,17,0.165,8.21
1.8746,0.08901,-0.04538,0.15708,0.00000,0.00000,0.00000,57,8,33,-6,59,1,75,-7,ok,2,0,0.001,2,-1.83,0.70,11.98,17,0.178,8.21
1.8949,0.08901,-0.04538,0.15708,0.00000,0.00000,0.00000,58,8,29,-5,60,1,72,-8,ok,2,0,0.001,2,-1.83,0.70,11.98,17,0.191,8.21
1.8998,-0.06807,0.01920,0.24435,0.00000,0.00000,0.00000,59,9,26,-3,61,1,71,-10,ok,2,0,0.001,2,-0.02,-0.79,9.13,18,0.000,8.21
1.9121,-0.06807,0.01920,0.24435,0.00000,0.00000,0.00000,61,10,22,-1,62,0,69,-11,ok,2,0,0.001,2,-0.02,-0.79,9.13,18,0.013,8.21
1.9349,-0.06807,0.01920,0.24435,0.00000,0.00000,0.00000,61,10,20,0,64,-2,67,-12,ok,2,0,0.001,2,-0.02,-0.79,9.13,18,0.025,8.21
1.9379,-0.06807,0.01920,0.24435,0.00000,0.00000,0.00000,62,11,18,1,64,-1,65,-13,ok,2,0,0.001,2,-0.02,-0.79,9.13,18,0.038,8.21
1.9508,-0.06807,0.01920,0.24435,0.00000,0.00000,0.00000,63,12,16,3,65,0,63,-13,ok,2,0,0.001,2,-0.02,-0.79,9.13,18,0.051,8.21
1.9709,-0.06807,0.01920,0.24435,0.00000,0.00000,0.00000,63,12,14,7,65,0,61,-14,ok,2,0,0.001,2,-0.02,-0.79,9.13,18,0.064,8.21
1.9756,-0.06807,0.01920,0.24435,0.00000,0.00000,0.00000,63,13,13,10,66,0,59,-15,ok,2,0,0.001,2,-0.02,-0.79,9.13,18,0.076,8.21
1.9881,-0.06807,0.01920,0.24435,0.00000,0.00000,0.00000,64,14,11,12,67,0,56,-13,ok,2,0,0.001,2,-0.02,-0.79,9.13,18,0.089,8.21
2.0109,-0.06807,0.01920,0.24435,0.00000,0.00000,0.00000,64,15,13,13,67,1,53,-13,ok,2,0,0.001,2,-0.02,-0.79,9.13,18,0.101,8.21
2.0140,-0.06807,0.01920,0.24435,0.00000,0.00000,0.00000,64,16,13,13,68,1,50,-12,ok,2,0,0.001,2,-0.02,-0.79,9.13,18,0.114,8.21
2.0267,-0.06807,0.01920,0.24435,0.00000,0.00000,0.00000,65,16,14,11,69,1,47,-11,ok,2,0,0.001,2,-0.02,-0.79,9.13,18,0.127,8.21
2.0468,-0.06807,0.01920,0.24435,0.00000,0.00000,0.00000,65,17,15,11,69,2,45,-11,ok,2,0,0.001,2,-0.02,-0.79,9.13,18,0.140,8.21
2.0516,-0.06807,0.01920,0.24435,0.00000,0.00000,0.00000,66,18,16,10,69,3,41,-9,ok,2,0,0.001,2,-0.02,-0.79,9.13,18,0.152,8.21
2.0641,-0.06807,0.01920,0.24435,0.00000,0.00000,0.00000,66,18,17,9,70,3,39,-9,ok,2,0,0.001,2,-0.02,-0.79,9.13,18,0.165,8.21
2.0869,-0.06807,0.01920,0.24435,0.00000,0.00000,0.00000,66,20,18,8,70,4,35,-7,ok,2,0,0.001,2,-0.02,-0.79,9.13,18,0.177,8.21
2.0900,-0.06807,0.01920,0.24435,0.00000,0.00000,0.00000,67,21,20,7,71,5,34,-6,ok,2,0,0.001,2,-0.02,-0.79,9.13,18,0.190,8.21
2.1029,-0.01571,0.05411,0.28798,0.00000,0.00000,0.00000,67,22,21,7,71,6,32,-4,ok,2,0,0.001,2,1.28,-0.44,9.96,19,0.000,8.21
2.1229,-0.01571,0.05411,0.28798,0.00000,0.00000,0.00000,66,23,22,6,71,8,30,-1,ok,2,0,0.001,2,1.28,-0.44,9.96,19,0.013,8.21
2.1276,-0.01571,0.05411,0.28798,0.00000,0.00000,0.00000,66,24,23,6,71,8,29,1,ok,2,0,0.001,2,1.28,-0.44,9.96,19,0.025,8.21
2.1401,-0.01571,0.05411,0.28798,0.00000,0.00000,0.00000,66,25,25,5,71,9,27,5,ok,2,0,0.001,2,1.28,-0.44,9.96,19,0.038,8.21
2.1629,-0.01571,0.05411,0.28798,0.00000,0.00000,0.00000,65,28,26,5,71,10,27,7,ok,2,0,0.001,2,1.28,-0.44,9.96,19,0.050,8.21
2.1661,-0.01571,0.05411,0.28798,0.00000,0.00000,0.00000,64,29,27,3,71,12,29,6,ok,2,0,0.001,2,1.28,-0.44,9.96,19,0.063,8.21
2.1786,-0.01571,0.05411,0.28798,0.00000,0.00000,0.00000,65,28,28,3,71,13,29,5,ok,2,0,0.001,2,1.28,-0.44,9.96,19,0.076,8.21
2.1989,-0.01571,0.05411,0.28798,0.00000,0.00000,0.00000,68,25,30,3,72,15,30,3,ok,2,0,0.001,2,1.28,-0.44,9.96,19,0.089,8.21
2.2036,-0.01571,0.05411,0.28798,0.00000,0.00000,0.00000,70,21,31,2,71,16,31,3,ok,2,0,0.001,2,1.28,-0.44,9.96,19,0.101,8.21
2.2160,-0.01571,0.05411,0.28798,0.00000,0.00000,0.00000,71,17,32,2,71,18,33,3,ok,2,0,0.001,2,1.28,-0.44,9.96,19,0.114,8.21
2.2389,-0.01571,0.05411,0.28798,0.00000,0.00000,0.00000,71,15,34,2,72,19,34,2,ok,2,0,0.001,2,1.28,-0.44,9.96,19,0.126,8.21
2.2420,-0.01571,0.05411,0.28798,0.00000,0.00000,0.00000,71,14,35,1,71,21,36,1,ok,2,0,0.001,2,1.28,-0.44,9.96,19,0.139,8.21
2.2546,-0.01571,0.05411,0.28798,0.00000,0.00000,0.00000,71,11,36,1,71,22,38,1,ok,2,0,0.001,2,1.28,-0.44,9.96,19,0.152,8.21
2.2749,-0.01571,0.05411,0.28798,0.00000,0.00000,0.00000,70,7,38,2,71,24,39,2,ok,2,0,0.001,2,1.28,-0.44,9.96,19,0.165,8.21
2.2798,-0.01571,0.05411,0.28798,0.00000,0.00000,0.00000,70,5,39,2,72,26,40,1,ok,2,0,0.001,2,1.28,-0.44,9.96,19,0.177,8.21
2.2921,-0.01571,0.05411,0.28798,0.00000,0.00000,0.00000,69,1,41,1,71,28,42,1,ok,2,0,0.001,2,1.28,-0.44,9.96,19,0.190,8.21
2.3149,0.02443,-0.00175,0.38397,0.00000,0.00000,0.00000,68,-1,42,1,71,29,43,1,ok,2,0,0.001,2,-1.25,0.14,9.83,20,0.000,8.21
2.3179,0.02443,-0.00175,0.38397,0.00000,0.00000,0.00000,66,-3,44,1,71,29,44,1,ok,2,0,0.001,2,-1.25,0.14,9.83,20,0.013,8.21
2.3308,0.02443,-0.00175,0.38397,0.00000,0.00000,0.00000,64,-4,44,1,72,29,45,0,ok,2,0,0.001,2,-1.25,0.14,9.83,20,0.026,8.21
2.3508,0.02443,-0.00175,0.38397,0.00000,0.00000,0.00000,63,-6,46,2,74,26,46,0,ok,2,0,0.001,2,-1.25,0.14,9.83,20,0.039,8.21
2.3556,0.02443,-0.00175,0.38397,0.00000,0.00000,0.00000,62,-8,47,2,76,22,47,0,ok,2,0,0.001,2,-1.25,0.14,9.83,20,0.051,8.21
2.3681,0.02443,-0.00175,0.38397,0.00000,0.00000,0.00000,60,-9,48,3,77,17,49,0,ok,2,0,0.001,2,-1.25,0.14,9.83,20,0.064,8.21
2.3909,0.02443,-0.00175,0.38397,0.00000,0.00000,0.00000,58,-10,49,3,79,14,49,0,ok,2,0,0.001,2,-1.25,0.14,9.83,20,0.076,8.21
2.3940,0.02443,-0.00175,0.38397,0.00000,0.00000,0.00000,55,-11,50,3,79,13,50,0,ok,2,0,0.001,2,-1.25,0.14,9.83,20,0.089,8.21
2.4065,0.02443,-0.00175,0.38397,0.00000,0.00000,0.00000,53,-12,50,5,79,11,51,0,ok,2,0,0.001,2,-1.25,0.14,9.83,20,0.102,8.21
2.4268,0.02443,-0.00175,0.38397,0.00000,0.00000,0.00000,51,-11,52,6,79,8,52,0,ok,2,0,0.001,2,-1.25,0.14,9.83,20,0.115,8.21
2.4316,0.02443,-0.00175,0.38397,0.00000,0.00000,0.00000,48,-11,53,5,78,5,53,0,ok,2,0,0.001,2,-1.25,0.14,9.83,20,0.127,8.21
2.4443,0.02443,-0.00175,0.38397,0.00000,0.00000,0.00000,46,-11,54,6,77,2,54,0,ok,2,0,0.001,2,-1.25,0.14,9.83,20,0.139,8.21
2.4669,0.02443,-0.00175,0.38397,0.00000,0.00000,0.00000,43,-11,54,7,77,-1,54,0,ok,2,0,0.001,2,-1.25,0.14,9.83,20,0.152,8.21
2.4699,0.02443,-0.00175,0.38397,0.00000,0.00000,0.00000,41,-11,56,7,76,-3,55,-1,ok,2,0,0.001,2,-1.25,0.14,9.83,20,0.165,8.21
2.4828,0.02443,-0.00175,0.38397,0.00000,0.00000,0.00000,39,-10,56,7,75,-4,56,0,ok,2,0,0.001,2,-1.25,0.14,9.83,20,0.178,8.21
2.5029,0.02443,-0.00175,0.38397,0.00000,0.00000,0.00000,35,-9,57,7,73,-8,57,-1,ok,2,0,0.001,2,-1.25,0.14,9.83,20,0.191,8.21
2.5079,0.02443,-0.00175,0.38397,0.00000,0.00000,0.00000,33,-8,58,8,70,-7,57,0,ok,2,0,0.001,2,-1.25,0.14,9.83,20,0.203,8.21
2.5203,0.06807,-0.01571,0.38921,0.00000,0.00000,0.00000,29,-6,58,8,69,-9,58,0,ok,2,0,0.001,2,-0.40,0.48,10.05,21,0.000,8.21
2.5429,0.06807,-0.01571,0.38921,0.00000,0.00000,0.00000,26,-4,59,9,68,-11,59,0,ok,2,0,0.001,2,-0.40,0.48,10.05,21,0.013,8.21
2.5461,0.06807,-0.01571,0.38921,0.00000,0.00000,0.00000,22,-2,60,11,66,-12,60,0,ok,2,0,0.001,3,-0.40,0.48,10.05,21,0.026,8.21
2.5586,0.06807,-0.01571,0.38921,0.00000,0.00000,0.00000,20,-1,61,11,64,-13,61,0,ok,2,0,0.001,3,-0.40,0.48,10.05,21,0.039,8.21
2.5789,0.06807,-0.01571,0.38921,0.00000,0.00000,0.00000,19,1,62,11,62,-13,63,-3,ok,2,0,0.001,3,-0.40,0.48,10.05,21,0.051,8.21
2.5836,0.06807,-0.01571,0.38921,0.00000,0.00000,0.00000,17,3,62,12,59,-14,63,-2,ok,2,0,0.001,3,-0.40,0.48,10.05,21,0.064,8.21
2.5961,0.06807,-0.01571,0.38921,0.00000,0.00000,0.00000,14,7,63,13,58,-14,64,-2,ok,0,0,0.001,3,-0.40,0.48,10.05,21,0.076,8.21
2.6189,0.06807,-0.01571,0.38921,0.00000,0.00000,0.00000,13,10,63,14,55,-14,65,-1,ok,0,0,0.001,3,-0.40,0.48,10.05,21,0.089,8.21
2.6221,0.06807,-0.01571,0.38921,0.00000,0.00000,0.00000,11,13,64,15,52,-13,66,-1,ok,0,0,0.001,3,-0.40,0.48,10.05,21,0.102,8.21
2.6347,0.06807,-0.01571,0.38921,0.00000,0.00000,0.00000,13,13,64,16,49,-13,67,0,ok,0,0,0.001,3,-0.40,0.48,10.05,21,0.115,8.21
2.6548,0.06807,-0.01571,0.38921,0.00000,0.00000,0.00000,13,13,64,17,46,-12,67,-1,ok,0,0,0.001,3,-0.40,0.48,10.05,21,0.127,8.21
2.6598,0.06807,-0.01571,0.38921,0.00000,0.00000,0.00000,14,12,65,17,44,-11,68,0,ok,0,0,0.001,3,-0.40,0.48,10.05,21,0.139,8.21
2.6721,0.06807,-0.01571,0.38921,0.00000,0.00000,0.00000,16,12,65,18,41,-10,69,0,ok,0,0,0.001,3,-0.40,0.48,10.05,21,0.152,8.21
2.6949,0.06807,-0.01571,0.38921,0.00000,0.00000,0.00000,16,11,65,19,38,-10,69,1,ok,0,0,0.001,3,-0.40,0.48,10.05,21,0.165,8.21
2.6979,0.06807,-0.01571,0.38921,0.00000,0.00000,0.00000,18,10,66,19,35,-8,70,2,ok,0,0,0.001,3,-0.40,0.48,10.05,21,0.178,8.21
2.7109,0.02967,0.00524,0.39794,0.00000,0.00000,0.00000,19,10,66,21,33,-7,71,3,ok,0,0,0.001,3,0.95,-0.05,10.71,22,0.000,8.21
2.7309,0.02967,0.00524,0.39794,0.00000,0.00000,0.00000,21,8,66,21,31,-5,71,4,ok,0,0,0.001,3,0.95,-0.05,10.71,22,0.013,8.21
2.7356,0.02967,0.00524,0.39794,0.00000,0.00000,0.00000,22,8,66,22,29,-2,72,5,ok,0,0,0.001,3,0.95,-0.05,10.71,22,0.025,8.21
2.7482,0.02967,0.00524,0.39794,0.00000,0.00000,0.00000,24,7,65,23,28,0,72,6,ok,0,0,0.001,3,0.95,-0.05,10.71,22,0.038,8.21
2.7709,0.02967,0.00524,0.39794,0.00000,0.00000,0.00000,25,6,65,24,27,4,72,7,ok,0,0,0.001,3,0.95,-0.05,10.71,22,0.050,8.21
2.7741,0.02967,0.00524,0.39794,0.00000,0.00000,0.00000,26,6,65,25,26,6,72,8,ok,0,0,0.001,3,0.95,-0.05,10.71,22,0.063,8.21
2.7866,0.02967,0.00524,0.39794,0.00000,0.00000,0.00000,27,5,64,28,28,6,72,9,ok,0,0,0.001,3,0.95,-0.05,10.71,22,0.076,8.21
2.8068,0.02967,0.00524,0.39794,0.00000,0.00000,0.00000,28,4,64,29,28,5,73,11,ok,0,0,0.001,3,0.95,-0.05,10.71,22,0.088,8.21
2.8116,0.02967,0.00524,0.39794,0.00000,0.00000,0.00000,29,4,65,28,30,3,73,12,ok,0,0,0.001,3,0.95,-0.05,10.71,22,0.101,8.21
2.8241,0.02967,0.00524,0.39794,0.00000,0.00000,0.00000,31,3,68,25,30,3,73,14,ok,0,0,0.001,3,0.95,-0.05,10.71,22,0.113,8.21
2.8469,0.02967,0.00524,0.39794,0.00000,0.00000,0.00000,32,3,70,21,32,3,73,15,ok,0,0,0.001,3,0.95,-0.05,10.71,22,0.126,8.21
2.8499,0.02967,0.00524,0.39794,0.00000,0.00000,0.00000,33,2,71,17,33,2,73,17,ok,0,0,0.001,3,0.95,-0.05,10.71,22,0.139,8.21
2.8628,0.02967,0.00524,0.39794,0.00000,0.00000,0.00000,35,2,71,15,34,1,73,19,ok,0,0,0.001,3,0.95,-0.05,10.71,22,0.152,8.21
2.8829,0.02967,0.00524,0.39794,0.00000,0.00000,0.00000,36,1,71,14,37,1,73,20,ok,0,0,0.001,3,0.95,-0.05,10.71,22,0.164,8.21
2.8876,0.02967,0.00524,0.39794,0.00000,0.00000,0.00000,38,1,71,11,37,1,72,22,ok,0,0,0.001,3,0.95,-0.05,10.71,22,0.177,8.21
2.9001,0.02967,0.00524,0.39794,0.00000,0.00000,0.00000,39,1,71,8,39,2,72,23,ok,0,0,0.001,3,0.95,-0.05,10.71,22,0.189,8.21
2.9229,0.00873,0.03665,0.35605,0.00000,0.00000,0.00000,40,1,70,5,40,1,73,24,ok,0,0,0.001,3,0.72,-0.11,11.47,23,0.000,8.21
2.9261,0.00873,0.03665,0.35605,0.00000,0.00000,0.00000,42,0,70,3,41,2,72,26,ok,0,0,0.001,3,0.72,-0.11,11.47,23,0.013,8.21
2.9385,0.00873,0.03665,0.35605,0.00000,0.00000,0.00000,43,0,69,1,42,1,72,28,ok,0,0,0.001,3,0.72,-0.11,11.47,23,0.026,8.21
2.9588,0.00873,0.03665,0.35605,0.00000,0.00000,0.00000,45,0,67,-1,44,1,72,29,ok,0,0,0.001,3,0.72,-0.11,11.47,23,0.039,8.21
2.9636,0.00873,0.03665,0.35605,0.00000,0.00000,0.00000,45,0,65,-2,45,0,73,29,ok,0,0,0.001,3,0.72,-0.11,11.47,23,0.051,8.21
2.9761,0.00873,0.03665,0.35605,0.00000,0.00000,0.00000,47,1,64,-4,46,0,74,28,ok,0,0,0.001,3,0.72,-0.11,11.47,23,0.064,8.21
2.9989,0.00873,0.03665,0.35605,0.00000,0.00000,0.00000,48,1,63,-6,47,0,76,26,ok,0,0,0.001,3,0.72,-0.11,11.47,23,0.076,8.21
3.0021,0.00873,0.03665,0.35605,0.00000,0.00000,0.00000,49,2,61,-7,48,0,78,20,ok,0,0,0.001,3,0.72,-0.11,11.47,23,0.089,8.21
3.0147,0.00873,0.03665,0.35605,0.00000,0.00000,0.00000,50,1,59,-8,49,0,79,17,ok,0,0,0.001,3,0.72,-0.11,11.47,23,0.102,8.21
3.0348,0.00873,0.03665,0.35605,0.00000,0.00000,0.00000,51,1,56,-9,50,0,81,14,ok,0,0,0.001,3,0.72,-0.11,11.47,23,0.115,8.21
3.0396,0.00873,0.03665,0.35605,0.00000,0.00000,0.00000,51,4,54,-10,52,0,81,13,ok,0,0,0.001,3,0.72,-0.11,11.47,23,0.127,8.21
3.0520,0.00873,0.03665,0.35605,0.00000,0.00000,0.00000,52,5,51,-9,53,0,81,10,ok,0,0,0.001,3,0.72,-0.11,11.47,23,0.140,8.21
3.0749,0.00873,0.03665,0.35605,0.00000,0.00000,0.00000,53,4,48,-10,54,0,81,7,ok,2,0,0.001,3,0.72,-0.11,11.47,23,0.152,8.21
3.0781,0.00873,0.03665,0.35605,0.00000,0.00000,0.00000,53,5,46,-9,55,1,80,4,ok,2,0,0.001,3,0.72,-0.11,11.47,23,0.165,8.21
3.0905,0.00873,0.03665,0.35605,0.00000,0.00000,0.00000,54,6,43,-9,56,1,80,2,ok,2,0,0.001,3,0.72,-0.11,11.47,23,0.178,8.21
3.1108,0.00873,0.03665,0.35605,0.00000,0.00000,0.00000,56,6,41,-10,57,2,78,-2,ok,2,0,0.001,3,0.72,-0.11,11.47,23,0.191,8.21
3.1159,-0.09774,-0.01745,0.44680,0.00000,0.00000,0.00000,56,6,39,-9,58,1,78,-3,ok,2,0,0.001,3,0.58,-1.05,9.46,24,0.000,8.21
3.1281,-0.09774,-0.01745,0.44680,0.00000,0.00000,0.00000,58,7,35,-7,58,1,77,-5,ok,2,0,0.001,3,0.58,-1.05,9.46,24,0.013,8.21
3.1509,-0.09774,-0.01745,0.44680,0.00000,0.00000,0.00000,58,8,33,-6,59,1,75,-7,ok,2,0,0.001,3,0.58,-1.05,9.46,24,0.025,8.21
3.1540,-0.09774,-0.01745,0.44680,0.00000,0.00000,0.00000,59,8,29,-5,60,1,72,-7,ok,2,0,0.001,3,0.58,-1.05,9.46,24,0.038,8.21
3.1668,-0.09774,-0.01745,0.44680,0.00000,0.00000,0.00000,60,9,26,-3,61,1,71,-9,ok,2,0,0.001,3,0.58,-1.05,9.46,24,0.051,8.21
3.1869,-0.09774,-0.01745,0.44680,0.00000,0.00000,0.00000,61,10,22,-1,62,1,70,-11,ok,2,0,0.001,3,0.58,-1.05,9.46,24,0.064,8.21
3.1917,-0.09774,-0.01745,0.44680,0.00000,0.00000,0.00000,61,10,20,0,64,-1,67,-12,ok,2,0,0.001,3,0.58,-1.05,9.46,24,0.076,8.21
3.2041,-0.09774,-0.01745,0.44680,0.00000,0.00000,0.00000,62,11,18,1,64,-1,65,-13,ok,2,0,0.001,3,0.58,-1.05,9.46,24,0.089,8.21
3.2269,-0.09774,-0.01745,0.44680,0.00000,0.00000,0.00000,63,11,16,3,65,0,63,-13,ok,2,0,0.001,3,0.58,-1.05,9.46,24,0.101,8.21
3.2299,-0.09774,-0.01745,0.44680,0.00000,0.00000,0.00000,63,12,15,7,66,0,60,-14,ok,2,0,0.001,3,0.58,-1.05,9.46,24,0.114,8.21
3.2428,-0.09774,-0.01745,0.44680,0.00000,0.00000,0.00000,63,13,13,10,66,0,59,-15,ok,2,0,0.001,3,0.58,-1.05,9.46,24,0.127,8.21
3.2629,-0.09774,-0.01745,0.44680,0.00000,0.00000,0.00000,64,14,11,12,67,0,55,-13,ok,2,0,0.001,3,0.58,-1.05,9.46,24,0.140,8.21
3.2677,-0.09774,-0.01745,0.44680,0.00000,0.00000,0.00000,64,15,13,13,67,0,53,-12,ok,2,0,0.001,3,0.58,-1.05,9.46,24,0.152,8.21
3.2801,-0.09774,-0.01745,0.44680,0.00000,0.00000,0.00000,64,16,13,13,68,1,50,-12,ok,2,0,0.001,3,0.58,-1.05,9.46,24,0.165,8.21
3.3029,-0.09774,-0.01745,0.44680,0.00000,0.00000,0.00000,65,17,14,11,68,1,47,-11,ok,2,0,0.001,3,0.58,-1.05,9.46,24,0.177,8.21
3.3061,-0.09774,-0.01745,0.44680,0.00000,0.00000,0.00000,65,17,15,11,69,2,45,-11,ok,2,0,0.001,3,0.58,-1.05,9.46,24,0.190,8.21
3.3189,-0.02793,0.07854,0.46949,0.00000,0.00000,0.00000,66,18,16,10,69,2,41,-9,ok,2,0,0.001,3,1.48,-0.30,9.72,25,0.000,8.21
3.3389,-0.02793,0.07854,0.46949,0.00000,0.00000,0.00000,66,18,17,9,70,4,39,-9,ok,2,0,0.001,3,1.48,-0.30,9.72,25,0.013,8.21
3.3436,-0.02793,0.07854,0.46949,0.00000,0.00000,0.00000,66,20,18,9,70,5,35,-7,ok,2,0,0.001,3,1.48,-0.30,9.72,25,0.025,8.21
3.3561,-0.02793,0.07854,0.46949,0.00000,0.00000,0.00000,67,21,20,8,71,5,34,-6,ok,2,0,0.001,3,1.48,-0.30,9.72,25,0.038,8.21
3.3789,-0.02793,0.07854,0.46949,0.00000,0.00000,0.00000,67,22,21,7,71,6,32,-4,ok,2,0,0.001,3,1.48,-0.30,9.72,25,0.050,8.21
3.3820,-0.02793,0.07854,0.46949,0.00000,0.00000,0.00000,67,23,22,6,71,8,30,-1,ok,2,0,0.001,3,1.48,-0.30,9.72,25,0.063,8.21
3.3946,-0.02793,0.07854,0.46949,0.00000,0.00000,0.00000,67,24,23,6,71,8,28,2,ok,2,0,0.001,3,1.48,-0.30,9.72,25,0.076,8.21
3.4148,-0.02793,0.07854,0.46949,0.00000,0.00000,0.00000,66,25,24,5,71,9,27,5,ok,2,0,0.001,3,1.48,-0.30,9.72,25,0.089,8.21
3.4198,-0.02793,0.07854,0.46949,0.00000,0.00000,0.00000,65,28,26,5,71,10,27,7,ok,2,0,0.001,3,1.48,-0.30,9.72,25,0.101,8.21
3.4321,-0.02793,0.07854,0.46949,0.00000,0.00000,0.00000,65,29,27,3,71,12,29,6,ok,2,0,0.001,3,1.48,-0.30,9.72,25,0.114,8.21
3.4549,-0.02793,0.07854,0.46949,0.00000,0.00000,0.00000,66,28,28,3,71,13,29,6,ok,2,0,0.001,3,1.48,-0.30,9.72,25,0.126,8.21
3.4579,-0.02793,0.07854,0.46949,0.00000,0.00000,0.00000,68,25,29,3,72,15,30,4,ok,2,0,0.001,3,1.48,-0.30,9.72,25,0.139,8.21
3.4705,-0.02793,0.07854,0.46949,0.00000,0.00000,0.00000,71,21,31,2,71,16,32,3,ok,2,0,0.001,3,1.48,-0.30,9.72,25,0.152,8.21
3.4909,-0.02793,0.07854,0.46949,0.00000,0.00000,0.00000,72,17,32,2,71,18,33,3,ok,2,0,0.001,3,1.48,-0.30,9.72,25,0.165,8.21
3.4958,-0.02793,0.07854,0.46949,0.00000,0.00000,0.00000,72,15,34,2,72,19,34,2,ok,2,0,0.001,3,1.48,-0.30,9.72,25,0.177,8.21
3.5082,-0.02793,0.07854,0.46949,0.00000,0.00000,0.00000,71,14,35,1,71,21,36,1,ok,2,0,0.001,3,1.48,-0.30,9.72,25,0.190,8.21
3.5309,-0.02269,0.03840,0.59516,0.00000,0.00000,0.00000,71,11,36,1,71,22,38,1,ok,2,0,0.001,3,-0.39,0.60,9.99,26,0.000,8.21
3.5340,-0.02269,0.03840,0.59516,0.00000,0.00000,0.00000,71,7,38,2,71,24,39,2,ok,2,0,0.001,3,-0.39,0.60,9.99,26,0.013,8.21
3.5466,-0.02269,0.03840,0.59516,0.00000,0.00000,0.00000,70,5,39,2,72,26,41,1,ok,2,0,0.001,3,-0.39,0.60,9.99,26,0.026,8.21
3.5669,-0.02269,0.03840,0.59516,0.00000,0.00000,0.00000,69,1,40,1,71,28,42,2,ok,2,0,0.001,4,-0.39,0.60,9.99,26,0.039,8.21
3.5718,-0.02269,0.03840,0.59516,0.00000,0.00000,0.00000,68,-1,42,1,71,29,43,2,ok,2,0,0.001,4,-0.39,0.60,9.99,26,0.051,8.21
3.5841,-0.02269,0.03840,0.59516,0.00000,0.00000,0.00000,67,-3,43,2,71,29,44,1,ok,2,0,0.001,4,-0.39,0.60,9.99,26,0.064,8.21
3.6069,-0.02269,0.03840,0.59516,0.00000,0.00000,0.00000,65,-4,44,2,72,29,45,1,ok,2,0,0.001,4,-0.39,0.60,9.99,26,0.076,8.21
3.6100,-0.02269,0.03840,0.59516,0.00000,0.00000,0.00000,64,-6,45,2,74,26,46,0,ok,2,0,0.001,4,-0.39,0.60,9.99,26,0.089,8.21
3.6227,-0.02269,0.03840,0.59516,0.00000,0.00000,0.00000,63,-8,46,2,76,22,47,0,ok,2,0,0.001,4,-0.39,0.60,9.99,26,0.102,8.21
3.6429,-0.02269,0.03840,0.59516,0.00000,0.00000,0.00000,60,-9,48,3,77,17,49,0,ok,2,0,0.001,4,-0.39,0.60,9.99,26,0.115,8.21
3.6477,-0.02269,0.03840,0.59516,0.00000,0.00000,0.00000,58,-10,49,3,79,14,49,0,ok,2,0,0.001,4,-0.39,0.60,9.99,26,0.127,8.21
3.6601,-0.02269,0.03840,0.59516,0.00000,0.00000,0.00000,56,-11,50,3,79,14,50,0,ok,2,0,0.001,4,-0.39,0.60,9.99,26,0.140,8.21
3.6829,-0.02269,0.03840,0.59516,0.00000,0.00000,0.00000,54,-12,50,5,79,11,51,0,ok,2,0,0.001,4,-0.39,0.60,9.99,26,0.152,8.21
3.6859,-0.02269,0.03840,0.59516,0.00000,0.00000,0.00000,51,-11,52,6,79,8,52,0,ok,2,0,0.001,4,-0.39,0.60,9.99,26,0.165,8.21
3.6989,-0.02269,0.03840,0.59516,0.00000,0.00000,0.00000,48,-11,52,5,78,5,53,0,ok,2,0,0.001,4,-0.39,0.60,9.99,26,0.178,8.21
3.7188,-0.02269,0.03840,0.59516,0.00000,0.00000,0.00000,46,-11,53,6,77,3,54,0,ok,2,0,0.001,4,-0.39,0.60,9.99,26,0.191,8.21
3.7239,0.08552,-0.01571,0.59865,0.00000,0.00000,0.00000,43,-11,54,7,77,-1,54,1,ok,2,0,0.001,4,-0.10,0.94,9.35,27,0.000,8.21
3.7361,0.08552,-0.01571,0.59865,0.00000,0.00000,0.00000,41,-11,56,7,76,-3,55,-1,ok,2,0,0.001,4,-0.10,0.94,9.35,27,0.013,8.21
3.7589,0.08552,-0.01571,0.59865,0.00000,0.00000,0.00000,39,-10,56,7,75,-4,56,0,ok,2,0,0.001,4,-0.10,0.94,9.35,27,0.025,8.21
3.7621,0.08552,-0.01571,0.59865,0.00000,0.00000,0.00000,36,-9,57,7,73,-7,57,-1,ok,2,0,0.001,4,-0.10,0.94,9.35,27,0.038,8.21
3.7749,0.08552,-0.01571,0.59865,0.00000,0.00000,0.00000,33,-8,58,8,70,-7,57,0,ok,2,0,0.001,4,-0.10,0.94,9.35,27,0.051,8.21
3.8109,0.08552,-0.01571,0.59865,0.00000,0.00000,0.00000,30,-6,58,8,69,-9,58,0,ok,2,0,0.001,4,-0.10,0.94,9.35,27,0.078,8.21
3.8141,0.08552,-0.01571,0.59865,0.00000,0.00000,0.00000,27,-4,59,9,68,-11,59,0,ok,2,0,0.001,4,-0.10,0.94,9.35,27,0.090,8.21
3.8268,0.08552,-0.01571,0.59865,0.00000,0.00000,0.00000,23,-2,60,10,66,-12,60,0,ok,2,0,0.001,4,-0.10,0.94,9.35,27,0.103,8.21
3.8468,0.08552,-0.01571,0.59865,0.00000,0.00000,0.00000,21,-1,61,11,64,-13,61,0,ok,2,0,0.001,4,-0.10,0.94,9.35,27,0.116,8.21
3.8516,0.08552,-0.01571,0.59865,0.00000,0.00000,0.00000,19,1,62,11,62,-13,63,-3,ok,2,0,0.001,4,-0.10,0.94,9.35,27,0.128,8.21
3.8642,0.08552,-0.01571,0.59865,0.00000,0.00000,0.00000,17,3,62,12,59,-14,64,-1,ok,2,0,0.001,4,-0.10,0.94,9.35,27,0.141,8.21
3.8869,0.08552,-0.01571,0.59865,0.00000,0.00000,0.00000,15,7,63,13,57,-14,65,-1,ok,2,0,0.001,4,-0.10,0.94,9.35,27,0.153,8.21
3.8900,0.08552,-0.01571,0.59865,0.00000,0.00000,0.00000,13,10,63,14,54,-14,65,-1,ok,0,0,0.001,4,-0.10,0.94,9.35,27,0.166,8.21
3.9025,0.08552,-0.01571,0.59865,0.00000,0.00000,0.00000,12,13,63,15,52,-13,66,-1,ok,0,0,0.001,4,-0.10,0.94,9.35,27,0.179,8.21
3.9228,0.08552,-0.01571,0.59865,0.00000,0.00000,0.00000,13,13,64,16,49,-13,67,0,ok,0,0,0.001,4,-0.10,0.94,9.35,27,0.192,8.21
3.9278,0.02618,0.02618,0.62134,0.00000,0.00000,0.00000,13,13,64,17,46,-12,67,-1,ok,0,0,0.001,4,1.01,0.01,9.05,28,0.000,8.21
3.9402,0.02618,0.02618,0.62134,0.00000,0.00000,0.00000,15,12,64,17,44,-11,68,1,ok,0,0,0.001,4,1.01,0.01,9.05,28,0.013,8.21
3.9629,0.02618,0.02618,0.62134,0.00000,0.00000,0.00000,16,12,64,18,41,-10,69,1,ok,0,0,0.001,4,1.01,0.01,9.05,28,0.025,8.21
3.9662,0.02618,0.02618,0.62134,0.00000,0.00000,0.00000,17,11,65,19,38,-9,69,2,ok,0,0,0.001,4,1.01,0.01,9.05,28,0.038,8.21
3.9785,0.02618,0.02618,0.62134,0.00000,0.00000,0.00000,19,10,65,20,35,-8,70,2,ok,0,0,0.001,4,1.01,0.01,9.05,28,0.051,8.21
3.9988,0.02618,0.02618,0.62134,0.00000,0.00000,0.00000,19,10,65,21,33,-6,71,3,ok,0,0,0.001,4,1.01,0.01,9.05,28,0.064,8.21
4.0036,0.02618,0.02618,0.62134,0.00000,0.00000,0.00000,21,8,66,21,31,-5,71,5,ok,0,0,0.001,4,1.01,0.01,9.05,28,0.076,8.21
4.0163,0.02618,0.02618,0.62134,0.00000,0.00000,0.00000,22,8,66,23,29,-2,72,5,ok,0,0,0.001,4,1.01,0.01,9.05,28,0.089,8.21
4.0389,0.02618,0.02618,0.62134,0.00000,0.00000,0.00000,24,7,65,23,28,1,72,6,ok,0,0,0.001,4,1.01,0.01,9.05,28,0.101,8.21
4.0421,0.02618,0.02618,0.62134,0.00000,0.00000,0.00000,25,6,65,24,27,4,72,8,ok,0,0,0.001,4,1.01,0.01,9.05,28,0.114,8.21
4.0545,0.02618,0.02618,0.62134,0.00000,0.00000,0.00000,26,6,65,25,26,7,72,8,ok,0,0,0.001,4,1.01,0.01,9.05,28,0.127,8.21
4.0748,0.02618,0.02618,0.62134,0.00000,0.00000,0.00000,27,5,64,28,28,6,73,9,ok,0,0,0.001,4,1.01,0.01,9.05,28,0.140,8.21
4.0796,0.02618,0.02618,0.62134,0.00000,0.00000,0.00000,29,4,64,29,28,6,73,11,ok,0,0,0.001,4,1.01,0.01,9.05,28,0.152,8.21
4.0921,0.02618,0.02618,0.62134,0.00000,0.00000,0.00000,30,4,65,27,30,3,73,12,ok,0,0,0.001,4,1.01,0.01,9.05,28,0.165,8.21
4.1149,0.02618,0.02618,0.62134,0.00000,0.00000,0.00000,31,3,67,25,31,3,73,14,ok,0,0,0.001,4,1.01,0.01,9.05,28,0.177,8.21
4.1181,0.02618,0.02618,0.62134,0.00000,0.00000,0.00000,32,3,70,21,32,3,73,16,ok,0,0,0.001,4,1.01,0.01,9.05,28,0.190,8.21
4.1309,0.04887,0.04363,0.58469,0.00000,0.00000,0.00000,34,2,71,17,33,2,73,17,ok,0,0,0.001,4,-0.41,0.65,10.52,29,0.000,8.21
4.1508,0.04887,0.04363,0.58469,0.00000,0.00000,0.00000,35,2,71,15,34,1,73,19,ok,0,0,0.001,4,-0.41,0.65,10.52,29,0.013,8.21
4.1556,0.04887,0.04363,0.58469,0.00000,0.00000,0.00000,37,1,71,14,37,2,73,20,ok,0,0,0.001,4,-0.41,0.65,10.52,29,0.025,8.21
4.1682,0.04887,0.04363,0.58469,0.00000,0.00000,0.00000,38,1,71,11,37,2,72,22,ok,0,0,0.001,4,-0.41,0.65,10.52,29,0.038,8.21
4.1909,0.04887,0.04363,0.58469,0.00000,0.00000,0.00000,40,1,71,8,39,2,72,23,ok,0,0,0.001,4,-0.41,0.65,10.52,29,0.050,8.21
4.1939,0.04887,0.04363,0.58469,0.00000,0.00000,0.00000,41,1,70,5,40,1,73,25,ok,0,0,0.001,4,-0.41,0.65,10.52,29,0.063,8.21
4.2065,0.04887,0.04363,0.58469,0.00000,0.00000,0.00000,42,0,69,3,41,2,73,26,ok,0,0,0.001,4,-0.41,0.65,10.52,29,0.076,8.21
4.2268,0.04887,0.04363,0.58469,0.00000,0.00000,0.00000,44,0,68,1,42,1,72,28,ok,0,0,0.001,4,-0.41,0.65,10.52,29,0.088,8.21
4.2316,0.04887,0.04363,0.58469,0.00000,0.00000,0.00000,45,0,67,-1,44,1,72,29,ok,0,0,0.001,4,-0.41,0.65,10.52,29,0.101,8.21
4.2443,0.04887,0.04363,0.58469,0.00000,0.00000,0.00000,45,0,65,-2,45,0,73,29,ok,0,0,0.001,4,-0.41,0.65,10.52,29,0.113,8.21
4.2669,0.04887,0.04363,0.58469,0.00000,0.00000,0.00000,47,1,64,-4,46,0,74,28,ok,0,0,0.001,4,-0.41,0.65,10.52,29,0.126,8.21
4.2701,0.04887,0.04363,0.58469,0.00000,0.00000,0.00000,48,1,63,-6,47,0,76,26,ok,0,0,0.001,4,-0.41,0.65,10.52,29,0.139,8.21
4.2825,0.04887,0.04363,0.58469,0.00000,0.00000,0.00000,50,2,61,-7,48,0,78,21,ok,0,0,0.001,4,-0.41,0.65,10.52,29,0.152,8.21
4.3028,0.04887,0.04363,0.58469,0.00000,0.00000,0.00000,51,1,59,-8,49,0,79,17,ok,0,0,0.001,4,-0.41,0.65,10.52,29,0.165,8.21
4.3076,0.04887,0.04363,0.58469,0.00000,0.00000,0.00000,51,1,56,-9,50,1,81,14,ok,0,0,0.001,4,-0.41,0.65,10.52,29,0.177,8.21
4.3202,0.04887,0.04363,0.58469,0.00000,0.00000,0.00000,51,4,54,-10,51,1,81,13,ok,0,0,0.001,4,-0.41,0.65,10.52,29,0.190,8.21
4.3429,-0.11170,-0.03665,0.66323,0.00000,0.00000,0.00000,52,5,51,-9,53,1,81,10,ok,0,0,0.001,4,0.19,-1.42,8.99,30,0.000,8.21
4.3460,-0.11170,-0.03665,0.66323,0.00000,0.00000,0.00000,53,4,48,-9,54,0,81,7,ok,2,0,0.001,4,0.19,-1.42,8.99,30,0.013,8.21
4.3587,-0.11170,-0.03665,0.66323,0.00000,0.00000,0.00000,54,5,46,-8,55,1,80,4,ok,2,0,0.001,4,0.19,-1.42,8.99,30,0.026,8.21
4.3788,-0.11170,-0.03665,0.66323,0.00000,0.00000,0.00000,54,5,43,-9,55,0,80,3,ok,2,0,0.001,4,0.19,-1.42,8.99,30,0.038,8.21
4.3836,-0.11170,-0.03665,0.66323,0.00000,0.00000,0.00000,56,6,41,-9,57,1,79,-1,ok,2,0,0.001,4,0.19,-1.42,8.99,30,0.051,8.21
4.3961,-0.11170,-0.03665,0.66323,0.00000,0.00000,0.00000,56,6,39,-8,58,0,79,-3,ok,2,0,0.001,4,0.19,-1.42,8.99,30,0.063,8.21
4.4189,-0.11170,-0.03665,0.66323,0.00000,0.00000,0.00000,58,7,35,-7,58,1,77,-5,ok,2,0,0.001,4,0.19,-1.42,8.99,30,0.076,8.21
4.4222,-0.11170,-0.03665,0.66323,0.00000,0.00000,0.00000,58,8,33,-6,59,1,75,-7,ok,2,0,0.001,4,0.19,-1.42,8.99,30,0.089,8.21
4.4345,-0.11170,-0.03665,0.66323,0.00000,0.00000,0.00000,59,8,29,-5,60,1,72,-7,ok,2,0,0.001,4,0.19,-1.42,8.99,30,0.102,8.21
4.4548,-0.11170,-0.03665,0.66323,0.00000,0.00000,0.00000,60,9,26,-3,61,1,71,-9,ok,2,0,0.001,4,0.19,-1.42,8.99,30,0.114,8.21
4.4596,-0.11170,-0.03665,0.66323,0.00000,0.00000,0.00000,61,10,22,-1,62,1,69,-11,ok,2,0,0.001,4,0.19,-1.42,8.99,30,0.127,8.21
4.4721,-0.11170,-0.03665,0.66323,0.00000,0.00000,0.00000,61,10,20,0,64,-2,67,-12,ok,2,0,0.001,4,0.19,-1.42,8.99,30,0.139,8.21
4.4949,-0.11170,-0.03665,0.66323,0.00000,0.00000,0.00000,62,11,18,1,64,-1,65,-13,ok,2,0,0.001,4,0.19,-1.42,8.99,30,0.152,8.21
4.4982,-0.11170,-0.03665,0.66323,0.00000,0.00000,0.00000,63,12,16,4,65,0,63,-13,ok,2,0,0.001,4,0.19,-1.42,8.99,30,0.165,8.21
4.5105,-0.11170,-0.03665,0.66323,0.00000,0.00000,0.00000,63,12,14,7,66,0,60,-14,ok,2,0,0.001,4,0.19,-1.42,8.99,30,0.178,8.21
4.5309,-0.11170,-0.03665,0.66323,0.00000,0.00000,0.00000,63,13,13,10,66,0,58,-14,ok,2,0,0.001,4,0.19,-1.42,8.99,30,0.190,8.21
4.5358,-0.10123,0.05760,0.71908,0.00000,0.00000,0.00000,64,14,11,12,67,0,55,-13,ok,2,0,0.001,4,0.46,-0.57,8.90,31,0.000,8.21
4.5482,-0.10123,0.05760,0.71908,0.00000,0.00000,0.00000,64,15,12,13,67,1,53,-12,ok,2,0,0.001,4,0.46,-0.57,8.90,31,0.013,8.21
4.5709,-0.10123,0.05760,0.71908,0.00000,0.00000,0.00000,65,16,12,13,68,1,50,-12,ok,2,0,0.001,4,0.46,-0.57,8.90,31,0.025,8.21
4.5740,-0.10123,0.05760,0.71908,0.00000,0.00000,0.00000,66,17,14,11,68,1,47,-11,ok,2,0,0.001,4,0.46,-0.57,8.90,31,0.038,8.21
4.5867,-0.10123,0.05760,0.71908,0.00000,0.00000,0.00000,66,18,15,11,69,2,45,-10,ok,2,0,0.001,5,0.46,-0.57,8.90,31,0.051,8.21
4.6069,-0.10123,0.05760,0.71908,0.00000,0.00000,0.00000,66,18,15,10,69,3,41,-9,ok,2,0,0.001,5,0.46,-0.57,8.90,31,0.064,8.21
4.6116,-0.10123,0.05760,0.71908,0.00000,0.00000,0.00000,67,18,17,9,70,3,39,-8,ok,2,0,0.001,5,0.46,-0.57,8.90,31,0.076,8.21
4.6241,-0.10123,0.05760,0.71908,0.00000,0.00000,0.00000,67,20,17,9,70,5,35,-7,ok,2,0,0.001,5,0.46,-0.57,8.90,31,0.088,8.21
4.6469,-0.10123,0.05760,0.71908,0.00000,0.00000,0.00000,68,21,19,8,71,5,34,-5,ok,2,0,0.001,5,0.46,-0.57,8.90,31,0.101,8.21
4.6500,-0.10123,0.05760,0.71908,0.00000,0.00000,0.00000,68,22,21,7,71,6,32,-4,ok,2,0,0.001,5,0.46,-0.57,8.90,31,0.114,8.21
4.6629,-0.10123,0.05760,0.71908,0.00000,0.00000,0.00000,67,23,22,7,71,8,30,0,ok,2,0,0.001,5,0.46,-0.57,8.90,31,0.127,8.21
4.6828,-0.10123,0.05760,0.71908,0.00000,0.00000,0.00000,67,24,23,6,71,8,29,2,ok,2,0,0.001,5,0.46,-0.57,8.90,31,0.140,8.21
4.6876,-0.10123,0.05760,0.71908,0.00000,0.00000,0.00000,66,25,25,5,72,9,27,5,ok,2,0,0.001,5,0.46,-0.57,8.90,31,0.152,8.21
4.7002,-0.10123,0.05760,0.71908,0.00000,0.00000,0.00000,66,28,26,5,72,10,27,7,ok,2,0,0.001,5,0.46,-0.57,8.90,31,0.165,8.21
4.7229,-0.10123,0.05760,0.71908,0.00000,0.00000,0.00000,65,29,27,4,71,12,29,6,ok,2,0,0.001,5,0.46,-0.57,8.90,31,0.177,8.21
4.7261,-0.10123,0.05760,0.71908,0.00000,0.00000,0.00000,66,28,28,4,71,13,29,6,ok,2,0,0.001,5,0.46,-0.57,8.90,31,0.190,8.21
4.7388,-0.00175,0.01571,0.80634,0.00000,0.00000,0.00000,68,25,30,3,72,15,30,4,ok,2,0,0.001,5,0.60,-0.33,9.81,32,0.000,8.21
4.7588,-0.00175,0.01571,0.80634,0.00000,0.00000,0.00000,71,21,31,2,71,16,32,3,ok,2,0,0.001,5,0.60,-0.33,9.81,32,0.013,8.21
4.7636,-0.00175,0.01571,0.80634,0.00000,0.00000,0.00000,72,17,33,2,71,18,33,3,ok,2,0,0.001,5,0.60,-0.33,9.81,32,0.025,8.21
4.7761,-0.00175,0.01571,0.80634,0.00000,0.00000,0.00000,72,15,34,2,72,19,34,2,ok,2,0,0.001,5,0.60,-0.33,9.81,32,0.038,8.21
4.7989,-0.00175,0.01571,0.80634,0.00000,0.00000,0.00000,72,14,35,1,71,21,36,1,ok,2,0,0.001,5,0.60,-0.33,9.81,32,0.050,8.21
4.8020,-0.00175,0.01571,0.80634,0.00000,0.00000,0.00000,72,11,36,1,71,22,38,1,ok,2,0,0.001,5,0.60,-0.33,9.81,32,0.063,8.21
4.8148,-0.00175,0.01571,0.80634,0.00000,0.00000,0.00000,71,8,38,2,71,24,39,2,ok,2,0,0.001,5,0.60,-0.33,9.81,32,0.076,8.21
4.8348,-0.00175,0.01571,0.80634,0.00000,0.00000,0.00000,70,5,39,2,71,26,40,1,ok,2,0,0.001,5,0.60,-0.33,9.81,32,0.089,8.21
4.8396,-0.00175,0.01571,0.80634,0.00000,0.00000,0.00000,70,1,40,1,70,27,42,2,ok,2,0,0.001,5,0.60,-0.33,9.81,32,0.101,8.21
4.8521,-0.00175,0.01571,0.80634,0.00000,0.00000,0.00000,69,0,42,1,70,29,43,2,ok,2,0,0.001,5,0.60,-0.33,9.81,32,0.114,8.21
4.8749,-0.00175,0.01571,0.80634,0.00000,0.00000,0.00000,67,-3,43,2,71,29,44,1,ok,2,0,0.001,5,0.60,-0.33,9.81,32,0.126,8.21
4.8780,-0.00175,0.01571,0.80634,0.00000,0.00000,0.00000,65,-4,43,2,72,29,45,1,ok,2,0,0.001,5,0.60,-0.33,9.81,32,0.139,8.21
4.8905,-0.00175,0.01571,0.80634,0.00000,0.00000,0.00000,64,-6,45,2,73,26,46,0,ok,2,0,0.001,5,0.60,-0.33,9.81,32,0.152,8.21
4.9108,-0.00175,0.01571,0.80634,0.00000,0.00000,0.00000,63,-8,46,2,75,22,47,0,ok,2,0,0.001,5,0.60,-0.33,9.81,32,0.165,8.21
4.9156,-0.00175,0.01571,0.80634,0.00000,0.00000,0.00000,61,-9,48,3,77,17,49,0,ok,2,0,0.001,5,0.60,-0.33,9.81,32,0.177,8.21
4.9281,-0.00175,0.01571,0.80634,0.00000,0.00000,0.00000,59,-10,49,3,78,14,49,0,ok,2,0,0.001,5,0.60,-0.33,9.81,32,0.190,8.21
4.9509,0.06632,0.02269,0.82205,0.00000,0.00000,0.00000,56,-11,50,3,79,14,50,1,ok,2,0,0.001,5,-0.36,0.43,10.73,33,0.000,8.21
4.9540,0.06632,0.02269,0.82205,0.00000,0.00000,0.00000,54,-12,50,5,79,12,51,0,ok,2,0,0.001,5,-0.36,0.43,10.73,33,0.013,8.21
4.9665,0.06632,0.02269,0.82205,0.00000,0.00000,0.00000,51,-11,51,6,78,8,52,0,ok,2,0,0.001,5,-0.36,0.43,10.73,33,0.026,8.21
4.9868,0.06632,0.02269,0.82205,0.00000,0.00000,0.00000,49,-11,52,5,78,5,53,0,ok,2,0,0.001,5,-0.36,0.43,10.73,33,0.038,8.21
4.9917,0.06632,0.02269,0.82205,0.00000,0.00000,0.00000,46,-11,53,6,77,3,54,0,ok,2,0,0.001,5,-0.36,0.43,10.73,33,0.051,8.21
5.0041,0.06632,0.02269,0.82205,0.00000,0.00000,0.00000,44,-11,54,7,77,-1,55,1,ok,2,0,0.001,5,-0.36,0.43,10.73,33,0.063,8.21
5.0308,0.06632,0.02269,0.82205,0.00000,0.00000,0.00000,42,-11,55,7,76,-3,55,0,ok,2,0,0.001,5,-0.36,0.43,10.73,33,0.076,8.21
5.0340,0.06632,0.02269,0.82205,0.00000,0.00000,0.00000,39,-10,56,7,75,-4,56,0,ok,2,0,0.001,5,-0.36,0.43,10.73,33,0.093,8.21
5.0465,0.06632,0.02269,0.82205,0.00000,0.00000,0.00000,36,-9,57,8,73,-7,57,-1,ok,2,0,0.001,5,-0.36,0.43,10.73,33,0.106,8.21
5.0668,0.06632,0.02269,0.82205,0.00000,0.00000,0.00000,34,-8,57,8,70,-7,57,0,ok,2,0,0.001,5,-0.36,0.43,10.73,33,0.118,8.21
5.0718,0.06632,0.02269,0.82205,0.00000,0.00000,0.00000,30,-6,58,8,69,-9,58,0,ok,2,0,0.001,5,-0.36,0.43,10.73,33,0.131,8.21
5.0842,0.06632,0.02269,0.82205,0.00000,0.00000,0.00000,27,-4,58,9,68,-11,59,1,ok,2,0,0.001,5,-0.36,0.43,10.73,33,0.143,8.21
5.1069,0.06632,0.02269,0.82205,0.00000,0.00000,0.00000,23,-2,60,11,66,-12,60,0,ok,2,0,0.001,5,-0.36,0.43,10.73,33,0.156,8.21
5.1100,0.06632,0.02269,0.82205,0.00000,0.00000,0.00000,21,-1,61,11,64,-13,61,0,ok,2,0,0.001,5,-0.36,0.43,10.73,33,0.169,8.21
5.1227,0.06632,0.02269,0.82205,0.00000,0.00000,0.00000,20,1,62,11,62,-13,63,-2,ok,2,0,0.001,5,-0.36,0.43,10.73,33,0.182,8.21
5.1429,0.06632,0.02269,0.82205,0.00000,0.00000,0.00000,18,3,62,12,59,-14,64,-1,ok,2,0,0.001,5,-0.36,0.43,10.73,33,0.194,8.21
5.1478,0.08203,0.01396,0.83252,0.00000,0.00000,0.00000,15,6,62,13,57,-14,65,-1,ok,0,0,0.001,5,2.18,0.91,11.86,34,0.000,8.21
5.1601,0.08203,0.01396,0.83252,0.00000,0.00000,0.00000,14,10,62,14,54,-13,65,-1,ok,0,0,0.001,5,2.18,0.91,11.86,34,0.013,8.21
5.1828,0.08203,0.01396,0.83252,0.00000,0.00000,0.00000,12,12,63,15,52,-12,66,-1,ok,0,0,0.001,5,2.18,0.91,11.86,34,0.025,8.21
5.1860,0.08203,0.01396,0.83252,0.00000,0.00000,0.00000,14,13,63,16,49,-12,67,0,ok,0,0,0.001,5,2.18,0.91,11.86,34,0.038,8.21
5.1987,0.08203,0.01396,0.83252,0.00000,0.00000,0.00000,14,13,63,17,46,-11,67,0,ok,0,0,0.001,5,2.18,0.91,11.86,34,0.051,8.21
5.2189,0.08203,0.01396,0.83252,0.00000,0.00000,0.00000,15,12,64,17,44,-11,68,1,ok,0,0,0.001,5,2.18,0.91,11.86,34,0.064,8.21
5.2235,0.08203,0.01396,0.83252,0.00000,0.00000,0.00000,16,12,64,18,41,-10,69,1,ok,0,0,0.001,5,2.18,0.91,11.86,34,0.076,8.21
5.2362,0.08203,0.01396,0.83252,0.00000,0.00000,0.00000,17,11,65,19,38,-9,70,2,ok,0,0,0.001,5,2.18,0.91,11.86,34,0.088,8.21
5.2589,0.08203,0.01396,0.83252,0.00000,0.00000,0.00000,19,10,65,19,35,-7,70,2,ok,0,0,0.001,5,2.18,0.91,11.86,34,0.101,8.21
5.2620,0.08203,0.01396,0.83252,0.00000,0.00000,0.00000,19,10,65,21,33,-6,71,3,ok,0,0,0.001,5,2.18,0.91,11.86,34,0.114,8.21
5.2745,0.08203,0.01396,0.83252,0.00000,0.00000,0.00000,22,9,65,21,31,-5,71,5,ok,0,0,0.002,5,2.18,0.91,11.86,34,0.127,8.21
5.2948,0.08203,0.01396,0.83252,0.00000,0.00000,0.00000,23,8,65,22,29,-1,72,5,ok,0,0,0.002,5,2.18,0.91,11.86,34,0.140,8.21
5.2996,0.08203,0.01396,0.83252,0.00000,0.00000,0.00000,24,7,65,23,27,1,72,6,ok,0,0,0.002,5,2.18,0.91,11.86,34,0.152,8.21
5.3122,0.08203,0.01396,0.83252,0.00000,0.00000,0.00000,25,6,65,24,26,4,72,8,ok,0,0,0.002,5,2.18,0.91,11.86,34,0.165,8.21
5.3349,0.08203,0.01396,0.83252,0.00000,0.00000,0.00000,27,6,65,25,26,7,73,9,ok,0,0,0.002,5,2.18,0.91,11.86,34,0.177,8.21
5.3380,0.08203,0.01396,0.83252,0.00000,0.00000,0.00000,28,5,64,28,28,6,73,9,ok,0,0,0.002,5,2.18,0.91,11.86,34,0.190,8.21
5.3508,0.08378,0.03840,0.80285,0.00000,0.00000,0.00000,29,4,63,29,28,6,73,11,ok,0,0,0.002,5,1.27,0.89,10.99,35,0.000,8.21
5.3709,0.08378,0.03840,0.80285,0.00000,0.00000,0.00000,30,4,65,28,29,4,73,12,ok,0,0,0.002,5,1.27,0.89,10.99,35,0.013,8.21
5.3756,0.08378,0.03840,0.80285,0.00000,0.00000,0.00000,31,3,67,25,30,3,73,14,ok,0,0,0.002,5,1.27,0.89,10.99,35,0.025,8.21
5.3881,0.08378,0.03840,0.80285,0.00000,0.00000,0.00000,33,3,70,21,31,3,74,16,ok,0,0,0.002,5,1.27,0.89,10.99,35,0.038,8.21
5.4109,0.08378,0.03840,0.80285,0.00000,0.00000,0.00000,34,2,71,17,33,2,73,18,ok,0,0,0.002,5,1.27,0.89,10.99,35,0.050,8.21
5.4140,0.08378,0.03840,0.80285,0.00000,0.00000,0.00000,35,2,71,15,34,1,73,20,ok,0,0,0.002,5,1.27,0.89,10.99,35,0.063,8.21
5.4265,0.08378,0.03840,0.80285,0.00000,0.00000,0.00000,37,1,71,14,36,2,74,20,ok,0,0,0.002,5,1.27,0.89,10.99,35,0.076,8.21
5.4468,0.08378,0.03840,0.80285,0.00000,0.00000,0.00000,38,1,71,11,37,2,73,22,ok,0,0,0.002,5,1.27,0.89,10.99,35,0.089,8.21
5.4516,0.08378,0.03840,0.80285,0.00000,0.00000,0.00000,40,1,71,8,38,2,73,23,ok,0,0,0.002,5,1.27,0.89,10.99,35,0.101,8.21
5.4642,0.08378,0.03840,0.80285,0.00000,0.00000,0.00000,41,1,70,5,40,2,73,25,ok,0,0,0.002,5,1.27,0.89,10.99,35,0.114,8.21
5.4868,0.08378,0.03840,0.80285,0.00000,0.00000,0.00000,43,0,69,3,41,2,73,26,ok,0,0,0.002,5,1.27,0.89,10.99,35,0.126,8.21
5.4902,0.08378,0.03840,0.80285,0.00000,0.00000,0.00000,44,0,68,1,42,1,73,28,ok,0,0,0.002,5,1.27,0.89,10.99,35,0.139,8.21
5.5025,0.08378,0.03840,0.80285,0.00000,0.00000,0.00000,46,0,67,-1,43,1,72,29,ok,0,0,0.002,5,1.27,0.89,10.99,35,0.152,8.21
5.5228,0.08378,0.03840,0.80285,0.00000,0.00000,0.00000,46,0,65,-2,44,0,73,29,ok,0,0,0.002,5,1.27,0.89,10.99,35,0.165,8.21
5.5276,0.08378,0.03840,0.80285,0.00000,0.00000,0.00000,48,1,64,-4,46,0,75,28,ok,0,0,0.002,5,1.27,0.89,10.99,35,0.177,8.21
5.5402,0.08378,0.03840,0.80285,0.00000,0.00000,0.00000,49,1,63,-6,47,0,76,26,ok,0,0,0.002,5,1.27,0.89,10.99,35,0.190,8.21
5.5629,-0.09948,-0.02094,0.86045,0.00000,0.00000,0.00000,50,2,61,-7,48,1,78,21,ok,0,0,0.002,5,0.10,-1.32,10.07,36,0.000,8.21
5.5660,-0.09948,-0.02094,0.86045,0.00000,0.00000,0.00000,51,1,59,-8,48,0,80,17,ok,0,0,0.002,5,0.10,-1.32,10.07,36,0.013,8.21
5.5788,-0.09948,-0.02094,0.86045,0.00000,0.00000,0.00000,52,1,56,-8,50,0,81,14,ok,0,0,0.002,5,0.10,-1.32,10.07,36,0.026,8.21
5.5988,-0.09948,-0.02094,0.86045,0.00000,0.00000,0.00000,52,3,54,-9,51,0,81,14,ok,0,0,0.002,5,0.10,-1.32,10.07,36,0.038,8.21
5.6036,-0.09948,-0.02094,0.86045,0.00000,0.00000,0.00000,53,4,51,-9,52,0,81,11,ok,0,0,0.002,6,0.10,-1.32,10.07,36,0.051,8.21
5.6161,-0.09948,-0.02094,0.86045,0.00000,0.00000,0.00000,54,4,48,-9,53,0,81,7,ok,2,0,0.002,6,0.10,-1.32,10.07,36,0.063,8.21
5.6389,-0.09948,-0.02094,0.86045,0.00000,0.00000,0.00000,54,5,46,-8,54,1,81,4,ok,2,0,0.002,6,0.10,-1.32,10.07,36,0.076,8.21
5.6421,-0.09948,-0.02094,0.86045,0.00000,0.00000,0.00000,54,6,43,-9,55,1,80,2,ok,2,0,0.002,6,0.10,-1.32,10.07,36,0.089,8.21
5.6548,-0.09948,-0.02094,0.86045,0.00000,0.00000,0.00000,56,6,41,-9,56,1,79,-1,ok,2,0,0.002,6,0.10,-1.32,10.07,36,0.102,8.21
5.6749,-0.09948,-0.02094,0.86045,0.00000,0.00000,0.00000,57,6,39,-8,57,1,78,-3,ok,2,0,0.002,6,0.10,-1.32,10.07,36,0.115,8.21
5.6796,-0.09948,-0.02094,0.86045,0.00000,0.00000,0.00000,58,7,36,-7,58,1,77,-5,ok,2,0,0.002,6,0.10,-1.32,10.07,36,0.127,8.21
5.6922,-0.09948,-0.02094,0.86045,0.00000,0.00000,0.00000,58,8,33,-6,59,1,75,-7,ok,2,0,0.002,6,0.10,-1.32,10.07,36,0.140,8.21
5.7149,-0.09948,-0.02094,0.86045,0.00000,0.00000,0.00000,59,8,29,-5,60,1,72,-7,ok,2,0,0.002,6,0.10,-1.32,10.07,36,0.152,8.21
5.7180,-0.09948,-0.02094,0.86045,0.00000,0.00000,0.00000,60,9,26,-3,61,1,71,-9,ok,2,0,0.002,6,0.10,-1.32,10.07,36,0.165,8.21
5.7308,-0.09948,-0.02094,0.86045,0.00000,0.00000,0.00000,62,10,22,-1,62,1,69,-11,ok,2,0,0.002,6,0.10,-1.32,10.07,36,0.178,8.21
5.7508,-0.09948,-0.02094,0.86045,0.00000,0.00000,0.00000,62,10,20,0,64,-1,67,-12,ok,2,0,0.002,6,0.10,-1.32,10.07,36,0.190,8.21
5.7558,-0.05236,-0.05236,0.91106,0.00000,0.00000,0.00000,63,11,18,1,64,-1,65,-13,ok,2,0,0.002,6,-0.20,-1.19,10.51,37,0.000,8.21
5.7682,-0.05236,-0.05236,0.91106,0.00000,0.00000,0.00000,63,12,16,4,65,0,63,-13,ok,2,0,0.002,6,-0.20,-1.19,10.51,37,0.013,8.21
5.7908,-0.05236,-0.05236,0.91106,0.00000,0.00000,0.00000,64,12,14,7,65,0,61,-14,ok,2,0,0.002,6,-0.20,-1.19,10.51,37,0.025,8.21
5.7940,-0.05236,-0.05236,0.91106,0.00000,0.00000,0.00000,64,14,13,10,66,0,59,-15,ok,2,0,0.002,6,-0.20,-1.19,10.51,37,0.038,8.21
5.8065,-0.05236,-0.05236,0.91106,0.00000,0.00000,0.00000,65,14,11,12,67,0,56,-13,ok,2,0,0.002,6,-0.20,-1.19,10.51,37,0.051,8.21
5.8268,-0.05236,-0.05236,0.91106,0.00000,0.00000,0.00000,65,15,13,13,67,1,53,-12,ok,2,0,0.002,6,-0.20,-1.19,10.51,37,0.063,8.21
5.8316,-0.05236,-0.05236,0.91106,0.00000,0.00000,0.00000,65,16,12,13,68,1,51,-12,ok,2,0,0.002,6,-0.20,-1.19,10.51,37,0.076,8.21
5.8441,-0.05236,-0.05236,0.91106,0.00000,0.00000,0.00000,66,17,14,12,68,1,47,-11,ok,2,0,0.002,6,-0.20,-1.19,10.51,37,0.088,8.21
5.8669,-0.05236,-0.05236,0.91106,0.00000,0.00000,0.00000,66,18,15,11,69,2,45,-10,ok,2,0,0.002,6,-0.20,-1.19,10.51,37,0.101,8.21
5.8699,-0.05236,-0.05236,0.91106,0.00000,0.00000,0.00000,67,18,16,10,69,3,42,-9,ok,2,0,0.002,6,-0.20,-1.19,10.51,37,0.114,8.21
5.8825,-0.05236,-0.05236,0.91106,0.00000,0.00000,0.00000,67,19,17,9,69,3,39,-9,ok,2,0,0.002,6,-0.20,-1.19,10.51,37,0.127,8.21
5.9029,-0.05236,-0.05236,0.91106,0.00000,0.00000,0.00000,67,20,18,9,70,4,36,-7,ok,2,0,0.002,6,-0.20,-1.19,10.51,37,0.139,8.21
5.9076,-0.05236,-0.05236,0.91106,0.00000,0.00000,0.00000,68,21,20,8,71,5,34,-5,ok,2,0,0.002,6,-0.20,-1.19,10.51,37,0.152,8.21
5.9203,-0.05236,-0.05236,0.91106,0.00000,0.00000,0.00000,68,22,21,7,71,6,32,-4,ok,2,0,0.002,6,-0.20,-1.19,10.51,37,0.165,8.21
5.9429,-0.05236,-0.05236,0.91106,0.00000,0.00000,0.00000,68,23,22,7,70,7,30,-1,ok,2,0,0.002,6,-0.20,-1.19,10.51,37,0.177,8.21
5.9463,0.06981,-0.01571,0.92852,0.00000,0.00000,0.00000,68,24,23,6,71,8,29,2,ok,2,0,0.002,6,-0.33,0.87,10.20,38,0.000,8.21
5.9586,0.06981,-0.01571,0.92852,0.00000,0.00000,0.00000,67,25,25,5,71,9,28,5,ok,2,0,0.002,6,-0.33,0.87,10.20,38,0.013,8.21
5.9789,0.06981,-0.01571,0.92852,0.00000,0.00000,0.00000,66,28,26,5,71,11,27,7,ok,2,0,0.002,6,-0.33,0.87,10.20,38,0.025,8.21
5.9837,0.06981,-0.01571,0.92852,0.00000,0.00000,0.00000,65,29,27,4,71,12,29,6,ok,2,0,0.002,6,-0.33,0.87,10.20,38,0.038,8.21
5.9961,0.06981,-0.01571,0.92852,0.00000,0.00000,0.00000,67,28,28,4,71,13,29,5,ok,2,0,0.002,6,-0.33,0.87,10.20,38,0.050,8.21
6.0189,0.06981,-0.01571,0.92852,0.00000,0.00000,0.00000,69,25,30,3,71,15,31,3,ok,2,0,0.002,6,-0.33,0.87,10.20,38,0.063,8.21
6.0220,0.06981,-0.01571,0.92852,0.00000,0.00000,0.00000,71,21,31,2,71,16,32,3,ok,2,0,0.002,6,-0.33,0.87,10.20,38,0.076,8.21
6.0346,0.06981,-0.01571,0.92852,0.00000,0.00000,0.00000,72,17,32,2,71,18,33,3,ok,2,0,0.002,6,-0.33,0.87,10.20,38,0.089,8.21
6.0549,0.06981,-0.01571,0.92852,0.00000,0.00000,0.00000,73,15,33,2,71,19,34,2,ok,2,0,0.002,6,-0.33,0.87,10.20,38,0.101,8.21
6.0596,0.06981,-0.01571,0.92852,0.00000,0.00000,0.00000,72,14,35,2,70,21,36,1,ok,2,0,0.002,6,-0.33,0.87,10.20,38,0.114,8.21
6.0721,0.06981,-0.01571,0.92852,0.00000,0.00000,0.00000,72,11,36,2,70,22,38,1,ok,2,0,0.002,6,-0.33,0.87,10.20,38,0.126,8.21
6.0949,0.06981,-0.01571,0.92852,0.00000,0.00000,0.00000,72,7,38,2,70,24,39,2,ok,2,0,0.002,6,-0.33,0.87,10.20,38,0.139,8.21
6.0982,0.06981,-0.01571,0.92852,0.00000,0.00000,0.00000,71,5,39,2,71,26,41,1,ok,2,0,0.002,6,-0.33,0.87,10.20,38,0.152,8.21
6.1105,0.06981,-0.01571,0.92852,0.00000,0.00000,0.00000,70,1,40,2,70,27,42,1,ok,2,0,0.002,6,-0.33,0.87,10.20,38,0.165,8.21
6.1309,0.06981,-0.01571,0.92852,0.00000,0.00000,0.00000,69,-1,42,2,70,29,43,1,ok,2,0,0.002,6,-0.33,0.87,10.20,38,0.177,8.21
6.1355,0.06981,-0.01571,0.92852,0.00000,0.00000,0.00000,68,-3,43,2,70,29,44,1,ok,2,0,0.002,6,-0.33,0.87,10.20,38,0.190,8.21
6.1484,0.05061,0.01571,1.00356,0.00000,0.00000,0.00000,65,-4,44,2,71,29,45,1,ok,2,0,0.002,6,0.17,-0.42,11.37,39,0.000,8.21
6.1709,0.05061,0.01571,1.00356,0.00000,0.00000,0.00000,65,-6,45,3,73,26,47,0,ok,2,0,0.002,6,0.17,-0.42,11.37,39,0.013,8.21
6.1740,0.05061,0.01571,1.00356,0.00000,0.00000,0.00000,64,-8,46,3,75,22,48,0,ok,2,0,0.002,6,0.17,-0.42,11.37,39,0.026,8.21
6.1865,0.05061,0.01571,1.00356,0.00000,0.00000,0.00000,61,-9,48,4,76,17,49,0,ok,2,0,0.002,6,0.17,-0.42,11.37,39,0.039,8.21
6.2068,0.05061,0.01571,1.00356,0.00000,0.00000,0.00000,59,-10,49,3,78,14,49,0,ok,2,0,0.002,6,0.17,-0.42,11.37,39,0.051,8.21
6.2116,0.05061,0.01571,1.00356,0.00000,0.00000,0.00000,57,-10,50,3,78,14,50,0,ok,2,0,0.002,6,0.17,-0.42,11.37,39,0.064,8.21
6.2242,0.05061,0.01571,1.00356,0.00000,0.00000,0.00000,54,-11,50,5,78,11,51,0,ok,2,0,0.002,6,0.17,-0.42,11.37,39,0.076,8.21
6.2469,0.05061,0.01571,1.00356,0.00000,0.00000,0.00000,52,-11,51,6,78,8,52,0,ok,2,0,0.002,6,0.17,-0.42,11.37,39,0.089,8.21
6.2500,0.05061,0.01571,1.00356,0.00000,0.00000,0.00000,49,-11,52,6,78,5,53,0,ok,2,0,0.002,6,0.17,-0.42,11.37,39,0.102,8.21
6.2628,0.05061,0.01571,1.00356,0.00000,0.00000,0.00000,47,-11,53,6,77,3,54,0,ok,2,0,0.002,6,0.17,-0.42,11.37,39,0.115,8.21
6.2828,0.05061,0.01571,1.00356,0.00000,0.00000,0.00000,44,-11,53,7,76,-1,55,1,ok,2,0,0.002,6,0.17,-0.42,11.37,39,0.127,8.21
6.2876,0.05061,0.01571,1.00356,0.00000,0.00000,0.00000,42,-11,55,7,76,-3,55,0,ok,2,0,0.002,6,0.17,-0.42,11.37,39,0.139,8.21
6.3001,0.05061,0.01571,1.00356,0.00000,0.00000,0.00000,40,-10,56,7,75,-4,57,1,ok,2,0,0.002,6,0.17,-0.42,11.37,39,0.152,8.21
6.3229,0.05061,0.01571,1.00356,0.00000,0.00000,0.00000,37,-9,57,8,73,-7,57,-1,ok,2,0,0.002,6,0.17,-0.42,11.37,39,0.165,8.21
6.3260,0.05061,0.01571,1.00356,0.00000,0.00000,0.00000,34,-8,57,8,70,-7,58,0,ok,2,0,0.002,6,0.17,-0.42,11.37,39,0.178,8.21
6.3385,0.05061,0.01571,1.00356,0.00000,0.00000,0.00000,30,-6,58,9,69,-9,58,0,ok,2,0,0.002,6,0.17,-0.42,11.37,39,0.191,8.21
6.3589,0.11345,-0.02443,0.98262,0.00000,0.00000,0.00000,28,-4,58,9,68,-11,60,1,ok,2,0,0.002,6,-0.14,1.41,9.48,40,0.000,8.21
6.3636,0.11345,-0.02443,0.98262,0.00000,0.00000,0.00000,24,-2,60,11,66,-12,60,0,ok,2,0,0.002,6,-0.14,1.41,9.48,40,0.012,8.21
6.3762,0.11345,-0.02443,0.98262,0.00000,0.00000,0.00000,22,-1,61,11,64,-13,61,0,ok,2,0,0.002,6,-0.14,1.41,9.48,40,0.025,8.21
6.3989,0.11345,-0.02443,0.98262,0.00000,0.00000,0.00000,20,0,62,11,62,-13,64,-3,ok,2,0,0.002,6,-0.14,1.41,9.48,40,0.038,8.21
6.4020,0.11345,-0.02443,0.98262,0.00000,0.00000,0.00000,18,3,62,12,59,-14,64,-2,ok,0,0,0.002,6,-0.14,1.41,9.48,40,0.051,8.21
6.4145,0.11345,-0.02443,0.98262,0.00000,0.00000,0.00000,16,7,62,13,57,-14,65,-1,ok,0,0,0.002,6,-0.14,1.41,9.48,40,0.063,8.21
6.4348,0.11345,-0.02443,0.98262,0.00000,0.00000,0.00000,14,10,62,14,54,-13,65,-1,ok,0,0,0.002,6,-0.14,1.41,9.48,40,0.076,8.21
6.4397,0.11345,-0.02443,0.98262,0.00000,0.00000,0.00000,12,13,63,15,51,-13,66,-1,ok,0,0,0.002,6,-0.14,1.41,9.48,40,0.088,8.21
6.4521,0.11345,-0.02443,0.98262,0.00000,0.00000,0.00000,14,13,63,16,49,-13,67,0,ok,0,0,0.002,6,-0.14,1.41,9.48,40,0.101,8.21
6.4749,0.11345,-0.02443,0.98262,0.00000,0.00000,0.00000,14,13,63,17,46,-12,67,0,ok,0,0,0.002,6,-0.14,1.41,9.48,40,0.113,8.21
6.4782,0.11345,-0.02443,0.98262,0.00000,0.00000,0.00000,15,12,64,17,44,-11,68,1,ok,0,0,0.002,6,-0.14,1.41,9.48,40,0.127,8.21
6.4907,0.11345,-0.02443,0.98262,0.00000,0.00000,0.00000,17,12,64,18,40,-10,69,1,ok,0,0,0.002,6,-0.14,1.41,9.48,40,0.140,8.21
6.5108,0.11345,-0.02443,0.98262,0.00000,0.00000,0.00000,17,11,65,19,38,-9,70,2,ok,0,0,0.002,6,-0.14,1.41,9.48,40,0.152,8.21
6.5156,0.11345,-0.02443,0.98262,0.00000,0.00000,0.00000,19,10,65,20,34,-8,70,2,ok,0,0,0.002,6,-0.14,1.41,9.48,40,0.164,8.21
6.5282,0.11345,-0.02443,0.98262,0.00000,0.00000,0.00000,20,10,65,21,33,-6,71,3,ok,0,0,0.002,6,-0.14,1.41,9.48,40,0.177,8.21
6.5509,0.11345,-0.02443,0.98262,0.00000,0.00000,0.00000,22,9,66,21,31,-5,71,5,ok,0,0,0.002,6,-0.14,1.41,9.48,40,0.190,8.21
6.5542,0.09250,0.03316,0.98960,0.00000,0.00000,0.00000,23,8,66,23,28,-2,72,5,ok,0,0,0.002,6,1.56,1.04,10.11,41,0.000,8.21
6.5665,0.09250,0.03316,0.98960,0.00000,0.00000,0.00000,25,7,65,23,27,1,72,6,ok,0,0,0.002,6,1.56,1.04,10.11,41,0.013,8.21
6.5868,0.09250,0.03316,0.98960,0.00000,0.00000,0.00000,26,6,65,24,26,4,72,8,ok,0,0,0.002,6,1.56,1.04,10.11,41,0.025,8.21
6.5918,0.09250,0.03316,0.98960,0.00000,0.00000,0.00000,27,6,65,25,26,7,73,9,ok,0,0,0.002,6,1.56,1.04,10.11,41,0.038,8.21
6.6042,0.09250,0.03316,0.98960,0.00000,0.00000,0.00000,28,6,64,28,27,6,73,9,ok,0,0,0.002,6,1.56,1.04,10.11,41,0.050,8.21
6.6269,0.09250,0.03316,0.98960,0.00000,0.00000,0.00000,30,4,63,29,28,6,73,11,ok,0,0,0.002,7,1.56,1.04,10.11,41,0.063,8.21
6.6300,0.09250,0.03316,0.98960,0.00000,0.00000,0.00000,31,4,64,28,29,4,73,12,ok,0,0,0.002,7,1.56,1.04,10.11,41,0.076,8.21
6.6425,0.09250,0.03316,0.98960,0.00000,0.00000,0.00000,32,3,67,25,30,3,74,15,ok,0,0,0.002,7,1.56,1.04,10.11,41,0.089,8.21
6.6629,0.09250,0.03316,0.98960,0.00000,0.00000,0.00000,33,3,69,21,31,3,74,16,ok,0,0,0.002,7,1.56,1.04,10.11,41,0.101,8.21
6.6678,0.09250,0.03316,0.98960,0.00000,0.00000,0.00000,35,2,71,17,32,3,73,18,ok,0,0,0.002,7,1.56,1.04,10.11,41,0.114,8.21
6.6801,0.09250,0.03316,0.98960,0.00000,0.00000,0.00000,36,2,71,15,34,2,73,20,ok,0,0,0.002,7,1.56,1.04,10.11,41,0.126,8.21
6.7029,0.09250,0.03316,0.98960,0.00000,0.00000,0.00000,38,1,71,15,36,2,74,20,ok,0,0,0.002,7,1.56,1.04,10.11,41,0.139,8.21
6.7060,0.09250,0.03316,0.98960,0.00000,0.00000,0.00000,39,1,71,11,36,2,73,22,ok,0,0,0.002,7,1.56,1.04,10.11,41,0.152,8.21
6.7185,0.09250,0.03316,0.98960,0.00000,0.00000,0.00000,41,1,71,8,38,2,73,24,ok,0,0,0.002,7,1.56,1.04,10.11,41,0.165,8.21
6.7389,0.09250,0.03316,0.98960,0.00000,0.00000,0.00000,42,1,70,5,40,2,73,25,ok,0,0,0.002,7,1.56,1.04,10.11,41,0.177,8.21
6.7436,0.09250,0.03316,0.98960,0.00000,0.00000,0.00000,43,0,69,3,41,2,73,26,ok,0,0,0.002,7,1.56,1.04,10.11,41,0.190,8.21
6.7564,-0.02269,-0.05585,0.94248,0.00000,0.00000,0.00000,44,0,68,1,42,1,73,28,ok,0,0,0.002,7,-0.97,-0.45,10.07,42,0.000,8.21
6.7789,-0.02269,-0.05585,0.94248,0.00000,0.00000,0.00000,46,0,67,0,43,1,72,29,ok,0,0,0.002,7,-0.97,-0.45,10.07,42,0.013,8.21
6.7820,-0.02269,-0.05585,0.94248,0.00000,0.00000,0.00000,46,0,65,-1,44,0,74,29,ok,0,0,0.002,7,-0.97,-0.45,10.07,42,0.026,8.21
6.7945,-0.02269,-0.05585,0.94248,0.00000,0.00000,0.00000,48,0,64,-3,45,0,75,29,ok,0,0,0.002,7,-0.97,-0.45,10.07,42,0.039,8.21
6.8148,-0.02269,-0.05585,0.94248,0.00000,0.00000,0.00000,49,0,63,-6,47,0,77,26,ok,0,0,0.002,7,-0.97,-0.45,10.07,42,0.051,8.21
6.8198,-0.02269,-0.05585,0.94248,0.00000,0.00000,0.00000,50,1,61,-7,47,0,78,21,ok,0,0,0.002,7,-0.97,-0.45,10.07,42,0.064,8.21
6.8321,-0.02269,-0.05585,0.94248,0.00000,0.00000,0.00000,51,1,59,-8,48,0,80,17,ok,0,0,0.002,7,-0.97,-0.45,10.07,42,0.076,8.21
6.8548,-0.02269,-0.05585,0.94248,0.00000,0.00000,0.00000,52,1,57,-8,49,0,81,14,ok,0,0,0.002,7,-0.97,-0.45,10.07,42,0.089,8.21
6.8580,-0.02269,-0.05585,0.94248,0.00000,0.00000,0.00000,52,3,54,-9,51,0,81,14,ok,0,0,0.002,7,-0.97,-0.45,10.07,42,0.102,8.21
6.8705,-0.02269,-0.05585,0.94248,0.00000,0.00000,0.00000,53,4,51,-9,52,0,81,10,ok,0,0,0.002,7,-0.97,-0.45,10.07,42,0.114,8.21
6.8908,-0.02269,-0.05585,0.94248,0.00000,0.00000,0.00000,53,4,49,-9,53,0,81,7,ok,0,0,0.002,7,-0.97,-0.45,10.07,42,0.127,8.21
6.8955,-0.02269,-0.05585,0.94248,0.00000,0.00000,0.00000,54,5,46,-8,54,1,80,4,ok,2,0,0.002,7,-0.97,-0.45,10.07,42,0.139,8.21
6.9083,-0.02269,-0.05585,0.94248,0.00000,0.00000,0.00000,54,6,43,-9,55,1,80,2,ok,2,0,0.002,7,-0.97,-0.45,10.07,42,0.152,8.21
6.9309,-0.02269,-0.05585,0.94248,0.00000,0.00000,0.00000,56,6,41,-9,56,1,78,-2,ok,2,0,0.002,7,-0.97,-0.45,10.07,42,0.165,8.21
6.9340,-0.02269,-0.05585,0.94248,0.00000,0.00000,0.00000,57,6,39,-8,57,0,78,-3,ok,2,0,0.002,7,-0.97,-0.45,10.07,42,0.178,8.21
6.9465,-0.02269,-0.05585,0.94248,0.00000,0.00000,0.00000,58,7,35,-7,58,1,77,-5,ok,2,0,0.002,7,-0.97,-0.45,10.07,42,0.191,8.21
6.9668,-0.08029,-0.00349,1.01753,0.00000,0.00000,0.00000,59,8,33,-6,58,1,75,-7,ok,2,0,0.002,7,0.67,-0.63,10.33,43,0.000,8.21
6.9715,-0.08029,-0.00349,1.01753,0.00000,0.00000,0.00000,60,8,29,-5,59,1,72,-7,ok,2,0,0.002,7,0.67,-0.63,10.33,43,0.012,8.21
6.9843,-0.08029,-0.00349,1.01753,0.00000,0.00000,0.00000,60,9,26,-3,60,1,71,-9,ok,2,0,0.002,7,0.67,-0.63,10.33,43,0.025,8.21
7.0068,-0.08029,-0.00349,1.01753,0.00000,0.00000,0.00000,62,10,21,-1,61,1,70,-10,ok,2,0,0.002,7,0.67,-0.63,10.33,43,0.038,8.21
7.0100,-0.08029,-0.00349,1.01753,0.00000,0.00000,0.00000,62,10,20,0,64,-1,67,-12,ok,2,0,0.002,7,0.67,-0.63,10.33,43,0.051,8.21
7.0225,-0.08029,-0.00349,1.01753,0.00000,0.00000,0.00000,63,11,18,1,64,-1,65,-13,ok,2,0,0.002,7,0.67,-0.63,10.33,43,0.064,8.21
7.0428,-0.08029,-0.00349,1.01753,0.00000,0.00000,0.00000,64,12,16,4,65,0,63,-13,ok,2,0,0.002,7,0.67,-0.63,10.33,43,0.076,8.21
7.0476,-0.08029,-0.00349,1.01753,0.00000,0.00000,0.00000,64,12,14,7,65,0,61,-14,ok,2,0,0.002,7,0.67,-0.63,10.33,43,0.089,8.21
7.0603,-0.08029,-0.00349,1.01753,0.00000,0.00000,0.00000,64,13,12,10,66,1,59,-14,ok,2,0,0.002,7,0.67,-0.63,10.33,43,0.101,8.21
7.0829,-0.08029,-0.00349,1.01753,0.00000,0.00000,0.00000,65,14,11,13,67,1,56,-13,ok,2,0,0.002,7,0.67,-0.63,10.33,43,0.114,8.21
7.0860,-0.08029,-0.00349,1.01753,0.00000,0.00000,0.00000,65,15,12,13,67,1,53,-12,ok,2,0,0.002,7,0.67,-0.63,10.33,43,0.127,8.21
7.0985,-0.08029,-0.00349,1.01753,0.00000,0.00000,0.00000,65,16,12,13,68,1,51,-12,ok,2,0,0.002,7,0.67,-0.63,10.33,43,0.140,8.21
7.1188,-0.08029,-0.00349,1.01753,0.00000,0.00000,0.00000,66,17,14,12,68,1,47,-11,ok,2,0,0.002,7,0.67,-0.63,10.33,43,0.152,8.21
7.1236,-0.08029,-0.00349,1.01753,0.00000,0.00000,0.00000,66,18,15,11,69,2,45,-10,ok,2,0,0.002,7,0.67,-0.63,10.33,43,0.165,8.21
7.1361,-0.08029,-0.00349,1.01753,0.00000,0.00000,0.00000,67,18,15,10,69,3,42,-9,ok,2,0,0.002,7,0.67,-0.63,10.33,43,0.177,8.21
7.1589,-0.08029,-0.00349,1.01753,0.00000,0.00000,0.00000,67,18,17,9,69,4,40,-8,ok,2,0,0.002,7,0.67,-0.63,10.33,43,0.190,8.21
7.1623,0.03840,0.02967,1.01927,0.00000,0.00000,0.00000,67,20,17,9,70,5,36,-7,ok,2,0,0.002,7,-0.80,0.87,9.43,44,0.000,8.21
7.1747,0.03840,0.02967,1.01927,0.00000,0.00000,0.00000,68,21,20,8,71,5,35,-5,ok,2,0,0.002,7,-0.80,0.87,9.43,44,0.013,8.21
7.1948,0.03840,0.02967,1.01927,0.00000,0.00000,0.00000,68,22,21,7,71,7,32,-4,ok,2,0,0.002,7,-0.80,0.87,9.43,44,0.025,8.21
7.1996,0.03840,0.02967,1.01927,0.00000,0.00000,0.00000,67,23,22,7,70,8,30,-1,ok,2,0,0.002,7,-0.80,0.87,9.43,44,0.038,8.21
7.2122,0.03840,0.02967,1.01927,0.00000,0.00000,0.00000,67,24,23,6,71,9,29,1,ok,2,0,0.002,7,-0.80,0.87,9.43,44,0.050,8.21
7.2349,0.03840,0.02967,1.01927,0.00000,0.00000,0.00000,67,25,25,5,71,10,28,5,ok,2,0,0.002,7,-0.80,0.87,9.43,44,0.063,8.21
7.2382,0.03840,0.02967,1.01927,0.00000,0.00000,0.00000,66,28,26,5,71,11,27,7,ok,2,0,0.002,7,-0.80,0.87,9.43,44,0.076,8.21
7.2505,0.03840,0.02967,1.01927,0.00000,0.00000,0.00000,65,29,27,4,71,12,29,6,ok,2,0,0.002,7,-0.80,0.87,9.43,44,0.089,8.21
7.2709,0.03840,0.02967,1.01927,0.00000,0.00000,0.00000,67,28,28,4,71,13,29,6,ok,2,0,0.002,7,-0.80,0.87,9.43,44,0.101,8.21
7.2755,0.03840,0.02967,1.01927,0.00000,0.00000,0.00000,69,25,29,3,71,15,31,4,ok,2,0,0.002,7,-0.80,0.87,9.43,44,0.114,8.21
7.2882,0.03840,0.02967,1.01927,0.00000,0.00000,0.00000,72,21,30,2,71,16,32,3,ok,2,0,0.002,7,-0.80,0.87,9.43,44,0.126,8.21
7.3109,0.03840,0.02967,1.01927,0.00000,0.00000,0.00000,73,17,32,2,71,18,34,3,ok,2,0,0.002,7,-0.80,0.87,9.43,44,0.139,8.21
7.3141,0.03840,0.02967,1.01927,0.00000,0.00000,0.00000,73,15,33,2,72,19,35,2,ok,2,0,0.002,7,-0.80,0.87,9.43,44,0.152,8.21
7.3265,0.03840,0.02967,1.01927,0.00000,0.00000,0.00000,72,14,35,2,70,21,37,1,ok,2,0,0.002,7,-0.80,0.87,9.43,44,0.165,8.21
7.3469,0.03840,0.02967,1.01927,0.00000,0.00000,0.00000,72,11,36,2,70,23,39,1,ok,2,0,0.002,7,-0.80,0.87,9.43,44,0.177,8.21
7.3516,0.03840,0.02967,1.01927,0.00000,0.00000,0.00000,72,7,38,2,71,24,39,2,ok,2,0,0.002,7,-0.80,0.87,9.43,44,0.189,8.21
7.3643,0.03840,0.02967,1.01927,0.00000,0.00000,0.00000,71,5,39,2,71,26,41,1,ok,2,0,0.002,7,-0.80,0.87,9.43,44,0.202,8.21
7.3869,0.04712,0.01396,1.11352,0.00000,0.00000,0.00000,70,1,40,2,70,28,42,2,ok,2,0,0.002,7,0.93,1.02,11.13,45,0.000,8.21
7.3900,0.04712,0.01396,1.11352,0.00000,0.00000,0.00000,69,-1,41,2,70,29,43,2,ok,2,0,0.002,7,0.93,1.02,11.13,45,0.013,8.21
7.4028,0.04712,0.01396,1.11352,0.00000,0.00000,0.00000,68,-3,43,2,70,29,44,1,ok,2,0,0.002,7,0.93,1.02,11.13,45,0.026,8.21
7.4270,0.04712,0.01396,1.11352,0.00000,0.00000,0.00000,66,-4,43,2,72,29,45,1,ok,2,0,0.002,7,0.93,1.02,11.13,45,0.038,8.21
7.4301,0.04712,0.01396,1.11352,0.00000,0.00000,0.00000,65,-6,45,3,73,26,47,0,ok,2,0,0.002,7,0.93,1.02,11.13,45,0.054,8.21
7.4428,0.04712,0.01396,1.11352,0.00000,0.00000,0.00000,64,-8,46,3,75,22,48,0,ok,2,0,0.002,7,0.93,1.02,11.13,45,0.066,8.21
7.4629,0.04712,0.01396,1.11352,0.00000,0.00000,0.00000,61,-9,48,4,77,17,49,0,ok,2,0,0.002,7,0.93,1.02,11.13,45,0.079,8.21
7.4679,0.04712,0.01396,1.11352,0.00000,0.00000,0.00000,59,-10,49,3,78,15,50,0,ok,2,0,0.002,7,0.93,1.02,11.13,45,0.091,8.21
7.4802,0.04712,0.01396,1.11352,0.00000,0.00000,0.00000,57,-11,50,3,78,14,50,1,ok,2,0,0.002,7,0.93,1.02,11.13,45,0.104,8.21
7.5029,0.04712,0.01396,1.11352,0.00000,0.00000,0.00000,55,-11,50,5,78,12,51,1,ok,2,0,0.002,7,0.93,1.02,11.13,45,0.116,8.21
7.5060,0.04712,0.01396,1.11352,0.00000,0.00000,0.00000,52,-11,51,6,78,8,52,0,ok,2,0,0.002,7,0.93,1.02,11.13,45,0.129,8.21
7.5187,0.04712,0.01396,1.11352,0.00000,0.00000,0.00000,49,-11,52,6,78,5,53,0,ok,2,0,0.002,7,0.93,1.02,11.13,45,0.142,8.21
7.5389,0.04712,0.01396,1.11352,0.00000,0.00000,0.00000,47,-11,53,6,77,3,54,0,ok,2,0,0.002,7,0.93,1.02,11.13,45,0.155,8.21
7.5436,0.04712,0.01396,1.11352,0.00000,0.00000,0.00000,44,-11,53,7,76,0,55,1,ok,2,0,0.002,7,0.93,1.02,11.13,45,0.167,8.21
7.5563,0.04712,0.01396,1.11352,0.00000,0.00000,0.00000,42,-11,55,7,76,-3,55,0,ok,2,0,0.002,7,0.93,1.02,11.13,45,0.180,8.21
7.5789,0.08727,-0.03491,1.12399,0.00000,0.00000,0.00000,40,-10,56,7,75,-4,57,1,ok,2,0,0.002,7,-0.44,1.08,9.63,46,0.000,8.21
7.5820,0.08727,-0.03491,1.12399,0.00000,0.00000,0.00000,37,-9,57,8,73,-7,57,-1,ok,2,0,0.002,7,-0.44,1.08,9.63,46,0.013,8.21
7.5946,0.08727,-0.03491,1.12399,0.00000,0.00000,0.00000,34,-8,57,9,70,-7,58,0,ok,2,0,0.002,7,-0.44,1.08,9.63,46,0.026,8.21
7.6148,0.08727,-0.03491,1.12399,0.00000,0.00000,0.00000,31,-6,58,9,69,-9,58,0,ok,2,0,0.002,7,-0.44,1.08,9.63,46,0.039,8.21
7.6197,0.08727,-0.03491,1.12399,0.00000,0.00000,0.00000,28,-4,59,9,68,-11,60,0,ok,2,0,0.002,7,-0.44,1.08,9.63,46,0.051,8.21
7.6323,0.08727,-0.03491,1.12399,0.00000,0.00000,0.00000,24,-2,60,11,66,-12,60,0,ok,2,0,0.002,8,-0.44,1.08,9.63,46,0.064,8.21
7.6548,0.08727,-0.03491,1.12399,0.00000,0.00000,0.00000,22,-1,61,11,64,-13,61,0,ok,2,0,0.002,8,-0.44,1.08,9.63,46,0.076,8.21
7.6595,0.08727,-0.03491,1.12399,0.00000,0.00000,0.00000,20,1,62,12,62,-13,64,-2,ok,2,0,0.002,8,-0.44,1.08,9.63,46,0.090,8.21
7.6708,0.08727,-0.03491,1.12399,0.00000,0.00000,0.00000,18,3,62,12,59,-14,64,-1,ok,2,0,0.002,8,-0.44,1.08,9.63,46,0.102,8.21
7.6909,0.08727,-0.03491,1.12399,0.00000,0.00000,0.00000,16,7,62,13,57,-14,65,-1,ok,2,0,0.002,8,-0.44,1.08,9.63,46,0.115,8.21
7.6958,0.08727,-0.03491,1.12399,0.00000,0.00000,0.00000,14,10,62,14,54,-14,65,-1,ok,0,0,0.002,8,-0.44,1.08,9.63,46,0.127,8.21
7.7082,0.08727,-0.03491,1.12399,0.00000,0.00000,0.00000,13,13,63,15,51,-13,66,-1,ok,0,0,0.002,8,-0.44,1.08,9.63,46,0.140,8.21
7.7309,0.08727,-0.03491,1.12399,0.00000,0.00000,0.00000,14,13,63,16,49,-13,67,0,ok,0,0,0.002,8,-0.44,1.08,9.63,46,0.152,8.21
7.7340,0.08727,-0.03491,1.12399,0.00000,0.00000,0.00000,14,13,63,17,46,-11,68,0,ok,0,0,0.002,8,-0.44,1.08,9.63,46,0.165,8.21
7.7466,0.08727,-0.03491,1.12399,0.00000,0.00000,0.00000,16,12,64,17,43,-11,68,1,ok,0,0,0.002,8,-0.44,1.08,9.63,46,0.178,8.21
7.7669,0.08727,-0.03491,1.12399,0.00000,0.00000,0.00000,17,12,64,18,40,-10,69,1,ok,0,0,0.002,8,-0.44,1.08,9.63,46,0.191,8.21
7.7719,0.02094,-0.00175,1.15541,0.00000,0.00000,0.00000,18,11,65,19,38,-9,70,2,ok,0,0,0.002,8,1.28,0.20,11.30,47,0.000,8.21
7.7841,0.02094,-0.00175,1.15541,0.00000,0.00000,0.00000,20,10,65,20,35,-8,70,2,ok,0,0,0.002,8,1.28,0.20,11.30,47,0.013,8.21
7.8069,0.02094,-0.00175,1.15541,0.00000,0.00000,0.00000,20,10,65,21,33,-6,71,3,ok,0,0,0.002,8,1.28,0.20,11.30,47,0.025,8.21
7.8101,0.02094,-0.00175,1.15541,0.00000,0.00000,0.00000,22,9,65,22,31,-5,71,5,ok,0,0,0.002,8,1.28,0.20,11.30,47,0.038,8.21
7.8226,0.02094,-0.00175,1.15541,0.00000,0.00000,0.00000,23,8,65,23,28,-2,72,5,ok,0,0,0.002,8,1.28,0.20,11.30,47,0.051,8.21
7.8428,0.02094,-0.00175,1.15541,0.00000,0.00000,0.00000,25,7,65,23,27,1,72,7,ok,0,0,0.002,8,1.28,0.20,11.30,47,0.064,8.21
7.8477,0.02094,-0.00175,1.15541,0.00000,0.00000,0.00000,26,6,65,25,26,4,72,8,ok,0,0,0.002,8,1.28,0.20,11.30,47,0.076,8.21
7.8601,0.02094,-0.00175,1.15541,0.00000,0.00000,0.00000,27,6,65,25,26,7,73,9,ok,0,0,0.002,8,1.28,0.20,11.30,47,0.089,8.21
7.8829,0.02094,-0.00175,1.15541,0.00000,0.00000,0.00000,28,5,64,28,27,6,73,10,ok,0,0,0.002,8,1.28,0.20,11.30,47,0.101,8.21
7.8861,0.02094,-0.00175,1.15541,0.00000,0.00000,0.00000,30,4,63,29,28,6,73,11,ok,0,0,0.002,8,1.28,0.20,11.30,47,0.114,8.21
7.8986,0.02094,-0.00175,1.15541,0.00000,0.00000,0.00000,31,4,65,28,29,4,73,13,ok,0,0,0.002,8,1.28,0.20,11.30,47,0.127,8.21
7.9188,0.02094,-0.00175,1.15541,0.00000,0.00000,0.00000,32,3,67,25,30,3,73,15,ok,0,0,0.002,8,1.28,0.20,11.30,47,0.140,8.21
7.9236,0.02094,-0.00175,1.15541,0.00000,0.00000,0.00000,33,3,70,21,31,3,74,16,ok,0,0,0.002,8,1.28,0.20,11.30,47,0.152,8.21
7.9361,0.02094,-0.00175,1.15541,0.00000,0.00000,0.00000,35,2,71,17,32,2,73,18,ok,0,0,0.002,8,1.28,0.20,11.30,47,0.165,8.21
7.9589,0.02094,-0.00175,1.15541,0.00000,0.00000,0.00000,36,2,71,15,34,1,73,20,ok,0,0,0.002,8,1.28,0.20,11.30,47,0.177,8.21
7.9620,0.02094,-0.00175,1.15541,0.00000,0.00000,0.00000,38,1,71,15,36,2,74,20,ok,0,0,0.002,8,1.28,0.20,11.30,47,0.190,8.21
7.9749,0.01571,0.04189,1.09956,0.00000,0.00000,0.00000,39,1,71,11,36,2,73,22,ok,0,0,0.002,8,-1.14,1.39,9.78,48,0.000,8.21
7.9948,0.01571,0.04189,1.09956,0.00000,0.00000,0.00000,41,1,70,8,38,2,72,24,ok,0,0,0.002,8,-1.14,1.39,9.78,48,0.013,8.21
7.9998,0.01571,0.04189,1.09956,0.00000,0.00000,0.00000,42,1,70,6,40,1,73,25,ok,0,0,0.002,8,-1.14,1.39,9.78,48,0.025,8.21
8.0121,0.01571,0.04189,1.09956,0.00000,0.00000,0.00000,43,0,69,3,41,2,73,26,ok,0,0,0.002,8,-1.14,1.39,9.78,48,0.038,8.21
8.0349,0.01571,0.04189,1.09956,0.00000,0.00000,0.00000,44,0,68,1,42,1,72,28,ok,0,0,0.002,8,-1.14,1.39,9.78,48,0.050,8.21
8.0381,0.01571,0.04189,1.09956,0.00000,0.00000,0.00000,46,0,67,0,43,1,72,29,ok,0,0,0.002,8,-1.14,1.39,9.78,48,0.063,8.21
8.0506,0.01571,0.04189,1.09956,0.00000,0.00000,0.00000,46,0,65,-2,44,0,73,29,ok,0,0,0.002,8,-1.14,1.39,9.78,48,0.076,8.21
8.0708,0.01571,0.04189,1.09956,0.00000,0.00000,0.00000,48,1,64,-4,46,0,74,29,ok,0,0,0.002,8,-1.14,1.39,9.78,48,0.089,8.21
8.0756,0.01571,0.04189,1.09956,0.00000,0.00000,0.00000,49,1,63,-6,47,0,76,26,ok,0,0,0.002,8,-1.14,1.39,9.78,48,0.101,8.21
8.0881,0.01571,0.04189,1.09956,0.00000,0.00000,0.00000,50,2,61,-7,48,1,78,21,ok,0,0,0.002,8,-1.14,1.39,9.78,48,0.114,8.21
8.1109,0.01571,0.04189,1.09956,0.00000,0.00000,0.00000,52,1,58,-8,48,1,79,17,ok,0,0,0.002,8,-1.14,1.39,9.78,48,0.126,8.21
8.1139,0.01571,0.04189,1.09956,0.00000,0.00000,0.00000,52,1,56,-8,50,1,81,14,ok,0,0,0.002,8,-1.14,1.39,9.78,48,0.139,8.21
8.1268,0.01571,0.04189,1.09956,0.00000,0.00000,0.00000,52,4,54,-9,51,1,81,14,ok,0,0,0.002,8,-1.14,1.39,9.78,48,0.152,8.21
8.1469,0.01571,0.04189,1.09956,0.00000,0.00000,0.00000,53,5,51,-9,52,1,81,11,ok,2,0,0.002,8,-1.14,1.39,9.78,48,0.165,8.21
8.1517,0.01571,0.04189,1.09956,0.00000,0.00000,0.00000,54,4,48,-9,53,1,81,7,ok,2,0,0.002,8,-1.14,1.39,9.78,48,0.177,8.21
8.1643,0.01571,0.04189,1.09956,0.00000,0.00000,0.00000,54,5,46,-9,54,2,80,4,ok,2,0,0.002,8,-1.14,1.39,9.78,48,0.190,8.21
8.1869,-0.10821,-0.01396,1.17286,0.00000,0.00000,0.00000,55,6,43,-9,55,1,80,2,ok,2,0,0.002,8,0.30,-1.27,9.32,49,0.000,8.21
8.1901,-0.10821,-0.01396,1.17286,0.00000,0.00000,0.00000,57,6,41,-9,56,2,79,-1,ok,2,0,0.002,8,0.30,-1.27,9.32,49,0.013,8.21
8.2027,-0.10821,-0.01396,1.17286,0.00000,0.00000,0.00000,57,6,38,-8,57,0,79,-2,ok,2,0,0.002,8,0.30,-1.27,9.32,49,0.026,8.21
8.2228,-0.10821,-0.01396,1.17286,0.00000,0.00000,0.00000,59,7,35,-7,58,1,77,-4,ok,2,0,0.002,8,0.30,-1.27,9.32,49,0.039,8.21
8.2276,-0.10821,-0.01396,1.17286,0.00000,0.00000,0.00000,59,7,32,-6,59,1,75,-6,ok,2,0,0.002,8,0.30,-1.27,9.32,49,0.051,8.21
8.2401,-0.10821,-0.01396,1.17286,0.00000,0.00000,0.00000,60,8,29,-5,60,2,73,-7,ok,2,0,0.002,8,0.30,-1.27,9.32,49,0.064,8.21
8.2629,-0.10821,-0.01396,1.17286,0.00000,0.00000,0.00000,61,9,26,-3,61,2,71,-8,ok,2,0,0.002,8,0.30,-1.27,9.32,49,0.076,8.21
8.2660,-0.10821,-0.01396,1.17286,0.00000,0.00000,0.00000,62,10,21,-1,61,1,70,-10,ok,2,0,0.002,8,0.30,-1.27,9.32,49,0.089,8.21
8.2789,-0.10821,-0.01396,1.17286,0.00000,0.00000,0.00000,62,10,20,0,64,-1,68,-11,ok,2,0,0.002,8,0.30,-1.27,9.32,49,0.102,8.21
8.2989,-0.10821,-0.01396,1.17286,0.00000,0.00000,0.00000,63,11,18,2,64,0,65,-13,ok,2,0,0.002,8,0.30,-1.27,9.32,49,0.115,8.21
8.3037,-0.10821,-0.01396,1.17286,0.00000,0.00000,0.00000,64,11,16,4,65,0,63,-13,ok,2,0,0.002,8,0.30,-1.27,9.32,49,0.127,8.21
8.3161,-0.10821,-0.01396,1.17286,0.00000,0.00000,0.00000,64,12,14,7,65,0,61,-14,ok,2,0,0.002,8,0.30,-1.27,9.32,49,0.140,8.21
8.3389,-0.10821,-0.01396,1.17286,0.00000,0.00000,0.00000,64,13,12,10,66,1,59,-14,ok,2,0,0.002,8,0.30,-1.27,9.32,49,0.152,8.21
8.3419,-0.10821,-0.01396,1.17286,0.00000,0.00000,0.00000,65,14,11,13,67,1,56,-12,ok,2,0,0.002,8,0.30,-1.27,9.32,49,0.165,8.21
8.3548,-0.10821,-0.01396,1.17286,0.00000,0.00000,0.00000,65,15,12,13,67,1,53,-12,ok,2,0,0.002,8,0.30,-1.27,9.32,49,0.178,8.21
8.3748,-0.10821,-0.01396,1.17286,0.00000,0.00000,0.00000,65,16,12,13,68,1,51,-12,ok,2,0,0.002,8,0.30,-1.27,9.32,49,0.191,8.21
8.3799,-0.02094,0.02793,1.15366,0.00000,0.00000,0.00000,66,16,14,12,68,1,47,-11,ok,2,0,0.002,8,-0.38,-0.02,10.36,50,0.000,8.21
8.3921,-0.02094,0.02793,1.15366,0.00000,0.00000,0.00000,66,17,15,11,69,3,45,-10,ok,2,0,0.002,8,-0.38,-0.02,10.36,50,0.013,8.21
8.4149,-0.02094,0.02793,1.15366,0.00000,0.00000,0.00000,67,18,15,10,69,3,42,-9,ok,2,0,0.002,8,-0.38,-0.02,10.36,50,0.025,8.21
8.4180,-0.02094,0.02793,1.15366,0.00000,0.00000,0.00000,67,19,17,9,69,4,40,-9,ok,2,0,0.002,8,-0.38,-0.02,10.36,50,0.038,8.21
8.4306,-0.02094,0.02793,1.15366,0.00000,0.00000,0.00000,67,20,18,9,69,5,36,-7,ok,2,0,0.002,8,-0.38,-0.02,10.36,50,0.051,8.21
8.4508,-0.02094,0.02793,1.15366,0.00000,0.00000,0.00000,68,21,19,8,71,5,34,-5,ok,2,0,0.002,8,-0.38,-0.02,10.36,50,0.064,8.21
8.4558,-0.02094,0.02793,1.15366,0.00000,0.00000,0.00000,68,22,21,7,71,6,32,-3,ok,2,0,0.002,8,-0.38,-0.02,10.36,50,0.076,8.21
8.4681,-0.02094,0.02793,1.15366,0.00000,0.00000,0.00000,68,23,22,7,70,8,30,0,ok,2,0,0.002,8,-0.38,-0.02,10.36,50,0.089,8.21
8.4909,-0.02094,0.02793,1.15366,0.00000,0.00000,0.00000,68,24,23,6,71,8,29,2,ok,2,0,0.002,8,-0.38,-0.02,10.36,50,0.101,8.21
8.4940,-0.02094,0.02793,1.15366,0.00000,0.00000,0.00000,67,25,24,5,71,9,28,6,ok,2,0,0.002,8,-0.38,-0.02,10.36,50,0.114,8.21
8.5066,-0.02094,0.02793,1.15366,0.00000,0.00000,0.00000,67,28,25,5,71,11,27,8,ok,2,0,0.002,8,-0.38,-0.02,10.36,50,0.127,8.21
8.5268,-0.02094,0.02793,1.15366,0.00000,0.00000,0.00000,66,29,27,4,71,12,29,6,ok,2,0,0.002,8,-0.38,-0.02,10.36,50,0.140,8.21
8.5316,-0.02094,0.02793,1.15366,0.00000,0.00000,0.00000,67,28,28,4,71,13,30,6,ok,2,0,0.002,8,-0.38,-0.02,10.36,50,0.152,8.21
8.5440,-0.02094,0.02793,1.15366,0.00000,0.00000,0.00000,69,25,29,3,71,15,31,4,ok,2,0,0.002,8,-0.38,-0.02,10.36,50,0.165,8.21
8.5669,-0.02094,0.02793,1.15366,0.00000,0.00000,0.00000,72,21,31,3,71,16,32,3,ok,2,0,0.002,8,-0.38,-0.02,10.36,50,0.177,8.21
8.5702,-0.01571,0.05236,1.24791,0.00000,0.00000,0.00000,73,17,32,2,71,18,34,3,ok,2,0,0.002,8,2.10,-0.87,11.36,51,0.000,8.21
8.5826,-0.01571,0.05236,1.24791,0.00000,0.00000,0.00000,73,15,33,2,72,19,35,2,ok,2,0,0.002,8,2.10,-0.87,11.36,51,0.013,8.21
8.6029,-0.01571,0.05236,1.24791,0.00000,0.00000,0.00000,72,14,35,2,71,21,36,2,ok,2,0,0.002,8,2.10,-0.87,11.36,51,0.025,8.21
8.6078,-0.01571,0.05236,1.24791,0.00000,0.00000,0.00000,72,11,36,2,71,23,38,2,ok,2,0,0.002,8,2.10,-0.87,11.36,51,0.038,8.21
8.6201,-0.01571,0.05236,1.24791,0.00000,0.00000,0.00000,72,8,37,2,71,24,39,2,ok,2,0,0.002,8,2.10,-0.87,11.36,51,0.050,8.21
8.6429,-0.01571,0.05236,1.24791,0.00000,0.00000,0.00000,71,5,38,2,71,26,41,2,ok,2,0,0.002,8,2.10,-0.87,11.36,51,0.063,8.21
8.6459,-0.01571,0.05236,1.24791,0.00000,0.00000,0.00000,70,1,40,2,70,28,42,2,ok,2,0,0.002,9,2.10,-0.87,11.36,51,0.076,8.21
8.6586,-0.01571,0.05236,1.24791,0.00000,0.00000,0.00000,69,-1,41,2,70,29,43,2,ok,2,0,0.002,9,2.10,-0.87,11.36,51,0.089,8.21
8.6829,-0.01571,0.05236,1.24791,0.00000,0.00000,0.00000,68,-3,43,2,70,29,44,1,ok,2,0,0.002,9,2.10,-0.87,11.36,51,0.101,8.21
8.6860,-0.01571,0.05236,1.24791,0.00000,0.00000,0.00000,66,-4,43,2,72,29,45,1,ok,2,0,0.002,9,2.10,-0.87,11.36,51,0.116,8.21
8.6985,-0.01571,0.05236,1.24791,0.00000,0.00000,0.00000,65,-6,45,2,73,27,47,1,ok,2,0,0.002,9,2.10,-0.87,11.36,51,0.129,8.21
8.7189,-0.01571,0.05236,1.24791,0.00000,0.00000,0.00000,64,-8,46,2,75,22,48,1,ok,2,0,0.002,9,2.10,-0.87,11.36,51,0.141,8.21
8.7236,-0.01571,0.05236,1.24791,0.00000,0.00000,0.00000,62,-9,48,3,77,17,49,1,ok,2,0,0.002,9,2.10,-0.87,11.36,51,0.154,8.21
8.7361,-0.01571,0.05236,1.24791,0.00000,0.00000,0.00000,59,-10,49,3,78,15,49,1,ok,2,0,0.002,9,2.10,-0.87,11.36,51,0.166,8.21
8.7589,-0.01571,0.05236,1.24791,0.00000,0.00000,0.00000,57,-11,50,3,78,14,50,1,ok,2,0,0.002,9,2.10,-0.87,11.36,51,0.179,8.21
8.7620,-0.01571,0.05236,1.24791,0.00000,0.00000,0.00000,55,-12,50,5,78,12,51,1,ok,2,0,0.002,9,2.10,-0.87,11.36,51,0.192,8.21
8.7749,-0.01571,0.05236,1.24791,0.00000,0.00000,0.00000,52,-11,51,6,78,8,52,1,ok,2,0,0.003,9,2.10,-0.87,11.36,51,0.205,8.21
8.7949,0.11345,0.02094,1.23569,0.00000,0.00000,0.00000,49,-11,52,5,78,5,53,1,ok,2,0,0.003,9,-0.99,0.57,9.43,52,0.000,8.21
8.7996,0.11345,0.02094,1.23569,0.00000,0.00000,0.00000,47,-11,53,6,77,3,54,0,ok,2,0,0.003,9,-0.99,0.57,9.43,52,0.012,8.21
8.8121,0.11345,0.02094,1.23569,0.00000,0.00000,0.00000,44,-11,53,7,76,0,55,1,ok,2,0,0.003,9,-0.99,0.57,9.43,52,0.025,8.21
8.8348,0.11345,0.02094,1.23569,0.00000,0.00000,0.00000,42,-11,55,7,76,-2,56,0,ok,2,0,0.003,9,-0.99,0.57,9.43,52,0.038,8.21
8.8381,0.11345,0.02094,1.23569,0.00000,0.00000,0.00000,40,-10,56,7,75,-4,57,0,ok,2,0,0.003,9,-0.99,0.57,9.43,52,0.051,8.21
8.8506,0.11345,0.02094,1.23569,0.00000,0.00000,0.00000,37,-9,57,8,73,-7,57,-1,ok,2,0,0.003,9,-0.99,0.57,9.43,52,0.064,8.21
8.8708,0.11345,0.02094,1.23569,0.00000,0.00000,0.00000,34,-7,57,8,70,-6,58,0,ok,2,0,0.003,9,-0.99,0.57,9.43,52,0.076,8.21
8.8756,0.11345,0.02094,1.23569,0.00000,0.00000,0.00000,31,-6,58,9,69,-9,58,0,ok,2,0,0.003,9,-0.99,0.57,9.43,52,0.088,8.21
8.8881,0.11345,0.02094,1.23569,0.00000,0.00000,0.00000,28,-4,58,9,68,-10,60,1,ok,2,0,0.003,9,-0.99,0.57,9.43,52,0.101,8.21
8.9109,0.11345,0.02094,1.23569,0.00000,0.00000,0.00000,24,-1,59,11,66,-12,60,1,ok,2,0,0.003,9,-0.99,0.57,9.43,52,0.114,8.21
8.9140,0.11345,0.02094,1.23569,0.00000,0.00000,0.00000,22,-1,60,11,64,-12,61,0,ok,2,0,0.003,9,-0.99,0.57,9.43,52,0.127,8.21
8.9266,0.11345,0.02094,1.23569,0.00000,0.00000,0.00000,20,1,61,11,62,-13,64,-2,ok,2,0,0.003,9,-0.99,0.57,9.43,52,0.140,8.21
8.9468,0.11345,0.02094,1.23569,0.00000,0.00000,0.00000,18,3,62,12,59,-13,64,-1,ok,2,0,0.003,9,-0.99,0.57,9.43,52,0.152,8.21
8.9518,0.11345,0.02094,1.23569,0.00000,0.00000,0.00000,16,7,62,13,57,-14,65,-1,ok,2,0,0.003,9,-0.99,0.57,9.43,52,0.165,8.21
8.9642,0.11345,0.02094,1.23569,0.00000,0.00000,0.00000,14,10,62,14,54,-13,66,0,ok,2,0,0.003,9,-0.99,0.57,9.43,52,0.177,8.21
8.9869,0.02443,-0.02793,1.25489,0.00000,0.00000,0.00000,13,13,63,15,51,-12,66,-1,ok,2,0,0.003,9,-0.38,0.41,9.26,53,0.000,8.21
8.9902,0.02443,-0.02793,1.25489,0.00000,0.00000,0.00000,14,13,63,16,49,-12,67,0,ok,2,0,0.003,9,-0.38,0.41,9.26,53,0.013,8.21
9.0025,0.02443,-0.02793,1.25489,0.00000,0.00000,0.00000,15,13,63,17,46,-11,68,0,ok,2,0,0.003,9,-0.38,0.41,9.26,53,0.026,8.21
9.0228,0.02443,-0.02793,1.25489,0.00000,0.00000,0.00000,16,12,64,17,44,-11,69,1,ok,2,0,0.003,9,-0.38,0.41,9.26,53,0.038,8.21
9.0276,0.02443,-0.02793,1.25489,0.00000,0.00000,0.00000,17,11,64,19,41,-10,70,1,ok,0,0,0.003,9,-0.38,0.41,9.26,53,0.051,8.21
9.0401,0.02443,-0.02793,1.25489,0.00000,0.00000,0.00000,18,11,65,19,38,-9,70,2,ok,0,0,0.003,9,-0.38,0.41,9.26,53,0.063,8.21
9.0629,0.02443,-0.02793,1.25489,0.00000,0.00000,0.00000,20,10,65,20,35,-8,70,3,ok,0,0,0.003,9,-0.38,0.41,9.26,53,0.076,8.21
9.0659,0.02443,-0.02793,1.25489,0.00000,0.00000,0.00000,20,10,65,21,33,-6,71,3,ok,0,0,0.003,9,-0.38,0.41,9.26,53,0.089,8.21
9.0785,0.02443,-0.02793,1.25489,0.00000,0.00000,0.00000,22,8,66,22,31,-5,71,5,ok,0,0,0.003,9,-0.38,0.41,9.26,53,0.102,8.21
9.0989,0.02443,-0.02793,1.25489,0.00000,0.00000,0.00000,23,7,66,23,28,-2,72,5,ok,0,0,0.003,9,-0.38,0.41,9.26,53,0.114,8.21
9.1037,0.02443,-0.02793,1.25489,0.00000,0.00000,0.00000,25,7,65,23,27,1,72,7,ok,0,0,0.003,9,-0.38,0.41,9.26,53,0.127,8.21
9.1161,0.02443,-0.02793,1.25489,0.00000,0.00000,0.00000,26,6,65,25,26,4,72,8,ok,0,0,0.003,9,-0.38,0.41,9.26,53,0.139,8.21
9.1388,0.02443,-0.02793,1.25489,0.00000,0.00000,0.00000,27,6,65,25,26,6,72,9,ok,0,0,0.003,9,-0.38,0.41,9.26,53,0.152,8.21
9.1420,0.02443,-0.02793,1.25489,0.00000,0.00000,0.00000,28,5,64,28,27,6,73,10,ok,0,0,0.003,9,-0.38,0.41,9.26,53,0.165,8.21
9.1545,0.02443,-0.02793,1.25489,0.00000,0.00000,0.00000,30,4,63,29,28,6,73,12,ok,0,0,0.003,9,-0.38,0.41,9.26,53,0.178,8.21
9.1749,0.02443,-0.02793,1.25489,0.00000,0.00000,0.00000,31,4,65,28,29,3,73,13,ok,0,0,0.003,9,-0.38,0.41,9.26,53,0.190,8.21
9.1798,-0.01396,0.01396,1.24267,0.00000,0.00000,0.00000,32,3,67,25,30,3,73,15,ok,0,0,0.003,9,0.81,0.21,11.50,54,0.000,8.21
9.1924,-0.01396,0.01396,1.24267,0.00000,0.00000,0.00000,33,3,70,21,31,3,73,16,ok,0,0,0.003,9,0.81,0.21,11.50,54,0.013,8.21
9.2149,-0.01396,0.01396,1.24267,0.00000,0.00000,0.00000,35,2,71,18,32,2,73,18,ok,0,0,0.003,9,0.81,0.21,11.50,54,0.025,8.21
9.2179,-0.01396,0.01396,1.24267,0.00000,0.00000,0.00000,36,2,71,15,34,1,73,20,ok,0,0,0.003,9,0.81,0.21,11.50,54,0.038,8.21
9.2305,-0.01396,0.01396,1.24267,0.00000,0.00000,0.00000,38,1,71,15,36,2,74,20,ok,0,0,0.003,9,0.81,0.21,11.50,54,0.051,8.21
9.2509,-0.01396,0.01396,1.24267,0.00000,0.00000,0.00000,39,1,71,11,36,2,73,23,ok,0,0,0.003,9,0.81,0.21,11.50,54,0.064,8.21
9.2556,-0.01396,0.01396,1.24267,0.00000,0.00000,0.00000,41,1,70,9,38,2,72,24,ok,0,0,0.003,9,0.81,0.21,11.50,54,0.076,8.21
9.2681,-0.01396,0.01396,1.24267,0.00000,0.00000,0.00000,42,1,70,6,40,1,73,25,ok,0,0,0.003,9,0.81,0.21,11.50,54,0.089,8.21
9.2908,-0.01396,0.01396,1.24267,0.00000,0.00000,0.00000,43,0,69,3,41,2,73,26,ok,0,0,0.003,9,0.81,0.21,11.50,54,0.101,8.21
9.2940,-0.01396,0.01396,1.24267,0.00000,0.00000,0.00000,45,0,68,1,42,1,72,28,ok,0,0,0.003,9,0.81,0.21,11.50,54,0.114,8.21
9.3065,-0.01396,0.01396,1.24267,0.00000,0.00000,0.00000,46,0,67,0,43,1,72,29,ok,0,0,0.003,9,0.81,0.21,11.50,54,0.127,8.21
9.3269,-0.01396,0.01396,1.24267,0.00000,0.00000,0.00000,46,0,65,-1,44,0,73,29,ok,0,0,0.003,9,0.81,0.21,11.50,54,0.140,8.21
9.3318,-0.01396,0.01396,1.24267,0.00000,0.00000,0.00000,48,1,64,-4,46,0,74,29,ok,0,0,0.003,9,0.81,0.21,11.50,54,0.152,8.21
9.3441,-0.01396,0.01396,1.24267,0.00000,0.00000,0.00000,49,1,63,-6,47,0,76,26,ok,0,0,0.003,9,0.81,0.21,11.50,54,0.165,8.21
9.3669,-0.01396,0.01396,1.24267,0.00000,0.00000,0.00000,51,2,61,-7,48,0,78,21,ok,0,0,0.003,9,0.81,0.21,11.50,54,0.177,8.21
9.3699,-0.01396,0.01396,1.24267,0.00000,0.00000,0.00000,52,1,58,-8,49,0,79,17,ok,0,0,0.003,9,0.81,0.21,11.50,54,0.190,8.21
9.3829,-0.01396,0.01396,1.24267,0.00000,0.00000,0.00000,52,2,56,-8,50,0,81,14,ok,2,0,0.003,9,0.81,0.21,11.50,54,0.203,8.21
9.4029,-0.05760,0.02793,1.26187,0.00000,0.00000,0.00000,52,4,54,-9,51,0,81,14,ok,2,0,0.003,9,0.60,-1.15,10.99,55,0.000,8.21
9.4077,-0.05760,0.02793,1.26187,0.00000,0.00000,0.00000,53,5,51,-9,52,1,81,11,ok,2,0,0.003,9,0.60,-1.15,10.99,55,0.012,8.21
9.4201,-0.05760,0.02793,1.26187,0.00000,0.00000,0.00000,54,4,48,-9,53,1,81,7,ok,2,0,0.003,9,0.60,-1.15,10.99,55,0.025,8.21
9.4428,-0.05760,0.02793,1.26187,0.00000,0.00000,0.00000,55,5,46,-8,54,1,80,4,ok,2,0,0.003,9,0.60,-1.15,10.99,55,0.038,8.21
9.4461,-0.05760,0.02793,1.26187,0.00000,0.00000,0.00000,55,6,43,-9,55,1,80,3,ok,2,0,0.003,9,0.60,-1.15,10.99,55,0.051,8.21
9.4585,-0.05760,0.02793,1.26187,0.00000,0.00000,0.00000,57,6,41,-9,56,2,79,-1,ok,2,0,0.003,9,0.60,-1.15,10.99,55,0.064,8.21
9.4788,-0.05760,0.02793,1.26187,0.00000,0.00000,0.00000,57,6,38,-8,57,1,79,-3,ok,2,0,0.003,9,0.60,-1.15,10.99,55,0.076,8.21
9.4836,-0.05760,0.02793,1.26187,0.00000,0.00000,0.00000,59,7,35,-7,58,2,77,-4,ok,2,0,0.003,9,0.60,-1.15,10.99,55,0.088,8.21
9.4961,-0.05760,0.02793,1.26187,0.00000,0.00000,0.00000,59,8,32,-6,59,2,75,-6,ok,2,0,0.003,9,0.60,-1.15,10.99,55,0.101,8.21
9.5189,-0.05760,0.02793,1.26187,0.00000,0.00000,0.00000,60,8,28,-5,60,2,72,-7,ok,2,0,0.003,9,0.60,-1.15,10.99,55,0.113,8.21
9.5220,-0.05760,0.02793,1.26187,0.00000,0.00000,0.00000,60,9,26,-3,61,2,71,-9,ok,2,0,0.003,9,0.60,-1.15,10.99,55,0.127,8.21
9.5345,-0.05760,0.02793,1.26187,0.00000,0.00000,0.00000,62,10,21,-1,62,1,70,-10,ok,2,0,0.003,9,0.60,-1.15,10.99,55,0.140,8.21
9.5548,-0.05760,0.02793,1.26187,0.00000,0.00000,0.00000,62,10,20,0,64,-1,68,-12,ok,2,0,0.003,9,0.60,-1.15,10.99,55,0.152,8.21
9.5597,-0.05760,0.02793,1.26187,0.00000,0.00000,0.00000,63,11,18,1,64,0,65,-13,ok,2,0,0.003,9,0.60,-1.15,10.99,55,0.164,8.21
9.5721,-0.05760,0.02793,1.26187,0.00000,0.00000,0.00000,64,12,16,4,65,1,64,-13,ok,2,0,0.003,9,0.60,-1.15,10.99,55,0.177,8.21
9.5949,-0.05760,0.02793,1.26187,0.00000,0.00000,0.00000,64,12,14,7,65,1,61,-13,ok,2,0,0.003,9,0.60,-1.15,10.99,55,0.189,8.21
9.5982,-0.03491,-0.03840,1.29154,0.00000,0.00000,0.00000,64,13,12,10,66,1,59,-14,ok,2,0,0.003,9,-0.50,-0.33,9.18,56,0.000,8.21
9.6107,-0.03491,-0.03840,1.29154,0.00000,0.00000,0.00000,65,14,10,13,67,1,56,-12,ok,2,0,0.003,9,-0.50,-0.33,9.18,56,0.013,8.21
9.6308,-0.03491,-0.03840,1.29154,0.00000,0.00000,0.00000,65,15,12,13,67,1,53,-12,ok,2,0,0.003,9,-0.50,-0.33,9.18,56,0.025,8.21
9.6356,-0.03491,-0.03840,1.29154,0.00000,0.00000,0.00000,66,16,12,13,68,1,51,-12,ok,2,0,0.003,9,-0.50,-0.33,9.18,56,0.038,8.21
9.6481,-0.03491,-0.03840,1.29154,0.00000,0.00000,0.00000,67,17,14,12,68,2,48,-11,ok,2,0,0.003,9,-0.50,-0.33,9.18,56,0.050,8.21
9.6709,-0.03491,-0.03840,1.29154,0.00000,0.00000,0.00000,67,18,15,11,69,3,46,-10,ok,2,0,0.003,9,-0.50,-0.33,9.18,56,0.063,8.21
9.6740,-0.03491,-0.03840,1.29154,0.00000,0.00000,0.00000,67,18,15,10,69,3,42,-9,ok,2,0,0.003,10,-0.50,-0.33,9.18,56,0.076,8.21
9.6866,-0.03491,-0.03840,1.29154,0.00000,0.00000,0.00000,68,19,17,9,69,4,40,-8,ok,2,0,0.003,10,-0.50,-0.33,9.18,56,0.089,8.21
9.7069,-0.03491,-0.03840,1.29154,0.00000,0.00000,0.00000,68,20,18,9,69,5,36,-6,ok,2,0,0.003,10,-0.50,-0.33,9.18,56,0.101,8.21
9.7116,-0.03491,-0.03840,1.29154,0.00000,0.00000,0.00000,69,21,20,8,70,5,35,-5,ok,2,0,0.003,10,-0.50,-0.33,9.18,56,0.114,8.21
9.7243,-0.03491,-0.03840,1.29154,0.00000,0.00000,0.00000,69,22,21,7,70,6,32,-3,ok,2,0,0.003,10,-0.50,-0.33,9.18,56,0.126,8.21
9.7469,-0.03491,-0.03840,1.29154,0.00000,0.00000,0.00000,68,23,22,7,70,8,30,0,ok,2,0,0.003,10,-0.50,-0.33,9.18,56,0.139,8.21
9.7500,-0.03491,-0.03840,1.29154,0.00000,0.00000,0.00000,68,24,23,6,71,8,29,2,ok,2,0,0.003,10,-0.50,-0.33,9.18,56,0.152,8.21
9.7625,-0.03491,-0.03840,1.29154,0.00000,0.00000,0.00000,68,25,25,6,71,9,28,5,ok,2,0,0.003,10,-0.50,-0.33,9.18,56,0.165,8.21
9.7829,-0.03491,-0.03840,1.29154,0.00000,0.00000,0.00000,67,28,26,5,71,10,27,7,ok,2,0,0.003,10,-0.50,-0.33,9.18,56,0.177,8.21
9.7878,0.06283,-0.02094,1.35787,0.00000,0.00000,0.00000,66,29,27,4,71,12,29,6,ok,2,0,0.003,10,1.10,0.44,15.81,57,0.000,8.21
9.8001,0.06283,-0.02094,1.35787,0.00000,0.00000,0.00000,67,28,28,4,71,13,30,6,ok,2,0,0.003,10,1.10,0.44,15.81,57,0.013,8.21
9.8229,0.06283,-0.02094,1.35787,0.00000,0.00000,0.00000,70,25,30,3,71,15,31,4,ok,2,0,0.003,10,1.10,0.44,15.81,57,0.025,8.21
9.8260,0.06283,-0.02094,1.35787,0.00000,0.00000,0.00000,72,21,31,3,71,16,32,3,ok,2,0,0.003,10,1.10,0.44,15.81,57,0.038,8.21
9.8384,0.06283,-0.02094,1.35787,0.00000,0.00000,0.00000,73,17,32,2,70,18,33,3,ok,2,0,0.003,10,1.10,0.44,15.81,57,0.051,8.21
9.8589,0.06283,-0.02094,1.35787,0.00000,0.00000,0.00000,73,15,33,2,71,19,35,2,ok,2,0,0.003,10,1.10,0.44,15.81,57,0.064,8.21
9.8635,0.06283,-0.02094,1.35787,0.00000,0.00000,0.00000,73,14,35,2,70,21,36,1,ok,2,0,0.003,10,1.10,0.44,15.81,57,0.076,8.21
9.8761,0.06283,-0.02094,1.35787,0.00000,0.00000,0.00000,73,11,36,2,70,22,38,1,ok,2,0,0.003,10,1.10,0.44,15.81,57,0.089,8.21
9.8988,0.06283,-0.02094,1.35787,0.00000,0.00000,0.00000,72,8,37,2,70,24,39,2,ok,2,0,0.003,10,1.10,0.44,15.81,57,0.101,8.21
9.9019,0.06283,-0.02094,1.35787,0.00000,0.00000,0.00000,72,5,39,2,71,25,41,2,ok,2,0,0.003,10,1.10,0.44,15.81,57,0.114,8.21
9.9145,0.06283,-0.02094,1.35787,0.00000,0.00000,0.00000,71,1,40,2,70,27,42,2,ok,2,0,0.003,10,1.10,0.44,15.81,57,0.127,8.21
9.9348,0.06283,-0.02094,1.35787,0.00000,0.00000,0.00000,70,-1,41,2,70,29,43,2,ok,2,0,0.003,10,1.10,0.44,15.81,57,0.140,8.21
9.9397,0.06283,-0.02094,1.35787,0.00000,0.00000,0.00000,68,-3,43,2,70,29,44,1,ok,2,0,0.003,10,1.10,0.44,15.81,57,0.152,8.21
9.9521,0.06283,-0.02094,1.35787,0.00000,0.00000,0.00000,66,-4,43,2,71,29,46,1,ok,2,0,0.003,10,1.10,0.44,15.81,57,0.165,8.21
9.9749,0.06283,-0.02094,1.35787,0.00000,0.00000,0.00000,65,-6,45,3,73,26,47,0,ok,2,0,0.003,10,1.10,0.44,15.81,57,0.177,8.21
9.9779,0.06283,-0.02094,1.35787,0.00000,0.00000,0.00000,64,-8,46,3,75,22,48,0,ok,2,0,0.003,10,1.10,0.44,15.81,57,0.190,8.21
9.9908,0.09250,0.05061,1.39626,0.00000,0.00000,0.00000,62,-9,48,4,76,17,49,0,ok,2,0,0.003,10,0.77,0.75,10.55,58,0.000,8.21
10.0108,0.09250,0.05061,1.39626,0.00000,0.00000,0.00000,60,-10,49,3,78,15,50,1,ok,2,0,0.003,10,0.77,0.75,10.55,58,0.013,8.21
10.0155,0.09250,0.05061,1.39626,0.00000,0.00000,0.00000,57,-10,49,3,78,14,50,1,ok,2,0,0.003,10,0.77,0.75,10.55,58,0.025,8.21
10.0348,0.09250,0.05061,1.39626,0.00000,0.00000,0.00000,55,-11,49,5,78,12,52,1,ok,2,0,0.003,10,0.77,0.75,10.55,58,0.038,8.21
10.0509,0.09250,0.05061,1.39626,0.00000,0.00000,0.00000,52,-11,51,6,78,8,52,0,ok,2,0,0.003,10,0.77,0.75,10.55,58,0.050,8.21
10.0539,0.09250,0.05061,1.39626,0.00000,0.00000,0.00000,50,-11,52,6,78,5,54,1,ok,2,0,0.003,10,0.77,0.75,10.55,58,0.063,8.21
10.0666,0.09250,0.05061,1.39626,0.00000,0.00000,0.00000,48,-10,52,6,77,3,54,0,ok,2,0,0.003,10,0.77,0.75,10.55,58,0.076,8.21
10.0868,0.09250,0.05061,1.39626,0.00000,0.00000,0.00000,45,-11,53,7,76,0,55,1,ok,2,0,0.003,10,0.77,0.75,10.55,58,0.089,8.21
10.0917,0.09250,0.05061,1.39626,0.00000,0.00000,0.00000,43,-11,55,7,76,-2,56,0,ok,2,0,0.003,10,0.77,0.75,10.55,58,0.101,8.21
10.1043,0.09250,0.05061,1.39626,0.00000,0.00000,0.00000,40,-10,55,7,75,-4,57,1,ok,2,0,0.003,10,0.77,0.75,10.55,58,0.113,8.21
10.1269,0.09250,0.05061,1.39626,0.00000,0.00000,0.00000,37,-9,56,8,73,-7,58,0,ok,2,0,0.003,10,0.77,0.75,10.55,58,0.126,7.88
10.1300,0.09250,0.05061,1.39626,0.00000,0.00000,0.00000,35,-8,57,8,70,-6,58,0,ok,2,0,0.003,10,0.77,0.75,10.55,58,0.139,7.88
10.1425,0.09250,0.05061,1.39626,0.00000,0.00000,0.00000,31,-6,57,9,69,-8,59,0,ok,2,0,0.003,10,0.77,0.75,10.55,58,0.152,7.88
10.1628,0.09250,0.05061,1.39626,0.00000,0.00000,0.00000,28,-4,58,9,68,-10,60,1,ok,2,0,0.003,10,0.77,0.75,10.55,58,0.165,7.88
10.1676,0.09250,0.05061,1.39626,0.00000,0.00000,0.00000,24,-2,59,11,66,-11,61,1,ok,2,0,0.003,10,0.77,0.75,10.55,58,0.177,7.88
10.1802,0.09250,0.05061,1.39626,0.00000,0.00000,0.00000,22,-1,60,11,64,-12,62,0,ok,2,0,0.003,10,0.77,0.75,10.55,58,0.190,7.88
10.2029,0.07854,0.08378,1.44688,0.00000,0.00000,0.00000,21,1,61,11,62,-12,64,-2,ok,2,0,0.003,10,0.99,-0.18,9.94,59,0.000,7.88
10.2060,0.07854,0.08378,1.44688,0.00000,0.00000,0.00000,19,3,61,12,59,-13,64,-1,ok,2,0,0.003,10,0.99,-0.18,9.94,59,0.013,7.88
10.2185,0.07854,0.08378,1.44688,0.00000,0.00000,0.00000,16,7,62,13,57,-13,65,-1,ok,2,0,0.003,10,0.99,-0.18,9.94,59,0.026,7.88
10.2389,0.07854,0.08378,1.44688,0.00000,0.00000,0.00000,15,10,62,14,54,-13,66,0,ok,2,0,0.003,10,0.99,-0.18,9.94,59,0.039,7.88
10.2436,0.07854,0.08378,1.44688,0.00000,0.00000,0.00000,13,13,63,15,51,-12,66,0,ok,2,0,0.003,10,0.99,-0.18,9.94,59,0.051,7.88
10.2561,0.07854,0.08378,1.44688,0.00000,0.00000,0.00000,15,13,63,16,49,-12,67,0,ok,2,0,0.003,10,0.99,-0.18,9.94,59,0.064,7.88
10.2789,0.07854,0.08378,1.44688,0.00000,0.00000,0.00000,15,13,63,17,46,-10,68,0,ok,2,0,0.003,10,0.99,-0.18,9.94,59,0.076,7.88
10.2820,0.07854,0.08378,1.44688,0.00000,0.00000,0.00000,16,12,64,17,44,-10,69,1,ok,2,0,0.003,10,0.99,-0.18,9.94,59,0.089,7.88
10.2948,0.07854,0.08378,1.44688,0.00000,0.00000,0.00000,17,12,64,18,41,-9,70,1,ok,2,0,0.003,10,0.99,-0.18,9.94,59,0.102,7.88
10.3148,0.07854,0.08378,1.44688,0.00000,0.00000,0.00000,18,11,64,19,38,-8,70,2,ok,2,0,0.003,10,0.99,-0.18,9.94,59,0.114,7.88
10.3195,0.07854,0.08378,1.44688,0.00000,0.00000,0.00000,20,10,65,20,35,-7,70,3,ok,2,0,0.003,10,0.99,-0.18,9.94,59,0.127,7.88
10.3321,0.07854,0.08378,1.44688,0.00000,0.00000,0.00000,20,10,65,21,33,-5,71,4,ok,2,0,0.003,10,0.99,-0.18,9.94,59,0.140,7.88
10.3549,0.07854,0.08378,1.44688,0.00000,0.00000,0.00000,23,8,65,21,31,-4,72,5,ok,0,0,0.003,10,0.99,-0.18,9.94,59,0.152,7.88
10.3580,0.07854,0.08378,1.44688,0.00000,0.00000,0.00000,24,8,65,23,29,-1,73,5,ok,0,0,0.003,10,0.99,-0.18,9.94,59,0.165,7.88
10.3706,0.07854,0.08378,1.44688,0.00000,0.00000,0.00000,25,7,65,23,27,2,72,7,ok,0,0,0.003,10,0.99,-0.18,9.94,59,0.178,7.88
10.3909,0.07854,0.08378,1.44688,0.00000,0.00000,0.00000,26,6,65,24,26,5,72,8,ok,0,0,0.003,10,0.99,-0.18,9.94,59,0.191,7.88
10.3959,0.06981,0.04538,1.42419,0.00000,0.00000,0.00000,28,6,64,25,26,8,73,9,ok,0,0,0.003,10,2.30,0.49,10.94,60,0.000,7.88
10.4082,0.06981,0.04538,1.42419,0.00000,0.00000,0.00000,29,5,63,28,27,7,73,10,ok,0,0,0.003,10,2.30,0.49,10.94,60,0.013,7.88
10.4309,0.06981,0.04538,1.42419,0.00000,0.00000,0.00000,30,4,63,29,28,6,73,12,ok,0,0,0.003,10,2.30,0.49,10.94,60,0.025,7.88
10.4340,0.06981,0.04538,1.42419,0.00000,0.00000,0.00000,31,4,64,28,29,4,73,13,ok,0,0,0.003,10,2.30,0.49,10.94,60,0.038,7.88
10.4465,0.06981,0.04538,1.42419,0.00000,0.00000,0.00000,32,3,67,25,30,3,74,15,ok,0,0,0.003,10,2.30,0.49,10.94,60,0.051,7.88
10.4668,0.06981,0.04538,1.42419,0.00000,0.00000,0.00000,34,3,69,21,31,3,74,16,ok,0,0,0.003,10,2.30,0.49,10.94,60,0.063,7.88
10.4715,0.06981,0.04538,1.42419,0.00000,0.00000,0.00000,35,2,70,17,32,3,73,18,ok,0,0,0.003,10,2.30,0.49,10.94,60,0.076,7.88
10.4843,0.06981,0.04538,1.42419,0.00000,0.00000,0.00000,36,2,71,15,34,2,73,20,ok,0,0,0.003,10,2.30,0.49,10.94,60,0.088,7.88
10.5068,0.06981,0.04538,1.42419,0.00000,0.00000,0.00000,38,1,71,15,36,2,74,21,ok,0,0,0.003,10,2.30,0.49,10.94,60,0.101,7.88
10.5099,0.06981,0.04538,1.42419,0.00000,0.00000,0.00000,39,1,71,11,36,2,73,23,ok,0,0,0.003,10,2.30,0.49,10.94,60,0.114,7.88
10.5226,0.06981,0.04538,1.42419,0.00000,0.00000,0.00000,41,1,70,8,38,3,73,24,ok,0,0,0.003,10,2.30,0.49,10.94,60,0.127,7.88
10.5429,0.06981,0.04538,1.42419,0.00000,0.00000,0.00000,42,1,70,6,39,2,73,25,ok,0,0,0.003,10,2.30,0.49,10.94,60,0.139,7.88
10.5476,0.06981,0.04538,1.42419,0.00000,0.00000,0.00000,44,0,69,3,40,2,73,27,ok,0,0,0.003,10,2.30,0.49,10.94,60,0.152,7.88
10.5601,0.06981,0.04538,1.42419,0.00000,0.00000,0.00000,45,0,68,1,41,2,73,28,ok,0,0,0.003,10,2.30,0.49,10.94,60,0.164,7.88
10.5829,0.06981,0.04538,1.42419,0.00000,0.00000,0.00000,47,0,67,0,43,2,73,29,ok,0,0,0.003,10,2.30,0.49,10.94,60,0.177,7.88
10.5860,0.06981,0.04538,1.42419,0.00000,0.00000,0.00000,47,0,65,-1,44,1,74,29,ok,0,0,0.003,10,2.30,0.49,10.94,60,0.190,7.88
10.5988,-0.03142,-0.02443,1.39801,0.00000,0.00000,0.00000,48,1,64,-4,45,1,75,29,ok,0,0,0.003,10,-0.75,-0.88,9.60,61,0.000,7.88
10.6189,-0.03142,-0.02443,1.39801,0.00000,0.00000,0.00000,49,0,63,-6,47,0,77,27,ok,0,0,0.003,10,-0.75,-0.88,9.60,61,0.012,7.88
10.6235,-0.03142,-0.02443,1.39801,0.00000,0.00000,0.00000,51,1,61,-6,47,0,79,21,ok,0,0,0.003,10,-0.75,-0.88,9.60,61,0.025,7.88
10.6362,-0.03142,-0.02443,1.39801,0.00000,0.00000,0.00000,52,1,58,-7,48,0,80,18,ok,0,0,0.003,10,-0.75,-0.88,9.60,61,0.038,7.88
10.6589,-0.03142,-0.02443,1.39801,0.00000,0.00000,0.00000,52,1,56,-8,49,0,81,14,ok,2,0,0.003,10,-0.75,-0.88,9.60,61,0.050,7.88
10.6621,-0.03142,-0.02443,1.39801,0.00000,0.00000,0.00000,52,3,54,-9,51,0,82,14,ok,2,0,0.003,10,-0.75,-0.88,9.60,61,0.063,7.88
10.6745,-0.03142,-0.02443,1.39801,0.00000,0.00000,0.00000,53,4,51,-9,52,1,82,11,ok,2,0,0.003,10,-0.75,-0.88,9.60,61,0.076,7.88
10.6948,-0.03142,-0.02443,1.39801,0.00000,0.00000,0.00000,54,4,48,-9,53,1,82,7,ok,2,0,0.003,11,-0.75,-0.88,9.60,61,0.089,7.88
10.6996,-0.03142,-0.02443,1.39801,0.00000,0.00000,0.00000,55,5,46,-8,54,1,81,4,ok,2,0,0.003,11,-0.75,-0.88,9.60,61,0.101,7.88
10.7122,-0.03142,-0.02443,1.39801,0.00000,0.00000,0.00000,55,6,43,-8,55,1,80,2,ok,2,0,0.003,11,-0.75,-0.88,9.60,61,0.114,7.88
10.7349,-0.03142,-0.02443,1.39801,0.00000,0.00000,0.00000,57,6,41,-9,56,2,79,-1,ok,2,0,0.003,11,-0.75,-0.88,9.60,61,0.126,7.88
10.7380,-0.03142,-0.02443,1.39801,0.00000,0.00000,0.00000,57,6,38,-8,57,1,79,-3,ok,2,0,0.003,11,-0.75,-0.88,9.60,61,0.139,7.88
10.7505,-0.03142,-0.02443,1.39801,0.00000,0.00000,0.00000,59,7,35,-7,57,1,77,-4,ok,2,0,0.003,11,-0.75,-0.88,9.60,61,0.152,7.88
10.7709,-0.03142,-0.02443,1.39801,0.00000,0.00000,0.00000,59,8,32,-5,58,2,75,-7,ok,2,0,0.003,11,-0.75,-0.88,9.60,61,0.165,7.88
10.7756,-0.03142,-0.02443,1.39801,0.00000,0.00000,0.00000,60,8,29,-5,59,2,72,-7,ok,2,0,0.003,11,-0.75,-0.88,9.60,61,0.177,7.88
10.7882,-0.03142,-0.02443,1.39801,0.00000,0.00000,0.00000,61,9,26,-3,60,2,71,-9,ok,2,0,0.003,11,-0.75,-0.88,9.60,61,0.190,7.88
10.8109,-0.15184,-0.00349,1.56731,0.00000,0.00000,0.00000,62,10,21,-1,61,1,70,-10,ok,2,0,0.003,11,-0.58,-1.16,9.14,62,0.000,7.88
10.8140,-0.15184,-0.00349,1.56731,0.00000,0.00000,0.00000,63,10,19,1,63,-1,68,-11,ok,2,0,0.003,11,-0.58,-1.16,9.14,62,0.013,7.88
10.8268,-0.15184,-0.00349,1.56731,0.00000,0.00000,0.00000,64,11,18,2,64,-1,65,-12,ok,2,0,0.003,11,-0.58,-1.16,9.14,62,0.026,7.88
10.8468,-0.15184,-0.00349,1.56731,0.00000,0.00000,0.00000,64,12,15,4,65,0,64,-12,ok,2,0,0.003,11,-0.58,-1.16,9.14,62,0.039,7.88
10.8516,-0.15184,-0.00349,1.56731,0.00000,0.00000,0.00000,65,12,14,7,65,0,61,-13,ok,2,0,0.003,11,-0.58,-1.16,9.14,62,0.051,7.88
10.8641,-0.15184,-0.00349,1.56731,0.00000,0.00000,0.00000,65,13,12,11,65,1,59,-14,ok,2,0,0.003,11,-0.58,-1.16,9.14,62,0.064,7.88
10.8869,-0.15184,-0.00349,1.56731,0.00000,0.00000,0.00000,66,14,10,13,66,1,56,-12,ok,2,0,0.003,11,-0.58,-1.16,9.14,62,0.076,7.88
10.8900,-0.15184,-0.00349,1.56731,0.00000,0.00000,0.00000,66,15,12,13,67,1,54,-12,ok,2,0,0.003,11,-0.58,-1.16,9.14,62,0.089,7.88
10.9025,-0.15184,-0.00349,1.56731,0.00000,0.00000,0.00000,66,16,12,13,68,2,51,-11,ok,2,0,0.003,11,-0.58,-1.16,9.14,62,0.102,7.88
10.9229,-0.15184,-0.00349,1.56731,0.00000,0.00000,0.00000,67,16,13,12,68,2,48,-11,ok,2,0,0.003,11,-0.58,-1.16,9.14,62,0.114,7.88
10.9275,-0.15184,-0.00349,1.56731,0.00000,0.00000,0.00000,67,17,15,11,69,3,46,-10,ok,2,0,0.003,11,-0.58,-1.16,9.14,62,0.127,7.88
10.9402,-0.15184,-0.00349,1.56731,0.00000,0.00000,0.00000,67,18,15,11,69,3,42,-9,ok,2,0,0.003,11,-0.58,-1.16,9.14,62,0.139,7.88
10.9628,-0.15184,-0.00349,1.56731,0.00000,0.00000,0.00000,68,19,17,9,69,4,40,-8,ok,2,0,0.003,11,-0.58,-1.16,9.14,62,0.152,7.88
10.9659,-0.15184,-0.00349,1.56731,0.00000,0.00000,0.00000,68,20,17,9,70,5,36,-6,ok,2,0,0.003,11,-0.58,-1.16,9.14,62,0.165,7.88
10.9784,-0.15184,-0.00349,1.56731,0.00000,0.00000,0.00000,69,21,19,8,71,5,34,-5,ok,2,0,0.003,11,-0.58,-1.16,9.14,62,0.178,7.88
10.9989,-0.15184,-0.00349,1.56731,0.00000,0.00000,0.00000,69,22,21,7,71,7,32,-3,ok,2,0,0.003,11,-0.58,-1.16,9.14,62,0.190,7.88
11.0038,0.02443,-0.00349,1.57603,0.00000,0.00000,0.00000,68,23,22,7,70,8,30,0,ok,2,0,0.003,11,-0.25,-0.35,9.56,63,0.000,7.88
11.0161,0.02443,-0.00349,1.57603,0.00000,0.00000,0.00000,68,24,23,6,71,9,29,2,ok,2,0,0.003,11,-0.25,-0.35,9.56,63,0.013,7.88
11.0389,0.02443,-0.00349,1.57603,0.00000,0.00000,0.00000,67,25,25,6,71,10,28,5,ok,2,0,0.003,11,-0.25,-0.35,9.56,63,0.025,7.88
11.0420,0.02443,-0.00349,1.57603,0.00000,0.00000,0.00000,66,28,26,5,71,11,27,7,ok,2,0,0.003,11,-0.25,-0.35,9.56,63,0.038,7.88
11.0547,0.02443,-0.00349,1.57603,0.00000,0.00000,0.00000,66,29,27,4,71,13,29,6,ok,2,0,0.003,11,-0.25,-0.35,9.56,63,0.051,7.88
11.0748,0.02443,-0.00349,1.57603,0.00000,0.00000,0.00000,67,28,28,4,71,14,29,6,ok,2,0,0.003,11,-0.25,-0.35,9.56,63,0.064,7.88
11.0796,0.02443,-0.00349,1.57603,0.00000,0.00000,0.00000,70,25,29,3,71,15,31,4,ok,2,0,0.003,11,-0.25,-0.35,9.56,63,0.076,7.88
11.0921,0.02443,-0.00349,1.57603,0.00000,0.00000,0.00000,72,21,30,3,71,16,32,3,ok,2,0,0.003,11,-0.25,-0.35,9.56,63,0.089,7.88
11.1148,0.02443,-0.00349,1.57603,0.00000,0.00000,0.00000,73,17,32,2,71,18,33,3,ok,2,0,0.003,11,-0.25,-0.35,9.56,63,0.101,7.88
11.1179,0.02443,-0.00349,1.57603,0.00000,0.00000,0.00000,74,15,33,2,71,19,35,2,ok,2,0,0.003,11,-0.25,-0.35,9.56,63,0.114,7.88
11.1304,0.02443,-0.00349,1.57603,0.00000,0.00000,0.00000,73,14,35,2,70,21,37,2,ok,2,0,0.003,11,-0.25,-0.35,9.56,63,0.127,7.88
11.1508,0.02443,-0.00349,1.57603,0.00000,0.00000,0.00000,73,11,36,2,70,22,39,2,ok,2,0,0.003,11,-0.25,-0.35,9.56,63,0.140,7.88
11.1556,0.02443,-0.00349,1.57603,0.00000,0.00000,0.00000,72,7,37,3,70,24,40,2,ok,2,0,0.003,11,-0.25,-0.35,9.56,63,0.152,7.88
11.1683,0.02443,-0.00349,1.57603,0.00000,0.00000,0.00000,72,5,39,3,70,26,41,2,ok,2,0,0.003,11,-0.25,-0.35,9.56,63,0.164,7.88
11.1909,0.02443,-0.00349,1.57603,0.00000,0.00000,0.00000,71,1,40,2,70,28,43,2,ok,2,0,0.003,11,-0.25,-0.35,9.56,63,0.177,7.88
