# run_gait log  cmd_fwd=0.100 hz=80.0 fw_balance=off policy_yaw_sign=-1
t,roll,pitch,yaw,gx,gy,gz,j0,j1,j2,j3,j4,j5,j6,j7,guard_state,hottest_j,hottest_tier,hottest_frac,duty_s,ax,ay,az,imu_n,imu_age_s,volt
0.0310,-0.01222,0.02793,0.00000,0.00000,0.00000,0.00000,21,-1,59,7,66,-12,61,0,ok,4,0,0.000,0,0.26,-0.16,10.00,8,0.021,nan
0.0344,-0.01222,0.02793,0.00000,0.00000,0.00000,0.00000,19,0,61,8,64,-12,63,-1,ok,4,0,0.000,0,0.26,-0.16,10.00,8,0.043,nan
0.0473,-0.01222,0.02793,0.00000,0.00000,0.00000,0.00000,17,2,61,9,61,-13,64,0,ok,4,0,0.000,0,0.26,-0.16,10.00,8,0.055,8.01
0.0669,-0.01222,0.02793,0.00000,0.00000,0.00000,0.00000,15,6,62,9,59,-13,64,0,ok,4,0,0.000,0,0.26,-0.16,10.00,8,0.068,8.01
0.0718,-0.01222,0.02793,0.00000,0.00000,0.00000,0.00000,13,9,62,11,56,-13,65,1,ok,4,0,0.000,0,0.26,-0.16,10.00,8,0.080,8.01
0.0843,-0.01222,0.02793,0.00000,0.00000,0.00000,0.00000,11,11,63,11,53,-12,65,1,ok,4,0,0.000,0,0.26,-0.16,10.00,8,0.093,8.01
0.1069,-0.01222,0.02793,0.00000,0.00000,0.00000,0.00000,13,12,63,12,51,-12,66,2,ok,4,0,0.000,0,0.26,-0.16,10.00,8,0.105,8.01
0.1104,-0.02443,0.01920,0.00000,0.00000,0.00000,0.00000,13,11,63,13,48,-12,66,2,ok,4,0,0.000,0,0.32,-0.03,10.04,9,0.000,8.01
0.1227,-0.02443,0.01920,0.00000,0.00000,0.00000,0.00000,14,10,64,14,45,-12,66,3,ok,4,0,0.000,0,0.32,-0.03,10.04,9,0.013,8.01
0.1429,-0.02443,0.01920,0.00000,0.00000,0.00000,0.00000,15,9,64,15,42,-11,67,3,ok,4,0,0.000,0,0.32,-0.03,10.04,9,0.025,8.01
0.1477,-0.02443,0.01920,0.00000,0.00000,0.00000,0.00000,16,9,65,15,39,-10,68,4,ok,4,0,0.000,0,0.32,-0.03,10.04,9,0.038,8.01
0.1602,-0.02443,0.01920,0.00000,0.00000,0.00000,0.00000,18,8,65,16,36,-8,68,4,ok,4,0,0.000,0,0.32,-0.03,10.04,9,0.050,8.01
0.1829,-0.02443,0.01920,0.00000,0.00000,0.00000,0.00000,18,7,65,17,34,-7,69,5,ok,4,0,0.000,0,0.32,-0.03,10.04,9,0.063,8.01
0.1860,-0.02443,0.01920,0.00000,0.00000,0.00000,0.00000,21,6,66,18,32,-6,69,6,ok,4,0,0.000,0,0.32,-0.03,10.04,9,0.076,8.01
0.1986,-0.02443,0.01920,0.00000,0.00000,0.00000,0.00000,22,5,66,19,30,-2,70,7,ok,4,0,0.000,0,0.32,-0.03,10.04,9,0.089,8.01
0.2189,-0.02443,0.01920,0.00000,0.00000,0.00000,0.00000,23,5,66,21,29,0,70,8,ok,4,0,0.000,0,0.32,-0.03,10.04,9,0.101,8.01
0.2238,-0.02443,0.01920,0.00000,0.00000,0.00000,0.00000,24,4,66,22,27,4,70,9,ok,4,0,0.000,0,0.32,-0.03,10.04,9,0.114,8.01
0.2361,-0.02443,0.01920,0.00000,0.00000,0.00000,0.00000,25,4,66,23,27,6,71,9,ok,4,0,0.000,0,0.32,-0.03,10.04,9,0.126,8.01
0.2589,-0.02443,0.01920,0.00000,0.00000,0.00000,0.00000,27,4,65,26,29,6,71,10,ok,4,0,0.000,0,0.32,-0.03,10.04,9,0.139,8.01
0.2619,-0.02443,0.01920,0.00000,0.00000,0.00000,0.00000,28,3,64,28,29,6,72,11,ok,4,0,0.000,0,0.32,-0.03,10.04,9,0.152,8.01
0.2745,-0.02443,0.01920,0.00000,0.00000,0.00000,0.00000,29,3,66,26,30,4,72,12,ok,4,0,0.000,0,0.32,-0.03,10.04,9,0.165,8.01
0.2949,-0.02443,0.01920,0.00000,0.00000,0.00000,0.00000,30,2,69,24,31,3,73,13,ok,4,0,0.000,0,0.32,-0.03,10.04,9,0.177,8.01
0.2997,-0.02443,0.01920,0.00000,0.00000,0.00000,0.00000,31,1,71,20,32,3,73,14,ok,4,0,0.000,0,0.32,-0.03,10.04,9,0.190,8.01
0.3135,-0.11345,-0.07505,0.02094,0.00000,0.00000,0.00000,32,0,73,17,34,3,73,16,ok,4,0,0.000,0,-1.26,-1.76,10.69,10,0.000,8.01
0.3350,-0.11345,-0.07505,0.02094,0.00000,0.00000,0.00000,33,0,73,15,35,2,73,18,ok,4,0,0.000,0,-1.26,-1.76,10.69,10,0.013,8.01
0.3393,-0.11345,-0.07505,0.02094,0.00000,0.00000,0.00000,35,-1,73,15,37,2,74,19,ok,4,0,0.000,0,-1.26,-1.76,10.69,10,0.026,8.01
0.3518,-0.11345,-0.07505,0.02094,0.00000,0.00000,0.00000,36,-1,73,12,37,2,73,22,ok,4,0,0.000,0,-1.26,-1.76,10.69,10,0.039,8.01
0.3750,-0.11345,-0.07505,0.02094,0.00000,0.00000,0.00000,37,-1,73,9,39,2,72,22,ok,4,0,0.000,0,-1.26,-1.76,10.69,10,0.051,8.01
0.3792,-0.11345,-0.07505,0.02094,0.00000,0.00000,0.00000,38,-1,72,6,40,1,73,23,ok,4,0,0.000,0,-1.26,-1.76,10.69,10,0.066,8.01
0.3919,-0.11345,-0.07505,0.02094,0.00000,0.00000,0.00000,39,-2,72,3,41,1,72,25,ok,4,0,0.000,0,-1.26,-1.76,10.69,10,0.079,8.01
0.4149,-0.11345,-0.07505,0.02094,0.00000,0.00000,0.00000,40,-2,71,2,42,0,72,27,ok,4,0,0.000,0,-1.26,-1.76,10.69,10,0.091,8.01
0.4180,-0.11345,-0.07505,0.02094,0.00000,0.00000,0.00000,42,-2,69,0,43,0,71,28,ok,4,0,0.000,0,-1.26,-1.76,10.69,10,0.106,8.01
0.4307,-0.11345,-0.07505,0.02094,0.00000,0.00000,0.00000,42,-2,67,-2,45,-1,72,28,ok,4,0,0.000,0,-1.26,-1.76,10.69,10,0.119,8.01
0.4509,-0.11345,-0.07505,0.02094,0.00000,0.00000,0.00000,44,-1,66,-4,46,-1,73,28,ok,4,0,0.000,0,-1.26,-1.76,10.69,10,0.131,8.01
0.4559,-0.11345,-0.07505,0.02094,0.00000,0.00000,0.00000,45,-1,65,-6,48,-1,75,25,ok,4,0,0.000,0,-1.26,-1.76,10.69,10,0.144,8.01
0.4681,-0.11345,-0.07505,0.02094,0.00000,0.00000,0.00000,47,0,63,-7,48,-2,76,20,ok,4,0,0.000,0,-1.26,-1.76,10.69,10,0.156,8.01
0.4909,-0.11345,-0.07505,0.02094,0.00000,0.00000,0.00000,48,0,61,-8,49,-2,77,17,ok,4,0,0.000,0,-1.26,-1.76,10.69,10,0.169,8.01
0.4939,-0.11345,-0.07505,0.02094,0.00000,0.00000,0.00000,49,0,58,-9,51,-1,79,14,ok,4,0,0.000,0,-1.26,-1.76,10.69,10,0.182,8.01
0.5069,-0.04014,0.00698,0.06458,0.00000,0.00000,0.00000,49,3,55,-10,52,-1,79,13,ok,4,0,0.000,0,1.39,-0.77,9.89,11,0.000,8.01
0.5269,-0.04014,0.00698,0.06458,0.00000,0.00000,0.00000,51,4,52,-10,54,0,79,10,ok,4,0,0.000,1,1.39,-0.77,9.89,11,0.013,8.01
0.5316,-0.04014,0.00698,0.06458,0.00000,0.00000,0.00000,51,4,49,-10,55,0,79,7,ok,4,0,0.000,1,1.39,-0.77,9.89,11,0.025,8.01
0.5440,-0.04014,0.00698,0.06458,0.00000,0.00000,0.00000,52,5,46,-10,56,1,78,4,ok,4,0,0.000,1,1.39,-0.77,9.89,11,0.037,8.01
0.5669,-0.04014,0.00698,0.06458,0.00000,0.00000,0.00000,53,6,44,-10,57,0,78,2,ok,4,0,0.000,1,1.39,-0.77,9.89,11,0.050,8.01
0.5702,-0.04014,0.00698,0.06458,0.00000,0.00000,0.00000,55,6,41,-11,58,1,77,-1,ok,4,0,0.000,1,1.39,-0.77,9.89,11,0.063,8.01
0.5828,-0.04014,0.00698,0.06458,0.00000,0.00000,0.00000,55,6,39,-10,59,0,77,-3,ok,4,0,0.000,1,1.39,-0.77,9.89,11,0.076,8.01
0.6029,-0.04014,0.00698,0.06458,0.00000,0.00000,0.00000,57,6,36,-8,59,1,76,-5,ok,4,0,0.000,1,1.39,-0.77,9.89,11,0.089,8.01
0.6077,-0.04014,0.00698,0.06458,0.00000,0.00000,0.00000,57,7,33,-7,60,2,74,-7,ok,4,0,0.000,1,1.39,-0.77,9.89,11,0.101,8.01
0.6203,-0.04014,0.00698,0.06458,0.00000,0.00000,0.00000,58,7,29,-6,60,1,72,-7,ok,2,0,0.000,1,1.39,-0.77,9.89,11,0.114,8.01
0.6429,-0.04014,0.00698,0.06458,0.00000,0.00000,0.00000,59,8,26,-4,61,1,70,-8,ok,2,0,0.000,1,1.39,-0.77,9.89,11,0.126,8.01
0.6459,-0.04014,0.00698,0.06458,0.00000,0.00000,0.00000,60,10,22,-2,62,1,69,-10,ok,2,0,0.000,1,1.39,-0.77,9.89,11,0.139,8.01
0.6586,-0.04014,0.00698,0.06458,0.00000,0.00000,0.00000,60,10,20,-1,64,-1,67,-11,ok,2,0,0.000,1,1.39,-0.77,9.89,11,0.152,8.01
0.6789,-0.04014,0.00698,0.06458,0.00000,0.00000,0.00000,61,10,19,0,65,0,65,-13,ok,2,0,0.000,1,1.39,-0.77,9.89,11,0.165,8.01
0.6836,-0.04014,0.00698,0.06458,0.00000,0.00000,0.00000,62,11,17,3,66,1,63,-13,ok,2,0,0.000,1,1.39,-0.77,9.89,11,0.177,8.01
0.6961,-0.04014,0.00698,0.06458,0.00000,0.00000,0.00000,62,12,15,6,67,0,60,-14,ok,2,0,0.000,1,1.39,-0.77,9.89,11,0.190,8.01
0.7189,-0.04014,0.00698,0.06458,0.00000,0.00000,0.00000,62,13,13,10,67,1,59,-14,ok,2,0,0.000,1,1.39,-0.77,9.89,11,0.202,8.01
0.7222,-0.00349,-0.00000,0.08552,0.00000,0.00000,0.00000,62,14,11,12,68,1,55,-13,ok,2,0,0.000,1,0.67,0.11,10.38,12,0.000,8.01
0.7345,-0.00349,-0.00000,0.08552,0.00000,0.00000,0.00000,63,15,13,13,68,1,53,-13,ok,2,0,0.000,1,0.67,0.11,10.38,12,0.013,8.01
0.7549,-0.00349,-0.00000,0.08552,0.00000,0.00000,0.00000,63,16,13,13,69,1,50,-12,ok,2,0,0.000,1,0.67,0.11,10.38,12,0.025,8.01
0.7596,-0.00349,-0.00000,0.08552,0.00000,0.00000,0.00000,64,17,14,12,69,1,47,-11,ok,2,0,0.000,1,0.67,0.11,10.38,12,0.038,8.01
0.7721,-0.00349,-0.00000,0.08552,0.00000,0.00000,0.00000,64,18,15,10,69,2,45,-11,ok,2,0,0.000,1,0.67,0.11,10.38,12,0.050,8.01
0.7949,-0.00349,-0.00000,0.08552,0.00000,0.00000,0.00000,65,18,16,10,69,3,41,-9,ok,2,0,0.000,1,0.67,0.11,10.38,12,0.063,8.01
0.7981,-0.00349,-0.00000,0.08552,0.00000,0.00000,0.00000,66,19,17,9,70,3,39,-9,ok,2,0,0.000,1,0.67,0.11,10.38,12,0.076,8.01
0.8107,-0.00349,-0.00000,0.08552,0.00000,0.00000,0.00000,66,20,18,8,70,5,35,-7,ok,2,0,0.000,1,0.67,0.11,10.38,12,0.089,8.01
0.8309,-0.00349,-0.00000,0.08552,0.00000,0.00000,0.00000,67,21,20,7,71,5,34,-5,ok,2,0,0.000,1,0.67,0.11,10.38,12,0.101,8.01
0.8357,-0.00349,-0.00000,0.08552,0.00000,0.00000,0.00000,67,22,21,6,71,6,32,-4,ok,2,0,0.000,1,0.67,0.11,10.38,12,0.114,8.01
0.8481,-0.00349,-0.00000,0.08552,0.00000,0.00000,0.00000,66,23,22,6,71,7,30,-1,ok,2,0,0.000,1,0.67,0.11,10.38,12,0.126,8.01
0.8709,-0.00349,-0.00000,0.08552,0.00000,0.00000,0.00000,66,24,24,6,72,8,29,2,ok,2,0,0.000,1,0.67,0.11,10.38,12,0.139,8.01
0.8741,-0.00349,-0.00000,0.08552,0.00000,0.00000,0.00000,66,25,25,5,72,9,27,5,ok,2,0,0.000,1,0.67,0.11,10.38,12,0.152,8.01
0.8865,-0.00349,-0.00000,0.08552,0.00000,0.00000,0.00000,65,28,26,5,72,10,27,7,ok,2,0,0.000,1,0.67,0.11,10.38,12,0.165,8.01
0.9069,-0.00349,-0.00000,0.08552,0.00000,0.00000,0.00000,64,29,27,3,71,12,29,6,ok,2,0,0.000,1,0.67,0.11,10.38,12,0.177,8.01
0.9118,-0.02618,-0.00175,0.19373,0.00000,0.00000,0.00000,66,28,29,3,72,13,29,6,ok,2,0,0.000,1,0.30,-0.76,9.99,13,0.000,8.01
0.9241,-0.02618,-0.00175,0.19373,0.00000,0.00000,0.00000,68,25,30,3,72,14,30,4,ok,2,0,0.000,1,0.30,-0.76,9.99,13,0.013,8.01
0.9469,-0.02618,-0.00175,0.19373,0.00000,0.00000,0.00000,71,21,31,2,72,15,31,3,ok,2,0,0.000,1,0.30,-0.76,9.99,13,0.025,8.01
0.9499,-0.02618,-0.00175,0.19373,0.00000,0.00000,0.00000,71,17,33,2,71,18,33,3,ok,2,0,0.000,1,0.30,-0.76,9.99,13,0.038,8.01
0.9628,-0.02618,-0.00175,0.19373,0.00000,0.00000,0.00000,72,15,34,2,72,18,34,2,ok,2,0,0.000,1,0.30,-0.76,9.99,13,0.051,8.01
0.9829,-0.02618,-0.00175,0.19373,0.00000,0.00000,0.00000,71,14,35,1,71,21,36,1,ok,2,0,0.000,1,0.30,-0.76,9.99,13,0.064,8.01
0.9876,-0.02618,-0.00175,0.19373,0.00000,0.00000,0.00000,71,11,37,1,71,22,38,1,ok,2,0,0.000,1,0.30,-0.76,9.99,13,0.076,8.01
1.0001,-0.02618,-0.00175,0.19373,0.00000,0.00000,0.00000,70,7,38,2,71,24,39,2,ok,2,0,0.000,1,0.30,-0.76,9.99,13,0.089,8.01
1.0229,-0.02618,-0.00175,0.19373,0.00000,0.00000,0.00000,70,5,39,2,72,25,40,1,ok,2,0,0.000,1,0.30,-0.76,9.99,13,0.101,8.01
1.0261,-0.02618,-0.00175,0.19373,0.00000,0.00000,0.00000,68,1,41,1,71,27,42,1,ok,2,0,0.000,1,0.30,-0.76,9.99,13,0.114,8.01
1.0386,-0.02618,-0.00175,0.19373,0.00000,0.00000,0.00000,67,-1,42,1,71,28,42,1,ok,2,0,0.000,1,0.30,-0.76,9.99,13,0.127,8.01
1.0589,-0.02618,-0.00175,0.19373,0.00000,0.00000,0.00000,66,-3,44,2,71,29,43,1,ok,2,0,0.000,1,0.30,-0.76,9.99,13,0.140,8.01
1.0636,-0.02618,-0.00175,0.19373,0.00000,0.00000,0.00000,64,-4,44,2,72,28,45,0,ok,2,0,0.000,1,0.30,-0.76,9.99,13,0.152,8.01
1.0761,-0.02618,-0.00175,0.19373,0.00000,0.00000,0.00000,63,-6,46,2,74,26,46,0,ok,2,0,0.000,1,0.30,-0.76,9.99,13,0.165,8.01
1.0989,-0.02618,-0.00175,0.19373,0.00000,0.00000,0.00000,62,-8,47,2,76,21,47,0,ok,2,0,0.000,1,0.30,-0.76,9.99,13,0.177,8.01
1.1021,-0.02618,-0.00175,0.19373,0.00000,0.00000,0.00000,60,-9,49,3,77,17,48,0,ok,2,0,0.000,1,0.30,-0.76,9.99,13,0.190,8.01
1.1149,0.10297,0.02618,0.19897,0.00000,0.00000,0.00000,57,-10,50,3,79,14,49,0,ok,2,0,0.000,1,-0.17,1.02,8.97,14,0.000,8.01
1.1349,0.10297,0.02618,0.19897,0.00000,0.00000,0.00000,55,-11,50,2,79,14,50,0,ok,2,0,0.000,1,-0.17,1.02,8.97,14,0.013,8.01
1.1396,0.10297,0.02618,0.19897,0.00000,0.00000,0.00000,52,-12,51,4,79,11,51,0,ok,2,0,0.000,1,-0.17,1.02,8.97,14,0.025,8.01
1.1521,0.10297,0.02618,0.19897,0.00000,0.00000,0.00000,50,-11,52,5,79,8,52,0,ok,2,0,0.000,1,-0.17,1.02,8.97,14,0.038,8.01
1.1749,0.10297,0.02618,0.19897,0.00000,0.00000,0.00000,47,-11,53,5,78,5,53,0,ok,2,0,0.000,1,-0.17,1.02,8.97,14,0.050,8.01
1.1780,0.10297,0.02618,0.19897,0.00000,0.00000,0.00000,45,-11,53,6,78,2,54,0,ok,2,0,0.000,1,-0.17,1.02,8.97,14,0.063,8.01
1.1908,0.10297,0.02618,0.19897,0.00000,0.00000,0.00000,42,-11,54,6,77,-1,54,0,ok,2,0,0.000,1,-0.17,1.02,8.97,14,0.076,8.01
1.2109,0.10297,0.02618,0.19897,0.00000,0.00000,0.00000,40,-11,56,7,76,-3,55,-1,ok,2,0,0.000,1,-0.17,1.02,8.97,14,0.089,8.01
1.2157,0.10297,0.02618,0.19897,0.00000,0.00000,0.00000,38,-10,56,7,75,-4,56,0,ok,2,0,0.000,1,-0.17,1.02,8.97,14,0.101,8.01
1.2281,0.10297,0.02618,0.19897,0.00000,0.00000,0.00000,35,-9,57,7,74,-8,57,-1,ok,2,0,0.000,1,-0.17,1.02,8.97,14,0.114,8.01
1.2509,0.10297,0.02618,0.19897,0.00000,0.00000,0.00000,33,-7,57,8,71,-7,57,0,ok,2,0,0.000,1,-0.17,1.02,8.97,14,0.126,8.01
1.2539,0.10297,0.02618,0.19897,0.00000,0.00000,0.00000,29,-6,58,8,70,-9,58,0,ok,2,0,0.000,1,-0.17,1.02,8.97,14,0.139,8.01
1.2668,0.10297,0.02618,0.19897,0.00000,0.00000,0.00000,26,-4,59,9,68,-11,59,0,ok,2,0,0.000,1,-0.17,1.02,8.97,14,0.152,8.01
1.2869,0.10297,0.02618,0.19897,0.00000,0.00000,0.00000,22,-2,60,10,66,-12,60,0,ok,2,0,0.000,1,-0.17,1.02,8.97,14,0.165,8.01
1.2916,0.10297,0.02618,0.19897,0.00000,0.00000,0.00000,20,-1,61,11,64,-13,61,0,ok,2,0,0.000,1,-0.17,1.02,8.97,14,0.177,8.01
1.3041,0.10297,0.02618,0.19897,0.00000,0.00000,0.00000,19,0,62,11,62,-13,63,-3,ok,2,0,0.000,1,-0.17,1.02,8.97,14,0.190,8.01
1.3269,0.09599,-0.06807,0.20420,0.00000,0.00000,0.00000,17,3,62,12,59,-14,64,-2,ok,2,0,0.000,1,-0.31,0.93,9.48,15,0.000,8.01
1.3301,0.09599,-0.06807,0.20420,0.00000,0.00000,0.00000,14,7,63,13,58,-15,65,-2,ok,0,0,0.000,1,-0.31,0.93,9.48,15,0.013,8.01
1.3426,0.09599,-0.06807,0.20420,0.00000,0.00000,0.00000,13,10,63,14,55,-14,65,-1,ok,0,0,0.000,1,-0.31,0.93,9.48,15,0.026,8.01
1.3629,0.09599,-0.06807,0.20420,0.00000,0.00000,0.00000,11,12,64,15,52,-13,66,-1,ok,0,0,0.000,1,-0.31,0.93,9.48,15,0.039,8.01
1.3676,0.09599,-0.06807,0.20420,0.00000,0.00000,0.00000,13,13,64,16,50,-13,67,-1,ok,0,0,0.000,1,-0.31,0.93,9.48,15,0.051,8.01
1.3801,0.09599,-0.06807,0.20420,0.00000,0.00000,0.00000,13,13,64,17,46,-12,67,-1,ok,0,0,0.000,1,-0.31,0.93,9.48,15,0.064,8.01
1.4029,0.09599,-0.06807,0.20420,0.00000,0.00000,0.00000,14,12,65,17,44,-12,68,0,ok,0,0,0.000,1,-0.31,0.93,9.48,15,0.076,8.01
1.4060,0.09599,-0.06807,0.20420,0.00000,0.00000,0.00000,15,12,65,18,41,-10,69,0,ok,4,0,0.000,1,-0.31,0.93,9.48,15,0.089,8.01
1.4185,0.09599,-0.06807,0.20420,0.00000,0.00000,0.00000,16,11,66,19,38,-10,69,1,ok,4,0,0.000,1,-0.31,0.93,9.48,15,0.102,8.01
1.4389,0.09599,-0.06807,0.20420,0.00000,0.00000,0.00000,18,10,66,19,35,-8,70,2,ok,4,0,0.000,1,-0.31,0.93,9.48,15,0.115,8.01
1.4438,0.09599,-0.06807,0.20420,0.00000,0.00000,0.00000,18,10,66,20,33,-7,70,2,ok,4,0,0.000,1,-0.31,0.93,9.48,15,0.127,8.01
1.4561,0.09599,-0.06807,0.20420,0.00000,0.00000,0.00000,21,9,66,21,31,-6,71,4,ok,4,0,0.000,1,-0.31,0.93,9.48,15,0.140,8.01
1.4789,0.09599,-0.06807,0.20420,0.00000,0.00000,0.00000,22,8,66,22,29,-2,72,4,ok,4,0,0.000,1,-0.31,0.93,9.48,15,0.152,8.01
1.4820,0.09599,-0.06807,0.20420,0.00000,0.00000,0.00000,23,7,66,23,28,0,72,6,ok,4,0,0.000,1,-0.31,0.93,9.48,15,0.165,8.01
1.4946,0.09599,-0.06807,0.20420,0.00000,0.00000,0.00000,24,6,66,24,26,3,72,7,ok,4,0,0.000,1,-0.31,0.93,9.48,15,0.178,8.01
1.5149,0.09599,-0.06807,0.20420,0.00000,0.00000,0.00000,26,6,65,25,26,6,72,8,ok,4,0,0.000,1,-0.31,0.93,9.48,15,0.191,8.01
1.5199,-0.01745,-0.01745,0.21642,0.00000,0.00000,0.00000,27,6,64,28,28,5,72,9,ok,4,0,0.000,1,-0.13,-0.60,8.12,16,0.000,8.01
1.5321,-0.01745,-0.01745,0.21642,0.00000,0.00000,0.00000,28,5,64,29,28,5,72,11,ok,4,0,0.000,1,-0.13,-0.60,8.12,16,0.013,8.01
1.5549,-0.01745,-0.01745,0.21642,0.00000,0.00000,0.00000,29,4,65,28,29,3,72,12,ok,4,0,0.000,2,-0.13,-0.60,8.12,16,0.025,8.01
1.5579,-0.01745,-0.01745,0.21642,0.00000,0.00000,0.00000,31,3,68,25,30,2,73,14,ok,4,0,0.000,2,-0.13,-0.60,8.12,16,0.038,8.01
1.5707,-0.01745,-0.01745,0.21642,0.00000,0.00000,0.00000,32,3,70,21,32,2,73,16,ok,4,0,0.000,2,-0.13,-0.60,8.12,16,0.051,8.01
1.5909,-0.01745,-0.01745,0.21642,0.00000,0.00000,0.00000,33,2,71,17,33,1,72,17,ok,4,0,0.000,2,-0.13,-0.60,8.12,16,0.064,8.01
1.5958,-0.01745,-0.01745,0.21642,0.00000,0.00000,0.00000,34,2,71,15,34,0,72,19,ok,4,0,0.000,2,-0.13,-0.60,8.12,16,0.076,8.01
1.6081,-0.01745,-0.01745,0.21642,0.00000,0.00000,0.00000,36,1,71,14,37,1,73,20,ok,4,0,0.000,2,-0.13,-0.60,8.12,16,0.089,8.01
1.6309,-0.01745,-0.01745,0.21642,0.00000,0.00000,0.00000,37,1,71,11,37,1,72,22,ok,4,0,0.000,2,-0.13,-0.60,8.12,16,0.101,8.01
1.6341,-0.01745,-0.01745,0.21642,0.00000,0.00000,0.00000,39,1,71,8,39,1,72,23,ok,4,0,0.000,2,-0.13,-0.60,8.12,16,0.114,8.01
1.6466,-0.01745,-0.01745,0.21642,0.00000,0.00000,0.00000,40,1,71,5,40,1,72,24,ok,4,0,0.000,2,-0.13,-0.60,8.12,16,0.127,8.01
1.6669,-0.01745,-0.01745,0.21642,0.00000,0.00000,0.00000,42,0,70,3,41,1,72,26,ok,4,0,0.001,2,-0.13,-0.60,8.12,16,0.140,8.01
1.6716,-0.01745,-0.01745,0.21642,0.00000,0.00000,0.00000,43,0,69,1,42,0,72,27,ok,4,0,0.001,2,-0.13,-0.60,8.12,16,0.152,8.01
1.6843,-0.01745,-0.01745,0.21642,0.00000,0.00000,0.00000,44,0,68,-1,44,0,71,29,ok,4,0,0.001,2,-0.13,-0.60,8.12,16,0.164,8.01
1.7069,-0.01745,-0.01745,0.21642,0.00000,0.00000,0.00000,45,0,65,-2,45,-1,73,29,ok,4,0,0.001,2,-0.13,-0.60,8.12,16,0.177,8.01
1.7101,-0.01745,-0.01745,0.21642,0.00000,0.00000,0.00000,46,1,65,-4,46,0,74,28,ok,4,0,0.001,2,-0.13,-0.60,8.12,16,0.190,8.01
1.7229,0.04014,-0.01745,0.24260,0.00000,0.00000,0.00000,47,1,64,-6,48,0,75,26,ok,4,0,0.001,2,0.15,-0.59,8.85,17,0.000,8.01
1.7429,0.04014,-0.01745,0.24260,0.00000,0.00000,0.00000,49,2,61,-7,48,0,77,20,ok,4,0,0.001,2,0.15,-0.59,8.85,17,0.013,8.01
1.7477,0.04014,-0.01745,0.24260,0.00000,0.00000,0.00000,50,1,59,-9,49,0,79,16,ok,4,0,0.001,2,0.15,-0.59,8.85,17,0.025,8.01
1.7601,0.04014,-0.01745,0.24260,0.00000,0.00000,0.00000,50,2,57,-9,50,0,80,13,ok,4,0,0.001,2,0.15,-0.59,8.85,17,0.038,8.01
1.7829,0.04014,-0.01745,0.24260,0.00000,0.00000,0.00000,50,4,54,-10,52,0,80,13,ok,4,0,0.001,2,0.15,-0.59,8.85,17,0.050,8.01
1.7859,0.04014,-0.01745,0.24260,0.00000,0.00000,0.00000,52,5,51,-10,53,0,80,10,ok,4,0,0.001,2,0.15,-0.59,8.85,17,0.063,8.01
1.7988,0.04014,-0.01745,0.24260,0.00000,0.00000,0.00000,52,4,49,-10,54,0,80,6,ok,4,0,0.001,2,0.15,-0.59,8.85,17,0.076,8.01
1.8189,0.04014,-0.01745,0.24260,0.00000,0.00000,0.00000,53,5,46,-9,55,1,80,3,ok,4,0,0.001,2,0.15,-0.59,8.85,17,0.088,8.01
1.8236,0.04014,-0.01745,0.24260,0.00000,0.00000,0.00000,54,6,43,-9,56,1,79,2,ok,4,0,0.001,2,0.15,-0.59,8.85,17,0.101,8.01
1.8363,0.04014,-0.01745,0.24260,0.00000,0.00000,0.00000,56,6,41,-10,57,1,78,-2,ok,2,0,0.001,2,0.15,-0.59,8.85,17,0.113,8.01
1.8589,0.04014,-0.01745,0.24260,0.00000,0.00000,0.00000,56,6,39,-9,58,0,78,-4,ok,2,0,0.001,2,0.15,-0.59,8.85,17,0.126,8.01
1.8620,0.04014,-0.01745,0.24260,0.00000,0.00000,0.00000,57,7,35,-8,58,1,77,-5,ok,2,0,0.001,2,0.15,-0.59,8.85,17,0.139,8.01
1.8745,0.04014,-0.01745,0.24260,0.00000,0.00000,0.00000,58,8,33,-6,59,1,75,-7,ok,2,0,0.001,2,0.15,-0.59,8.85,17,0.152,8.01
1.8949,0.04014,-0.01745,0.24260,0.00000,0.00000,0.00000,58,8,29,-5,60,1,72,-8,ok,2,0,0.001,2,0.15,-0.59,8.85,17,0.164,8.01
1.8996,0.04014,-0.01745,0.24260,0.00000,0.00000,0.00000,59,9,26,-4,61,1,71,-9,ok,2,0,0.001,2,0.15,-0.59,8.85,17,0.177,8.01
1.9122,0.04014,-0.01745,0.24260,0.00000,0.00000,0.00000,61,10,22,-2,62,1,70,-11,ok,2,0,0.001,2,0.15,-0.59,8.85,17,0.189,8.01
1.9349,-0.05236,0.03840,0.30718,0.00000,0.00000,0.00000,61,10,20,0,64,-2,67,-12,ok,2,0,0.001,2,0.00,-0.29,9.37,18,0.000,8.01
1.9379,-0.05236,0.03840,0.30718,0.00000,0.00000,0.00000,62,11,18,1,64,-1,65,-13,ok,2,0,0.001,2,0.00,-0.29,9.37,18,0.013,8.01
1.9506,-0.05236,0.03840,0.30718,0.00000,0.00000,0.00000,63,12,16,3,65,0,63,-13,ok,2,0,0.001,2,0.00,-0.29,9.37,18,0.026,8.01
1.9709,-0.05236,0.03840,0.30718,0.00000,0.00000,0.00000,63,12,14,7,66,0,60,-14,ok,2,0,0.001,2,0.00,-0.29,9.37,18,0.039,8.01
1.9756,-0.05236,0.03840,0.30718,0.00000,0.00000,0.00000,63,14,12,10,66,0,59,-14,ok,2,0,0.001,2,0.00,-0.29,9.37,18,0.051,8.01
1.9881,-0.05236,0.03840,0.30718,0.00000,0.00000,0.00000,64,14,11,12,67,0,55,-13,ok,2,0,0.001,2,0.00,-0.29,9.37,18,0.064,8.01
2.0109,-0.05236,0.03840,0.30718,0.00000,0.00000,0.00000,64,15,12,13,67,1,53,-12,ok,2,0,0.001,2,0.00,-0.29,9.37,18,0.076,8.01
2.0141,-0.05236,0.03840,0.30718,0.00000,0.00000,0.00000,64,16,12,12,68,1,51,-12,ok,2,0,0.001,2,0.00,-0.29,9.37,18,0.089,8.01
2.0267,-0.05236,0.03840,0.30718,0.00000,0.00000,0.00000,65,17,14,11,69,1,47,-11,ok,2,0,0.001,2,0.00,-0.29,9.37,18,0.102,8.01
2.0469,-0.05236,0.03840,0.30718,0.00000,0.00000,0.00000,65,17,15,11,69,2,45,-11,ok,2,0,0.001,2,0.00,-0.29,9.37,18,0.115,8.01
2.0516,-0.05236,0.03840,0.30718,0.00000,0.00000,0.00000,66,18,16,10,69,3,42,-10,ok,2,0,0.001,2,0.00,-0.29,9.37,18,0.127,8.01
2.0641,-0.05236,0.03840,0.30718,0.00000,0.00000,0.00000,66,18,17,9,70,3,39,-9,ok,2,0,0.001,2,0.00,-0.29,9.37,18,0.140,8.01
2.0869,-0.05236,0.03840,0.30718,0.00000,0.00000,0.00000,66,20,18,8,70,5,35,-7,ok,2,0,0.001,2,0.00,-0.29,9.37,18,0.152,8.01
2.0901,-0.05236,0.03840,0.30718,0.00000,0.00000,0.00000,67,21,20,7,71,5,34,-5,ok,2,0,0.001,2,0.00,-0.29,9.37,18,0.165,8.01
2.1028,-0.05236,0.03840,0.30718,0.00000,0.00000,0.00000,67,22,21,6,71,6,32,-4,ok,2,0,0.001,2,0.00,-0.29,9.37,18,0.178,8.01
2.1229,-0.05236,0.03840,0.30718,0.00000,0.00000,0.00000,67,23,22,6,71,7,30,-1,ok,2,0,0.001,2,0.00,-0.29,9.37,18,0.191,8.01
2.1279,0.00175,0.01920,0.35081,0.00000,0.00000,0.00000,67,24,23,6,71,8,29,2,ok,2,0,0.001,2,0.65,-0.54,8.73,19,0.000,8.01
2.1402,0.00175,0.01920,0.35081,0.00000,0.00000,0.00000,66,25,25,5,72,9,27,5,ok,2,0,0.001,2,0.65,-0.54,8.73,19,0.013,8.01
2.1629,0.00175,0.01920,0.35081,0.00000,0.00000,0.00000,65,28,26,5,71,10,27,7,ok,2,0,0.001,2,0.65,-0.54,8.73,19,0.025,8.01
2.1659,0.00175,0.01920,0.35081,0.00000,0.00000,0.00000,64,29,27,3,71,12,29,6,ok,2,0,0.001,2,0.65,-0.54,8.73,19,0.038,8.01
2.1788,0.00175,0.01920,0.35081,0.00000,0.00000,0.00000,66,28,28,3,71,13,29,5,ok,2,0,0.001,2,0.65,-0.54,8.73,19,0.051,8.01
2.1989,0.00175,0.01920,0.35081,0.00000,0.00000,0.00000,68,25,30,3,72,15,30,3,ok,2,0,0.001,2,0.65,-0.54,8.73,19,0.063,8.01
2.2036,0.00175,0.01920,0.35081,0.00000,0.00000,0.00000,70,21,31,2,71,16,31,3,ok,2,0,0.001,2,0.65,-0.54,8.73,19,0.076,8.01
2.2161,0.00175,0.01920,0.35081,0.00000,0.00000,0.00000,71,17,33,2,71,18,33,3,ok,2,0,0.001,2,0.65,-0.54,8.73,19,0.088,8.01
2.2389,0.00175,0.01920,0.35081,0.00000,0.00000,0.00000,72,15,34,2,72,18,34,2,ok,2,0,0.001,2,0.65,-0.54,8.73,19,0.101,8.01
2.2420,0.00175,0.01920,0.35081,0.00000,0.00000,0.00000,71,14,35,1,71,21,36,1,ok,2,0,0.001,2,0.65,-0.54,8.73,19,0.114,8.01
2.2546,0.00175,0.01920,0.35081,0.00000,0.00000,0.00000,71,11,36,1,71,22,38,1,ok,2,0,0.001,2,0.65,-0.54,8.73,19,0.127,8.01
2.2749,0.00175,0.01920,0.35081,0.00000,0.00000,0.00000,70,8,38,2,71,24,39,2,ok,2,0,0.001,2,0.65,-0.54,8.73,19,0.139,8.01
2.2796,0.00175,0.01920,0.35081,0.00000,0.00000,0.00000,70,5,39,2,71,25,40,1,ok,2,0,0.001,2,0.65,-0.54,8.73,19,0.152,8.01
2.2923,0.00175,0.01920,0.35081,0.00000,0.00000,0.00000,69,1,41,1,71,27,42,1,ok,2,0,0.001,2,0.65,-0.54,8.73,19,0.164,8.01
2.3149,0.00175,0.01920,0.35081,0.00000,0.00000,0.00000,68,-1,42,1,71,28,43,1,ok,2,0,0.001,2,0.65,-0.54,8.73,19,0.177,8.01
2.3179,0.00175,0.01920,0.35081,0.00000,0.00000,0.00000,66,-3,44,1,71,29,44,1,ok,2,0,0.001,2,0.65,-0.54,8.73,19,0.190,8.01
2.3309,0.01222,0.00873,0.40841,0.00000,0.00000,0.00000,64,-4,44,1,72,28,45,1,ok,2,0,0.001,2,1.20,-0.82,12.41,20,0.000,8.01
2.3509,0.01222,0.00873,0.40841,0.00000,0.00000,0.00000,63,-6,45,2,74,26,46,0,ok,2,0,0.001,2,1.20,-0.82,12.41,20,0.013,8.01
2.3556,0.01222,0.00873,0.40841,0.00000,0.00000,0.00000,62,-8,47,2,76,21,47,0,ok,2,0,0.001,2,1.20,-0.82,12.41,20,0.025,8.01
2.3681,0.01222,0.00873,0.40841,0.00000,0.00000,0.00000,60,-9,48,3,77,17,49,0,ok,2,0,0.001,2,1.20,-0.82,12.41,20,0.038,8.01
2.3909,0.01222,0.00873,0.40841,0.00000,0.00000,0.00000,58,-10,49,3,79,14,49,0,ok,2,0,0.001,2,1.20,-0.82,12.41,20,0.050,8.01
2.3940,0.01222,0.00873,0.40841,0.00000,0.00000,0.00000,56,-11,50,3,79,13,50,0,ok,2,0,0.001,2,1.20,-0.82,12.41,20,0.063,8.01
2.4065,0.01222,0.00873,0.40841,0.00000,0.00000,0.00000,53,-12,50,5,79,11,51,0,ok,2,0,0.001,2,1.20,-0.82,12.41,20,0.076,8.01
2.4269,0.01222,0.00873,0.40841,0.00000,0.00000,0.00000,51,-11,52,6,79,8,52,0,ok,2,0,0.001,2,1.20,-0.82,12.41,20,0.089,8.01
2.4316,0.01222,0.00873,0.40841,0.00000,0.00000,0.00000,48,-11,52,5,78,4,53,0,ok,2,0,0.001,2,1.20,-0.82,12.41,20,0.101,8.01
2.4441,0.01222,0.00873,0.40841,0.00000,0.00000,0.00000,46,-11,53,6,77,2,54,0,ok,2,0,0.001,2,1.20,-0.82,12.41,20,0.114,8.01
2.4669,0.01222,0.00873,0.40841,0.00000,0.00000,0.00000,43,-11,54,7,77,-1,54,1,ok,2,0,0.001,2,1.20,-0.82,12.41,20,0.126,8.01
2.4699,0.01222,0.00873,0.40841,0.00000,0.00000,0.00000,41,-11,56,7,76,-3,55,0,ok,2,0,0.001,2,1.20,-0.82,12.41,20,0.139,8.01
2.4825,0.01222,0.00873,0.40841,0.00000,0.00000,0.00000,39,-10,56,7,75,-4,56,0,ok,2,0,0.001,2,1.20,-0.82,12.41,20,0.152,8.01
2.5029,0.01222,0.00873,0.40841,0.00000,0.00000,0.00000,35,-9,57,7,73,-8,57,-1,ok,2,0,0.001,2,1.20,-0.82,12.41,20,0.165,8.01
2.5076,0.01222,0.00873,0.40841,0.00000,0.00000,0.00000,33,-8,57,8,71,-7,57,0,ok,2,0,0.001,2,1.20,-0.82,12.41,20,0.177,8.01
2.5201,0.01222,0.00873,0.40841,0.00000,0.00000,0.00000,29,-6,58,8,70,-9,58,0,ok,2,0,0.001,2,1.20,-0.82,12.41,20,0.190,8.01
2.5429,0.05760,0.00000,0.43982,0.00000,0.00000,0.00000,27,-4,59,9,68,-11,59,0,ok,2,0,0.001,2,0.82,0.51,10.63,21,0.000,8.01
2.5460,0.05760,0.00000,0.43982,0.00000,0.00000,0.00000,22,-2,60,11,66,-12,60,0,ok,2,0,0.001,3,0.82,0.51,10.63,21,0.013,8.01
2.5586,0.05760,0.00000,0.43982,0.00000,0.00000,0.00000,21,-1,61,11,64,-13,61,0,ok,2,0,0.001,3,0.82,0.51,10.63,21,0.026,8.01
2.5789,0.05760,0.00000,0.43982,0.00000,0.00000,0.00000,19,0,62,11,62,-13,63,-3,ok,2,0,0.001,3,0.82,0.51,10.63,21,0.039,8.01
2.5837,0.05760,0.00000,0.43982,0.00000,0.00000,0.00000,17,3,62,12,59,-14,63,-2,ok,2,0,0.001,3,0.82,0.51,10.63,21,0.051,8.01
2.5961,0.05760,0.00000,0.43982,0.00000,0.00000,0.00000,14,7,63,13,58,-14,64,-2,ok,0,0,0.001,3,0.82,0.51,10.63,21,0.064,8.01
2.6189,0.05760,0.00000,0.43982,0.00000,0.00000,0.00000,13,10,63,14,55,-14,65,-1,ok,0,0,0.001,3,0.82,0.51,10.63,21,0.076,8.01
2.6222,0.05760,0.00000,0.43982,0.00000,0.00000,0.00000,11,12,64,15,52,-13,65,-1,ok,0,0,0.001,3,0.82,0.51,10.63,21,0.089,8.01
2.6347,0.05760,0.00000,0.43982,0.00000,0.00000,0.00000,13,13,64,16,49,-13,66,0,ok,0,0,0.001,3,0.82,0.51,10.63,21,0.102,8.01
2.6549,0.05760,0.00000,0.43982,0.00000,0.00000,0.00000,13,13,64,17,46,-12,67,0,ok,0,0,0.001,3,0.82,0.51,10.63,21,0.115,8.01
2.6596,0.05760,0.00000,0.43982,0.00000,0.00000,0.00000,14,12,65,17,44,-12,68,0,ok,0,0,0.001,3,0.82,0.51,10.63,21,0.127,8.01
2.6723,0.05760,0.00000,0.43982,0.00000,0.00000,0.00000,16,12,65,18,41,-10,69,0,ok,0,0,0.001,3,0.82,0.51,10.63,21,0.140,8.01
2.6949,0.05760,0.00000,0.43982,0.00000,0.00000,0.00000,16,11,65,19,38,-10,69,2,ok,0,0,0.001,3,0.82,0.51,10.63,21,0.152,8.01
2.6979,0.05760,0.00000,0.43982,0.00000,0.00000,0.00000,18,10,65,19,35,-8,70,2,ok,0,0,0.001,3,0.82,0.51,10.63,21,0.165,8.01
2.7105,0.05760,0.00000,0.43982,0.00000,0.00000,0.00000,19,10,65,21,33,-7,71,3,ok,0,0,0.001,3,0.82,0.51,10.63,21,0.178,8.01
2.7309,0.05760,0.00000,0.43982,0.00000,0.00000,0.00000,21,8,66,21,31,-5,71,4,ok,0,0,0.001,3,0.82,0.51,10.63,21,0.191,8.01
2.7358,0.02443,0.04189,0.44157,0.00000,0.00000,0.00000,22,8,66,22,29,-2,72,5,ok,0,0,0.001,3,0.99,-0.60,11.87,22,0.000,8.01
2.7481,0.02443,0.04189,0.44157,0.00000,0.00000,0.00000,24,7,65,23,28,0,72,6,ok,0,0,0.001,3,0.99,-0.60,11.87,22,0.013,8.01
2.7710,0.02443,0.04189,0.44157,0.00000,0.00000,0.00000,25,6,65,24,27,4,72,8,ok,0,0,0.001,3,0.99,-0.60,11.87,22,0.025,8.01
2.7741,0.02443,0.04189,0.44157,0.00000,0.00000,0.00000,26,6,65,25,26,6,72,8,ok,0,0,0.001,3,0.99,-0.60,11.87,22,0.039,8.01
2.7868,0.02443,0.04189,0.44157,0.00000,0.00000,0.00000,27,5,64,28,28,6,72,9,ok,0,0,0.001,3,0.99,-0.60,11.87,22,0.051,8.01
2.8069,0.02443,0.04189,0.44157,0.00000,0.00000,0.00000,28,4,63,29,28,6,73,11,ok,0,0,0.001,3,0.99,-0.60,11.87,22,0.064,8.01
2.8118,0.02443,0.04189,0.44157,0.00000,0.00000,0.00000,30,4,65,27,30,3,73,12,ok,0,0,0.001,3,0.99,-0.60,11.87,22,0.076,8.01
2.8242,0.02443,0.04189,0.44157,0.00000,0.00000,0.00000,31,3,67,25,31,3,73,14,ok,0,0,0.001,3,0.99,-0.60,11.87,22,0.089,8.01
2.8469,0.02443,0.04189,0.44157,0.00000,0.00000,0.00000,32,3,70,21,32,3,73,16,ok,0,0,0.001,3,0.99,-0.60,11.87,22,0.101,8.01
2.8501,0.02443,0.04189,0.44157,0.00000,0.00000,0.00000,34,2,71,17,33,2,73,17,ok,0,0,0.001,3,0.99,-0.60,11.87,22,0.114,8.01
2.8625,0.02443,0.04189,0.44157,0.00000,0.00000,0.00000,35,2,71,15,34,1,73,19,ok,0,0,0.001,3,0.99,-0.60,11.87,22,0.127,8.01
2.8829,0.02443,0.04189,0.44157,0.00000,0.00000,0.00000,36,1,71,14,37,2,73,20,ok,0,0,0.001,3,0.99,-0.60,11.87,22,0.140,8.01
2.8876,0.02443,0.04189,0.44157,0.00000,0.00000,0.00000,38,1,71,11,37,2,72,22,ok,0,0,0.001,3,0.99,-0.60,11.87,22,0.152,8.01
2.9001,0.02443,0.04189,0.44157,0.00000,0.00000,0.00000,39,1,71,8,39,2,72,23,ok,0,0,0.001,3,0.99,-0.60,11.87,22,0.165,8.01
2.9229,0.02443,0.04189,0.44157,0.00000,0.00000,0.00000,41,1,70,5,40,1,73,25,ok,0,0,0.001,3,0.99,-0.60,11.87,22,0.177,8.01
2.9261,0.02443,0.04189,0.44157,0.00000,0.00000,0.00000,42,0,70,3,41,2,73,26,ok,0,0,0.001,3,0.99,-0.60,11.87,22,0.190,8.01
2.9390,-0.02269,-0.02269,0.39794,0.00000,0.00000,0.00000,43,0,68,1,42,1,72,28,ok,0,0,0.001,3,0.20,-0.88,8.13,23,0.000,8.01
2.9589,-0.02269,-0.02269,0.39794,0.00000,0.00000,0.00000,45,0,67,-1,44,1,72,29,ok,0,0,0.001,3,0.20,-0.88,8.13,23,0.013,8.01
2.9636,-0.02269,-0.02269,0.39794,0.00000,0.00000,0.00000,45,0,65,-2,45,-1,73,29,ok,0,0,0.001,3,0.20,-0.88,8.13,23,0.025,8.01
2.9763,-0.02269,-0.02269,0.39794,0.00000,0.00000,0.00000,47,0,64,-4,46,0,74,28,ok,0,0,0.001,3,0.20,-0.88,8.13,23,0.038,8.01
2.9989,-0.02269,-0.02269,0.39794,0.00000,0.00000,0.00000,48,0,64,-6,47,0,76,26,ok,0,0,0.001,3,0.20,-0.88,8.13,23,0.050,8.01
3.0020,-0.02269,-0.02269,0.39794,0.00000,0.00000,0.00000,49,1,61,-7,48,0,78,21,ok,0,0,0.001,3,0.20,-0.88,8.13,23,0.063,8.01
3.0147,-0.02269,-0.02269,0.39794,0.00000,0.00000,0.00000,50,1,59,-8,49,0,79,17,ok,0,0,0.001,3,0.20,-0.88,8.13,23,0.076,8.01
3.0349,-0.02269,-0.02269,0.39794,0.00000,0.00000,0.00000,51,1,57,-8,50,0,81,14,ok,0,0,0.001,3,0.20,-0.88,8.13,23,0.089,8.01
3.0397,-0.02269,-0.02269,0.39794,0.00000,0.00000,0.00000,51,3,54,-9,51,0,81,13,ok,0,0,0.001,3,0.20,-0.88,8.13,23,0.101,8.01
3.0521,-0.02269,-0.02269,0.39794,0.00000,0.00000,0.00000,52,4,51,-9,53,0,81,10,ok,0,0,0.001,3,0.20,-0.88,8.13,23,0.114,8.01
3.0749,-0.02269,-0.02269,0.39794,0.00000,0.00000,0.00000,53,4,49,-9,54,0,80,7,ok,2,0,0.001,3,0.20,-0.88,8.13,23,0.126,8.01
3.0781,-0.02269,-0.02269,0.39794,0.00000,0.00000,0.00000,53,5,46,-9,55,1,80,4,ok,2,0,0.001,3,0.20,-0.88,8.13,23,0.139,8.01
3.0906,-0.02269,-0.02269,0.39794,0.00000,0.00000,0.00000,54,6,43,-9,56,0,79,2,ok,2,0,0.001,3,0.20,-0.88,8.13,23,0.152,8.01
3.1109,-0.02269,-0.02269,0.39794,0.00000,0.00000,0.00000,56,6,41,-9,57,1,78,-2,ok,2,0,0.001,3,0.20,-0.88,8.13,23,0.165,8.01
3.1158,-0.02269,-0.02269,0.39794,0.00000,0.00000,0.00000,56,6,39,-8,58,0,78,-3,ok,2,0,0.001,3,0.20,-0.88,8.13,23,0.177,8.01
3.1281,-0.02269,-0.02269,0.39794,0.00000,0.00000,0.00000,57,7,36,-7,58,1,77,-5,ok,2,0,0.001,3,0.20,-0.88,8.13,23,0.190,8.01
3.1509,-0.02269,-0.02269,0.39794,0.00000,0.00000,0.00000,58,8,33,-6,59,1,75,-7,ok,2,0,0.001,3,0.20,-0.88,8.13,23,0.202,8.01
3.1542,-0.06109,-0.04189,0.53407,0.00000,0.00000,0.00000,59,8,29,-5,60,1,72,-7,ok,2,0,0.001,3,0.21,-0.39,11.42,24,0.000,8.01
3.1666,-0.06109,-0.04189,0.53407,0.00000,0.00000,0.00000,60,9,26,-3,61,1,71,-9,ok,2,0,0.001,3,0.21,-0.39,11.42,24,0.013,8.01
3.1869,-0.06109,-0.04189,0.53407,0.00000,0.00000,0.00000,61,10,22,-1,62,0,69,-11,ok,2,0,0.001,3,0.21,-0.39,11.42,24,0.025,8.01
3.1916,-0.06109,-0.04189,0.53407,0.00000,0.00000,0.00000,62,10,20,0,64,-2,67,-12,ok,2,0,0.001,3,0.21,-0.39,11.42,24,0.038,8.01
3.2041,-0.06109,-0.04189,0.53407,0.00000,0.00000,0.00000,63,11,18,1,64,-1,65,-13,ok,2,0,0.001,3,0.21,-0.39,11.42,24,0.050,8.01
3.2269,-0.06109,-0.04189,0.53407,0.00000,0.00000,0.00000,63,12,16,3,65,0,63,-13,ok,2,0,0.001,3,0.21,-0.39,11.42,24,0.063,8.01
3.2299,-0.06109,-0.04189,0.53407,0.00000,0.00000,0.00000,63,12,14,7,66,0,61,-14,ok,2,0,0.001,3,0.21,-0.39,11.42,24,0.076,8.01
3.2429,-0.06109,-0.04189,0.53407,0.00000,0.00000,0.00000,63,14,13,10,66,0,59,-15,ok,2,0,0.001,3,0.21,-0.39,11.42,24,0.089,8.01
3.2629,-0.06109,-0.04189,0.53407,0.00000,0.00000,0.00000,64,14,11,12,67,0,55,-13,ok,2,0,0.001,3,0.21,-0.39,11.42,24,0.101,8.01
3.2676,-0.06109,-0.04189,0.53407,0.00000,0.00000,0.00000,64,15,13,13,67,0,53,-12,ok,2,0,0.001,3,0.21,-0.39,11.42,24,0.114,8.01
3.2801,-0.06109,-0.04189,0.53407,0.00000,0.00000,0.00000,65,16,13,13,68,1,50,-12,ok,2,0,0.001,3,0.21,-0.39,11.42,24,0.126,8.01
3.3029,-0.06109,-0.04189,0.53407,0.00000,0.00000,0.00000,66,17,14,11,68,1,47,-11,ok,2,0,0.001,3,0.21,-0.39,11.42,24,0.139,8.01
3.3060,-0.06109,-0.04189,0.53407,0.00000,0.00000,0.00000,65,18,15,11,69,2,45,-11,ok,2,0,0.001,3,0.21,-0.39,11.42,24,0.152,8.01
3.3186,-0.06109,-0.04189,0.53407,0.00000,0.00000,0.00000,66,18,16,10,69,2,41,-9,ok,2,0,0.001,3,0.21,-0.39,11.42,24,0.165,8.01
3.3389,-0.06109,-0.04189,0.53407,0.00000,0.00000,0.00000,67,18,17,9,70,3,39,-9,ok,2,0,0.001,3,0.21,-0.39,11.42,24,0.177,8.01
3.3438,-0.06109,-0.04189,0.53407,0.00000,0.00000,0.00000,67,20,18,9,70,4,35,-7,ok,2,0,0.001,3,0.21,-0.39,11.42,24,0.190,8.01
3.3563,0.01222,0.03665,0.57072,0.00000,0.00000,0.00000,67,21,20,8,71,4,34,-5,ok,2,0,0.001,3,1.82,0.70,11.92,25,0.000,8.01
3.3789,0.01222,0.03665,0.57072,0.00000,0.00000,0.00000,67,22,21,7,71,6,32,-4,ok,2,0,0.001,3,1.82,0.70,11.92,25,0.012,8.01
3.3820,0.01222,0.03665,0.57072,0.00000,0.00000,0.00000,67,23,22,6,70,8,30,-1,ok,2,0,0.001,3,1.82,0.70,11.92,25,0.026,8.01
3.3948,0.01222,0.03665,0.57072,0.00000,0.00000,0.00000,67,24,23,6,71,8,29,1,ok,2,0,0.001,3,1.82,0.70,11.92,25,0.038,8.01
3.4149,0.01222,0.03665,0.57072,0.00000,0.00000,0.00000,66,25,25,5,71,9,27,5,ok,2,0,0.001,3,1.82,0.70,11.92,25,0.051,8.01
3.4197,0.01222,0.03665,0.57072,0.00000,0.00000,0.00000,65,28,26,5,71,10,27,7,ok,2,0,0.001,3,1.82,0.70,11.92,25,0.063,8.01
3.4321,0.01222,0.03665,0.57072,0.00000,0.00000,0.00000,65,29,27,4,71,12,29,6,ok,2,0,0.001,3,1.82,0.70,11.92,25,0.076,8.01
3.4549,0.01222,0.03665,0.57072,0.00000,0.00000,0.00000,66,28,28,3,71,13,29,6,ok,2,0,0.001,3,1.82,0.70,11.92,25,0.088,8.01
3.4580,0.01222,0.03665,0.57072,0.00000,0.00000,0.00000,68,25,29,3,72,15,30,3,ok,2,0,0.001,3,1.82,0.70,11.92,25,0.102,8.01
3.4706,0.01222,0.03665,0.57072,0.00000,0.00000,0.00000,71,21,31,2,71,16,32,3,ok,2,0,0.001,3,1.82,0.70,11.92,25,0.114,8.01
3.4909,0.01222,0.03665,0.57072,0.00000,0.00000,0.00000,72,17,32,2,71,18,33,3,ok,2,0,0.001,3,1.82,0.70,11.92,25,0.127,8.01
3.4956,0.01222,0.03665,0.57072,0.00000,0.00000,0.00000,72,15,33,2,72,19,34,2,ok,2,0,0.001,3,1.82,0.70,11.92,25,0.139,8.01
3.5081,0.01222,0.03665,0.57072,0.00000,0.00000,0.00000,71,14,35,1,71,21,36,1,ok,2,0,0.001,3,1.82,0.70,11.92,25,0.152,8.01
3.5309,0.01222,0.03665,0.57072,0.00000,0.00000,0.00000,71,11,36,1,71,22,38,1,ok,2,0,0.001,3,1.82,0.70,11.92,25,0.164,8.01
3.5340,0.01222,0.03665,0.57072,0.00000,0.00000,0.00000,71,7,38,2,71,24,39,2,ok,2,0,0.001,3,1.82,0.70,11.92,25,0.178,8.01
3.5469,0.01222,0.03665,0.57072,0.00000,0.00000,0.00000,70,5,39,2,71,26,41,1,ok,2,0,0.001,3,1.82,0.70,11.92,25,0.190,8.01
3.5669,0.03840,0.03142,0.70511,0.00000,0.00000,0.00000,69,1,40,2,70,27,42,2,ok,2,0,0.001,4,-1.60,1.38,9.68,26,0.000,8.01
3.5719,0.03840,0.03142,0.70511,0.00000,0.00000,0.00000,68,-1,41,1,70,29,43,1,ok,2,0,0.001,4,-1.60,1.38,9.68,26,0.012,8.01
3.5841,0.03840,0.03142,0.70511,0.00000,0.00000,0.00000,67,-3,43,2,71,29,44,1,ok,2,0,0.001,4,-1.60,1.38,9.68,26,0.025,8.01
3.6069,0.03840,0.03142,0.70511,0.00000,0.00000,0.00000,65,-4,43,2,72,29,45,1,ok,2,0,0.001,4,-1.60,1.38,9.68,26,0.038,8.01
3.6099,0.03840,0.03142,0.70511,0.00000,0.00000,0.00000,64,-6,45,2,74,26,46,0,ok,2,0,0.001,4,-1.60,1.38,9.68,26,0.051,8.01
3.6227,0.03840,0.03142,0.70511,0.00000,0.00000,0.00000,63,-8,46,2,76,22,47,0,ok,2,0,0.001,4,-1.60,1.38,9.68,26,0.063,8.01
3.6429,0.03840,0.03142,0.70511,0.00000,0.00000,0.00000,61,-9,48,3,77,17,49,0,ok,2,0,0.001,4,-1.60,1.38,9.68,26,0.076,8.01
3.6476,0.03840,0.03142,0.70511,0.00000,0.00000,0.00000,59,-10,49,3,78,14,49,0,ok,2,0,0.001,4,-1.60,1.38,9.68,26,0.088,8.01
3.6601,0.03840,0.03142,0.70511,0.00000,0.00000,0.00000,56,-11,50,3,79,14,50,0,ok,2,0,0.001,4,-1.60,1.38,9.68,26,0.101,8.01
3.6829,0.03840,0.03142,0.70511,0.00000,0.00000,0.00000,54,-12,50,5,79,11,51,0,ok,2,0,0.001,4,-1.60,1.38,9.68,26,0.113,8.01
3.6860,0.03840,0.03142,0.70511,0.00000,0.00000,0.00000,51,-11,51,6,78,8,52,0,ok,2,0,0.001,4,-1.60,1.38,9.68,26,0.127,8.01
3.6988,0.03840,0.03142,0.70511,0.00000,0.00000,0.00000,49,-11,52,5,78,5,53,0,ok,2,0,0.001,4,-1.60,1.38,9.68,26,0.140,8.01
3.7189,0.03840,0.03142,0.70511,0.00000,0.00000,0.00000,46,-11,53,6,77,3,54,0,ok,2,0,0.001,4,-1.60,1.38,9.68,26,0.152,8.01
3.7236,0.03840,0.03142,0.70511,0.00000,0.00000,0.00000,44,-11,54,7,76,-1,55,1,ok,2,0,0.001,4,-1.60,1.38,9.68,26,0.164,8.01
3.7362,0.03840,0.03142,0.70511,0.00000,0.00000,0.00000,42,-11,55,7,76,-3,55,0,ok,2,0,0.001,4,-1.60,1.38,9.68,26,0.177,8.01
3.7589,0.03840,0.03142,0.70511,0.00000,0.00000,0.00000,39,-10,56,7,75,-4,56,1,ok,2,0,0.001,4,-1.60,1.38,9.68,26,0.189,8.01
3.7622,0.06458,-0.02618,0.72257,0.00000,0.00000,0.00000,36,-9,57,7,73,-7,57,-1,ok,2,0,0.001,4,0.05,0.20,9.12,27,0.000,8.01
3.7747,0.06458,-0.02618,0.72257,0.00000,0.00000,0.00000,33,-8,57,8,70,-7,57,0,ok,2,0,0.001,4,0.05,0.20,9.12,27,0.013,8.01
3.7949,0.06458,-0.02618,0.72257,0.00000,0.00000,0.00000,30,-6,58,8,69,-9,58,0,ok,2,0,0.001,4,0.05,0.20,9.12,27,0.025,8.01
3.7996,0.06458,-0.02618,0.72257,0.00000,0.00000,0.00000,27,-4,59,9,68,-11,59,0,ok,2,0,0.001,4,0.05,0.20,9.12,27,0.038,8.01
3.8120,0.06458,-0.02618,0.72257,0.00000,0.00000,0.00000,23,-2,60,11,66,-12,60,0,ok,2,0,0.001,4,0.05,0.20,9.12,27,0.050,8.01
3.8349,0.06458,-0.02618,0.72257,0.00000,0.00000,0.00000,21,-1,61,11,64,-13,61,0,ok,2,0,0.001,4,0.05,0.20,9.12,27,0.063,8.01
3.8379,0.06458,-0.02618,0.72257,0.00000,0.00000,0.00000,19,1,62,11,62,-13,63,-3,ok,2,0,0.001,4,0.05,0.20,9.12,27,0.076,8.01
3.8507,0.06458,-0.02618,0.72257,0.00000,0.00000,0.00000,17,3,62,12,59,-14,64,-1,ok,2,0,0.001,4,0.05,0.20,9.12,27,0.089,8.01
3.8709,0.06458,-0.02618,0.72257,0.00000,0.00000,0.00000,15,7,63,13,57,-14,65,-1,ok,0,0,0.001,4,0.05,0.20,9.12,27,0.101,8.01
3.8756,0.06458,-0.02618,0.72257,0.00000,0.00000,0.00000,13,10,63,14,54,-14,65,-1,ok,0,0,0.001,4,0.05,0.20,9.12,27,0.114,8.01
3.8881,0.06458,-0.02618,0.72257,0.00000,0.00000,0.00000,12,13,63,15,52,-13,66,-1,ok,0,0,0.001,4,0.05,0.20,9.12,27,0.126,8.01
3.9109,0.06458,-0.02618,0.72257,0.00000,0.00000,0.00000,13,13,64,16,49,-13,67,0,ok,0,0,0.001,4,0.05,0.20,9.12,27,0.139,8.01
3.9141,0.06458,-0.02618,0.72257,0.00000,0.00000,0.00000,13,13,64,17,46,-12,67,0,ok,0,0,0.001,4,0.05,0.20,9.12,27,0.152,8.01
3.9267,0.06458,-0.02618,0.72257,0.00000,0.00000,0.00000,15,12,64,17,44,-11,68,1,ok,0,0,0.001,4,0.05,0.20,9.12,27,0.165,8.01
3.9469,0.06458,-0.02618,0.72257,0.00000,0.00000,0.00000,16,11,65,18,41,-10,69,1,ok,0,0,0.001,4,0.05,0.20,9.12,27,0.177,8.01
3.9519,0.00349,-0.00000,0.72780,0.00000,0.00000,0.00000,17,11,65,19,38,-10,70,2,ok,0,0,0.001,4,-0.16,-0.35,9.16,28,0.000,8.01
3.9640,0.00349,-0.00000,0.72780,0.00000,0.00000,0.00000,19,10,65,20,35,-8,70,2,ok,0,0,0.001,4,-0.16,-0.35,9.16,28,0.013,8.01
3.9869,0.00349,-0.00000,0.72780,0.00000,0.00000,0.00000,19,10,65,21,33,-7,71,3,ok,0,0,0.001,4,-0.16,-0.35,9.16,28,0.025,8.01
3.9899,0.00349,-0.00000,0.72780,0.00000,0.00000,0.00000,22,8,66,21,31,-5,71,5,ok,0,0,0.001,4,-0.16,-0.35,9.16,28,0.038,8.01
4.0026,0.00349,-0.00000,0.72780,0.00000,0.00000,0.00000,23,8,66,23,29,-2,72,5,ok,0,0,0.001,4,-0.16,-0.35,9.16,28,0.051,8.01
4.0229,0.00349,-0.00000,0.72780,0.00000,0.00000,0.00000,24,7,65,23,28,0,72,6,ok,0,0,0.001,4,-0.16,-0.35,9.16,28,0.064,8.01
4.0278,0.00349,-0.00000,0.72780,0.00000,0.00000,0.00000,25,6,65,24,26,4,72,8,ok,0,0,0.001,4,-0.16,-0.35,9.16,28,0.076,8.01
4.0401,0.00349,-0.00000,0.72780,0.00000,0.00000,0.00000,27,6,65,25,26,6,72,9,ok,0,0,0.001,4,-0.16,-0.35,9.16,28,0.089,8.01
4.0629,0.00349,-0.00000,0.72780,0.00000,0.00000,0.00000,28,5,64,28,28,6,73,9,ok,0,0,0.001,4,-0.16,-0.35,9.16,28,0.101,8.01
4.0659,0.00349,-0.00000,0.72780,0.00000,0.00000,0.00000,29,4,64,29,28,5,73,11,ok,0,0,0.001,4,-0.16,-0.35,9.16,28,0.114,8.01
4.0788,0.00349,-0.00000,0.72780,0.00000,0.00000,0.00000,30,4,65,28,29,3,73,12,ok,0,0,0.001,4,-0.16,-0.35,9.16,28,0.127,8.01
4.0989,0.00349,-0.00000,0.72780,0.00000,0.00000,0.00000,31,3,67,25,30,3,73,14,ok,0,0,0.001,4,-0.16,-0.35,9.16,28,0.140,8.01
4.1036,0.00349,-0.00000,0.72780,0.00000,0.00000,0.00000,32,3,70,21,32,3,73,16,ok,0,0,0.001,4,-0.16,-0.35,9.16,28,0.152,8.01
4.1161,0.00349,-0.00000,0.72780,0.00000,0.00000,0.00000,34,2,71,17,33,2,73,17,ok,0,0,0.001,4,-0.16,-0.35,9.16,28,0.165,8.01
4.1389,0.00349,-0.00000,0.72780,0.00000,0.00000,0.00000,35,2,71,15,34,1,73,19,ok,0,0,0.001,4,-0.16,-0.35,9.16,28,0.177,8.01
4.1419,0.00349,-0.00000,0.72780,0.00000,0.00000,0.00000,37,1,71,14,37,1,73,20,ok,0,0,0.001,4,-0.16,-0.35,9.16,28,0.190,8.01
4.1549,-0.01745,0.00524,0.68941,0.00000,0.00000,0.00000,38,1,71,11,37,1,72,22,ok,0,0,0.001,4,0.72,0.96,10.02,29,0.000,8.01
4.1749,-0.01745,0.00524,0.68941,0.00000,0.00000,0.00000,40,1,71,8,39,2,72,23,ok,0,0,0.001,4,0.72,0.96,10.02,29,0.013,8.01
4.1798,-0.01745,0.00524,0.68941,0.00000,0.00000,0.00000,41,1,70,5,40,1,73,25,ok,0,0,0.001,4,0.72,0.96,10.02,29,0.025,8.01
4.1921,-0.01745,0.00524,0.68941,0.00000,0.00000,0.00000,43,0,69,3,41,2,72,26,ok,0,0,0.001,4,0.72,0.96,10.02,29,0.038,8.01
4.2149,-0.01745,0.00524,0.68941,0.00000,0.00000,0.00000,44,0,68,1,42,1,72,28,ok,0,0,0.001,4,0.72,0.96,10.02,29,0.050,8.01
4.2182,-0.01745,0.00524,0.68941,0.00000,0.00000,0.00000,45,0,67,-1,43,1,72,29,ok,0,0,0.001,4,0.72,0.96,10.02,29,0.063,8.01
4.2307,-0.01745,0.00524,0.68941,0.00000,0.00000,0.00000,46,0,65,-2,45,0,73,29,ok,0,0,0.001,4,0.72,0.96,10.02,29,0.076,8.01
4.2509,-0.01745,0.00524,0.68941,0.00000,0.00000,0.00000,47,1,64,-4,46,0,74,28,ok,0,0,0.001,4,0.72,0.96,10.02,29,0.089,8.01
4.2557,-0.01745,0.00524,0.68941,0.00000,0.00000,0.00000,48,1,63,-6,47,0,76,26,ok,0,0,0.001,4,0.72,0.96,10.02,29,0.101,8.01
4.2682,-0.01745,0.00524,0.68941,0.00000,0.00000,0.00000,50,2,61,-7,48,0,78,21,ok,0,0,0.001,4,0.72,0.96,10.02,29,0.114,8.01
4.2909,-0.01745,0.00524,0.68941,0.00000,0.00000,0.00000,51,1,59,-8,49,0,79,17,ok,0,0,0.001,4,0.72,0.96,10.02,29,0.126,8.01
4.2940,-0.01745,0.00524,0.68941,0.00000,0.00000,0.00000,51,1,56,-8,50,0,81,14,ok,0,0,0.001,4,0.72,0.96,10.02,29,0.139,8.01
4.3069,-0.01745,0.00524,0.68941,0.00000,0.00000,0.00000,51,4,54,-9,51,0,81,13,ok,0,0,0.001,4,0.72,0.96,10.02,29,0.152,8.01
4.3269,-0.01745,0.00524,0.68941,0.00000,0.00000,0.00000,52,5,51,-9,53,0,81,10,ok,0,0,0.001,4,0.72,0.96,10.02,29,0.165,8.01
4.3316,-0.01745,0.00524,0.68941,0.00000,0.00000,0.00000,53,4,48,-9,54,0,81,7,ok,2,0,0.001,4,0.72,0.96,10.02,29,0.177,8.01
4.3441,-0.01745,0.00524,0.68941,0.00000,0.00000,0.00000,54,5,46,-9,55,1,80,4,ok,2,0,0.001,4,0.72,0.96,10.02,29,0.190,8.01
4.3669,-0.08727,-0.03665,0.78191,0.00000,0.00000,0.00000,54,6,43,-9,55,1,80,2,ok,2,0,0.001,4,0.30,-0.97,9.17,30,0.000,8.01
4.3702,-0.08727,-0.03665,0.78191,0.00000,0.00000,0.00000,56,6,41,-9,56,1,78,-1,ok,2,0,0.001,4,0.30,-0.97,9.17,30,0.013,8.01
4.3827,-0.08727,-0.03665,0.78191,0.00000,0.00000,0.00000,57,6,39,-8,58,0,78,-3,ok,2,0,0.001,4,0.30,-0.97,9.17,30,0.026,8.01
4.4029,-0.08727,-0.03665,0.78191,0.00000,0.00000,0.00000,58,7,35,-7,58,1,77,-4,ok,2,0,0.001,4,0.30,-0.97,9.17,30,0.039,8.01
4.4077,-0.08727,-0.03665,0.78191,0.00000,0.00000,0.00000,58,8,33,-6,59,1,75,-7,ok,2,0,0.001,4,0.30,-0.97,9.17,30,0.051,8.01
4.4201,-0.08727,-0.03665,0.78191,0.00000,0.00000,0.00000,59,8,29,-5,60,1,72,-7,ok,2,0,0.001,4,0.30,-0.97,9.17,30,0.064,8.01
4.4429,-0.08727,-0.03665,0.78191,0.00000,0.00000,0.00000,60,9,26,-3,61,1,71,-9,ok,2,0,0.001,4,0.30,-0.97,9.17,30,0.076,8.01
4.4459,-0.08727,-0.03665,0.78191,0.00000,0.00000,0.00000,62,10,22,-1,62,0,70,-11,ok,2,0,0.001,4,0.30,-0.97,9.17,30,0.089,8.01
4.4589,-0.08727,-0.03665,0.78191,0.00000,0.00000,0.00000,62,10,20,0,64,-2,67,-12,ok,2,0,0.001,4,0.30,-0.97,9.17,30,0.102,8.01
4.4789,-0.08727,-0.03665,0.78191,0.00000,0.00000,0.00000,63,11,18,1,64,-1,65,-13,ok,2,0,0.001,4,0.30,-0.97,9.17,30,0.115,8.01
4.4836,-0.08727,-0.03665,0.78191,0.00000,0.00000,0.00000,63,12,16,4,65,0,63,-13,ok,2,0,0.001,4,0.30,-0.97,9.17,30,0.127,8.01
4.4961,-0.08727,-0.03665,0.78191,0.00000,0.00000,0.00000,64,12,14,7,65,0,60,-14,ok,2,0,0.001,4,0.30,-0.97,9.17,30,0.140,8.01
4.5189,-0.08727,-0.03665,0.78191,0.00000,0.00000,0.00000,64,14,13,10,66,0,59,-14,ok,2,0,0.001,4,0.30,-0.97,9.17,30,0.152,8.01
4.5221,-0.08727,-0.03665,0.78191,0.00000,0.00000,0.00000,64,14,11,13,67,0,55,-13,ok,2,0,0.001,4,0.30,-0.97,9.17,30,0.165,8.01
4.5347,-0.08727,-0.03665,0.78191,0.00000,0.00000,0.00000,65,15,13,13,67,0,53,-12,ok,2,0,0.001,4,0.30,-0.97,9.17,30,0.178,8.01
4.5549,-0.08727,-0.03665,0.78191,0.00000,0.00000,0.00000,65,16,12,13,68,1,50,-12,ok,2,0,0.001,4,0.30,-0.97,9.17,30,0.190,8.01
4.5599,-0.02094,0.00349,0.78540,0.00000,0.00000,0.00000,66,17,14,12,68,1,47,-11,ok,2,0,0.001,4,-0.47,0.29,8.81,31,0.000,8.01
4.5722,-0.02094,0.00349,0.78540,0.00000,0.00000,0.00000,66,18,15,11,69,2,45,-11,ok,2,0,0.001,5,-0.47,0.29,8.81,31,0.013,8.01
4.5949,-0.02094,0.00349,0.78540,0.00000,0.00000,0.00000,66,18,16,10,69,3,42,-9,ok,2,0,0.001,5,-0.47,0.29,8.81,31,0.025,8.01
4.5979,-0.02094,0.00349,0.78540,0.00000,0.00000,0.00000,67,19,17,9,69,3,39,-9,ok,2,0,0.001,5,-0.47,0.29,8.81,31,0.038,8.01
4.6108,-0.02094,0.00349,0.78540,0.00000,0.00000,0.00000,67,20,18,9,70,5,35,-7,ok,2,0,0.001,5,-0.47,0.29,8.81,31,0.051,8.01
4.6309,-0.02094,0.00349,0.78540,0.00000,0.00000,0.00000,68,21,20,8,71,5,34,-5,ok,2,0,0.001,5,-0.47,0.29,8.81,31,0.064,8.01
4.6359,-0.02094,0.00349,0.78540,0.00000,0.00000,0.00000,68,22,21,7,71,6,32,-4,ok,2,0,0.001,5,-0.47,0.29,8.81,31,0.076,8.01
4.6481,-0.02094,0.00349,0.78540,0.00000,0.00000,0.00000,67,23,22,6,70,7,30,-1,ok,2,0,0.001,5,-0.47,0.29,8.81,31,0.089,8.01
4.6709,-0.02094,0.00349,0.78540,0.00000,0.00000,0.00000,67,24,23,6,71,8,29,2,ok,2,0,0.001,5,-0.47,0.29,8.81,31,0.101,8.01
4.6739,-0.02094,0.00349,0.78540,0.00000,0.00000,0.00000,67,25,24,5,71,9,27,5,ok,2,0,0.001,5,-0.47,0.29,8.81,31,0.114,8.01
4.6866,-0.02094,0.00349,0.78540,0.00000,0.00000,0.00000,66,28,26,5,71,10,27,7,ok,2,0,0.001,5,-0.47,0.29,8.81,31,0.127,8.01
4.7069,-0.02094,0.00349,0.78540,0.00000,0.00000,0.00000,65,29,27,4,71,12,29,6,ok,2,0,0.001,5,-0.47,0.29,8.81,31,0.140,8.01
4.7118,-0.02094,0.00349,0.78540,0.00000,0.00000,0.00000,67,28,28,4,71,13,29,6,ok,2,0,0.001,5,-0.47,0.29,8.81,31,0.152,8.01
4.7241,-0.02094,0.00349,0.78540,0.00000,0.00000,0.00000,69,25,30,3,72,15,31,4,ok,2,0,0.001,5,-0.47,0.29,8.81,31,0.165,8.01
4.7469,-0.02094,0.00349,0.78540,0.00000,0.00000,0.00000,71,21,31,2,71,16,32,3,ok,2,0,0.001,5,-0.47,0.29,8.81,31,0.177,8.01
4.7503,-0.02094,0.00349,0.78540,0.00000,0.00000,0.00000,72,17,32,2,71,18,33,3,ok,2,0,0.001,5,-0.47,0.29,8.81,31,0.190,8.01
4.7629,-0.02443,0.07679,0.91979,0.00000,0.00000,0.00000,72,15,34,2,72,18,34,2,ok,2,0,0.001,5,1.09,-0.55,10.58,32,0.000,8.01
4.7829,-0.02443,0.07679,0.91979,0.00000,0.00000,0.00000,72,14,35,2,71,21,36,1,ok,2,0,0.001,5,1.09,-0.55,10.58,32,0.012,8.01
4.7878,-0.02443,0.07679,0.91979,0.00000,0.00000,0.00000,72,11,36,2,71,22,38,1,ok,2,0,0.001,5,1.09,-0.55,10.58,32,0.025,8.01
4.8001,-0.02443,0.07679,0.91979,0.00000,0.00000,0.00000,71,8,37,2,71,24,39,2,ok,2,0,0.001,5,1.09,-0.55,10.58,32,0.037,8.01
4.8229,-0.02443,0.07679,0.91979,0.00000,0.00000,0.00000,71,5,38,2,71,26,40,2,ok,2,0,0.001,5,1.09,-0.55,10.58,32,0.050,8.01
4.8259,-0.02443,0.07679,0.91979,0.00000,0.00000,0.00000,70,1,40,2,70,28,42,2,ok,2,0,0.001,5,1.09,-0.55,10.58,32,0.063,8.01
4.8386,-0.02443,0.07679,0.91979,0.00000,0.00000,0.00000,69,-1,41,1,70,29,43,2,ok,2,0,0.001,5,1.09,-0.55,10.58,32,0.076,8.01
4.8589,-0.02443,0.07679,0.91979,0.00000,0.00000,0.00000,67,-3,43,2,71,29,44,1,ok,2,0,0.001,5,1.09,-0.55,10.58,32,0.088,8.01
4.8637,-0.02443,0.07679,0.91979,0.00000,0.00000,0.00000,65,-4,43,2,72,29,45,1,ok,2,0,0.001,5,1.09,-0.55,10.58,32,0.101,8.01
4.8761,-0.02443,0.07679,0.91979,0.00000,0.00000,0.00000,64,-6,45,2,74,26,46,0,ok,2,0,0.001,5,1.09,-0.55,10.58,32,0.113,8.01
4.8989,-0.02443,0.07679,0.91979,0.00000,0.00000,0.00000,63,-8,46,2,76,22,47,0,ok,2,0,0.001,5,1.09,-0.55,10.58,32,0.126,8.01
4.9019,-0.02443,0.07679,0.91979,0.00000,0.00000,0.00000,61,-9,48,3,77,17,49,1,ok,2,0,0.001,5,1.09,-0.55,10.58,32,0.139,8.01
4.9147,-0.02443,0.07679,0.91979,0.00000,0.00000,0.00000,59,-10,49,3,79,15,49,1,ok,2,0,0.001,5,1.09,-0.55,10.58,32,0.152,8.01
4.9349,-0.02443,0.07679,0.91979,0.00000,0.00000,0.00000,56,-11,50,3,79,14,50,1,ok,2,0,0.001,5,1.09,-0.55,10.58,32,0.164,8.01
4.9398,-0.02443,0.07679,0.91979,0.00000,0.00000,0.00000,54,-12,50,5,79,12,51,1,ok,2,0,0.001,5,1.09,-0.55,10.58,32,0.177,8.01
4.9521,-0.02443,0.07679,0.91979,0.00000,0.00000,0.00000,51,-12,51,6,79,8,52,1,ok,2,0,0.001,5,1.09,-0.55,10.58,32,0.189,8.01
4.9749,0.10123,0.00698,0.89361,0.00000,0.00000,0.00000,49,-11,52,5,78,5,53,1,ok,2,0,0.001,5,-0.64,1.08,10.43,33,0.000,8.01
4.9780,0.10123,0.00698,0.89361,0.00000,0.00000,0.00000,47,-11,53,6,77,3,54,0,ok,2,0,0.001,5,-0.64,1.08,10.43,33,0.013,8.01
4.9908,0.10123,0.00698,0.89361,0.00000,0.00000,0.00000,44,-11,54,7,77,0,55,1,ok,2,0,0.001,5,-0.64,1.08,10.43,33,0.026,8.01
5.0109,0.10123,0.00698,0.89361,0.00000,0.00000,0.00000,42,-11,56,7,76,-3,55,-1,ok,2,0,0.001,5,-0.64,1.08,10.43,33,0.039,8.01
5.0227,0.10123,0.00698,0.89361,0.00000,0.00000,0.00000,39,-10,56,7,75,-4,56,0,ok,2,0,0.001,5,-0.64,1.08,10.43,33,0.051,8.01
5.0281,0.10123,0.00698,0.89361,0.00000,0.00000,0.00000,36,-9,57,7,73,-7,57,-1,ok,2,0,0.001,5,-0.64,1.08,10.43,33,0.064,8.01
5.0509,0.10123,0.00698,0.89361,0.00000,0.00000,0.00000,33,-8,57,8,71,-7,57,0,ok,2,0,0.001,5,-0.64,1.08,10.43,33,0.076,8.01
5.0540,0.10123,0.00698,0.89361,0.00000,0.00000,0.00000,30,-6,58,8,69,-9,58,0,ok,2,0,0.001,5,-0.64,1.08,10.43,33,0.089,8.01
5.0668,0.10123,0.00698,0.89361,0.00000,0.00000,0.00000,28,-4,59,9,68,-11,59,1,ok,2,0,0.001,5,-0.64,1.08,10.43,33,0.102,8.01
5.0869,0.10123,0.00698,0.89361,0.00000,0.00000,0.00000,23,-1,60,11,66,-12,60,0,ok,2,0,0.001,5,-0.64,1.08,10.43,33,0.115,8.01
5.0917,0.10123,0.00698,0.89361,0.00000,0.00000,0.00000,22,-1,61,11,64,-13,61,0,ok,2,0,0.001,5,-0.64,1.08,10.43,33,0.127,8.01
5.1041,0.10123,0.00698,0.89361,0.00000,0.00000,0.00000,20,1,62,11,62,-13,63,-2,ok,2,0,0.001,5,-0.64,1.08,10.43,33,0.140,8.01
5.1269,0.10123,0.00698,0.89361,0.00000,0.00000,0.00000,18,3,62,12,59,-14,64,-1,ok,2,0,0.001,5,-0.64,1.08,10.43,33,0.152,8.01
5.1300,0.10123,0.00698,0.89361,0.00000,0.00000,0.00000,16,7,62,13,57,-14,65,-1,ok,0,0,0.001,5,-0.64,1.08,10.43,33,0.165,8.01
5.1426,0.10123,0.00698,0.89361,0.00000,0.00000,0.00000,14,10,62,14,54,-13,65,-1,ok,0,0,0.001,5,-0.64,1.08,10.43,33,0.178,8.01
5.1629,0.10123,0.00698,0.89361,0.00000,0.00000,0.00000,12,13,63,15,51,-12,66,-1,ok,0,0,0.001,5,-0.64,1.08,10.43,33,0.191,8.01
5.1679,0.07679,-0.02443,0.89361,0.00000,0.00000,0.00000,14,13,63,16,49,-12,67,0,ok,0,0,0.001,5,-0.81,0.04,9.89,34,0.000,8.01
5.1801,0.07679,-0.02443,0.89361,0.00000,0.00000,0.00000,14,13,63,17,46,-11,68,0,ok,0,0,0.001,5,-0.81,0.04,9.89,34,0.013,8.01
5.2029,0.07679,-0.02443,0.89361,0.00000,0.00000,0.00000,15,12,64,17,44,-11,68,1,ok,0,0,0.001,5,-0.81,0.04,9.89,34,0.025,8.01
5.2059,0.07679,-0.02443,0.89361,0.00000,0.00000,0.00000,17,12,64,18,41,-10,69,1,ok,0,0,0.001,5,-0.81,0.04,9.89,34,0.038,8.01
5.2187,0.07679,-0.02443,0.89361,0.00000,0.00000,0.00000,17,11,65,19,38,-9,70,2,ok,0,0,0.001,5,-0.81,0.04,9.89,34,0.051,8.01
5.2389,0.07679,-0.02443,0.89361,0.00000,0.00000,0.00000,19,10,65,20,35,-8,70,2,ok,0,0,0.002,5,-0.81,0.04,9.89,34,0.064,8.01
5.2436,0.07679,-0.02443,0.89361,0.00000,0.00000,0.00000,20,10,65,21,33,-6,71,3,ok,0,0,0.002,5,-0.81,0.04,9.89,34,0.076,8.01
5.2563,0.07679,-0.02443,0.89361,0.00000,0.00000,0.00000,22,8,66,22,31,-5,71,5,ok,0,0,0.002,5,-0.81,0.04,9.89,34,0.089,8.01
5.2789,0.07679,-0.02443,0.89361,0.00000,0.00000,0.00000,23,8,66,23,29,-2,72,5,ok,0,0,0.002,5,-0.81,0.04,9.89,34,0.101,8.01
5.2820,0.07679,-0.02443,0.89361,0.00000,0.00000,0.00000,24,7,65,23,27,1,72,6,ok,0,0,0.002,5,-0.81,0.04,9.89,34,0.114,8.01
5.2947,0.07679,-0.02443,0.89361,0.00000,0.00000,0.00000,26,6,65,24,26,4,72,8,ok,0,0,0.002,5,-0.81,0.04,9.89,34,0.127,8.01
5.3149,0.07679,-0.02443,0.89361,0.00000,0.00000,0.00000,27,6,65,25,26,6,73,8,ok,0,0,0.002,5,-0.81,0.04,9.89,34,0.140,8.01
5.3197,0.07679,-0.02443,0.89361,0.00000,0.00000,0.00000,28,5,64,28,27,6,73,9,ok,0,0,0.002,5,-0.81,0.04,9.89,34,0.152,8.01
5.3323,0.07679,-0.02443,0.89361,0.00000,0.00000,0.00000,29,4,63,29,28,5,73,11,ok,0,0,0.002,5,-0.81,0.04,9.89,34,0.165,8.01
5.3549,0.07679,-0.02443,0.89361,0.00000,0.00000,0.00000,30,4,65,28,29,3,73,12,ok,0,0,0.002,5,-0.81,0.04,9.89,34,0.177,8.01
5.3582,0.07679,-0.02443,0.89361,0.00000,0.00000,0.00000,32,3,67,25,30,3,73,14,ok,0,0,0.002,5,-0.81,0.04,9.89,34,0.190,8.01
5.3709,0.04014,0.08901,0.85696,0.00000,0.00000,0.00000,33,3,70,21,31,3,74,16,ok,0,0,0.002,5,2.25,3.34,9.52,35,0.000,8.01
5.3909,0.04014,0.08901,0.85696,0.00000,0.00000,0.00000,34,2,71,17,33,2,73,18,ok,0,0,0.002,5,2.25,3.34,9.52,35,0.013,8.01
5.3956,0.04014,0.08901,0.85696,0.00000,0.00000,0.00000,36,2,71,15,34,1,73,20,ok,0,0,0.002,5,2.25,3.34,9.52,35,0.025,8.01
5.4082,0.04014,0.08901,0.85696,0.00000,0.00000,0.00000,37,1,71,14,36,2,74,20,ok,0,0,0.002,5,2.25,3.34,9.52,35,0.038,8.01
5.4309,0.04014,0.08901,0.85696,0.00000,0.00000,0.00000,38,1,71,11,37,2,73,23,ok,0,0,0.002,5,2.25,3.34,9.52,35,0.050,8.01
5.4342,0.04014,0.08901,0.85696,0.00000,0.00000,0.00000,40,1,70,8,38,2,72,24,ok,0,0,0.002,5,2.25,3.34,9.52,35,0.063,8.01
5.4466,0.04014,0.08901,0.85696,0.00000,0.00000,0.00000,41,1,70,5,40,1,73,25,ok,0,0,0.002,5,2.25,3.34,9.52,35,0.076,8.01
5.4669,0.04014,0.08901,0.85696,0.00000,0.00000,0.00000,43,0,69,3,41,2,73,27,ok,0,0,0.002,5,2.25,3.34,9.52,35,0.088,8.01
5.4717,0.04014,0.08901,0.85696,0.00000,0.00000,0.00000,44,0,68,1,42,1,73,28,ok,0,0,0.002,5,2.25,3.34,9.52,35,0.101,8.01
5.4843,0.04014,0.08901,0.85696,0.00000,0.00000,0.00000,46,0,67,-1,43,1,72,29,ok,0,0,0.002,5,2.25,3.34,9.52,35,0.113,8.01
5.5069,0.04014,0.08901,0.85696,0.00000,0.00000,0.00000,46,0,65,-2,44,1,73,29,ok,0,0,0.002,5,2.25,3.34,9.52,35,0.126,8.01
5.5100,0.04014,0.08901,0.85696,0.00000,0.00000,0.00000,48,1,64,-4,46,1,74,29,ok,0,0,0.002,5,2.25,3.34,9.52,35,0.139,8.01
5.5226,0.04014,0.08901,0.85696,0.00000,0.00000,0.00000,49,1,63,-6,47,1,76,26,ok,0,0,0.002,5,2.25,3.34,9.52,35,0.152,8.01
5.5429,0.04014,0.08901,0.85696,0.00000,0.00000,0.00000,50,2,61,-7,48,1,78,21,ok,0,0,0.002,5,2.25,3.34,9.52,35,0.165,8.01
5.5476,0.04014,0.08901,0.85696,0.00000,0.00000,0.00000,51,1,58,-8,49,1,79,17,ok,0,0,0.002,5,2.25,3.34,9.52,35,0.177,8.01
5.5604,-0.12566,-0.02967,1.02451,0.00000,0.00000,0.00000,52,1,56,-8,50,1,81,14,ok,0,0,0.002,5,-0.91,-1.66,9.88,36,0.000,8.01
5.5829,-0.12566,-0.02967,1.02451,0.00000,0.00000,0.00000,52,3,54,-9,51,0,81,14,ok,0,0,0.002,5,-0.91,-1.66,9.88,36,0.013,8.01
5.5860,-0.12566,-0.02967,1.02451,0.00000,0.00000,0.00000,53,4,51,-9,52,0,81,11,ok,0,0,0.002,6,-0.91,-1.66,9.88,36,0.026,8.01
5.5989,-0.12566,-0.02967,1.02451,0.00000,0.00000,0.00000,54,4,48,-9,53,0,81,8,ok,2,0,0.002,6,-0.91,-1.66,9.88,36,0.038,8.01
5.6230,-0.12566,-0.02967,1.02451,0.00000,0.00000,0.00000,54,5,46,-8,54,1,81,5,ok,2,0,0.002,6,-0.91,-1.66,9.88,36,0.051,8.01
5.6261,-0.12566,-0.02967,1.02451,0.00000,0.00000,0.00000,55,5,43,-9,55,1,80,3,ok,2,0,0.002,6,-0.91,-1.66,9.88,36,0.066,8.01
5.6393,-0.12566,-0.02967,1.02451,0.00000,0.00000,0.00000,57,6,41,-9,56,1,79,-1,ok,2,0,0.002,6,-0.91,-1.66,9.88,36,0.079,8.01
5.6589,-0.12566,-0.02967,1.02451,0.00000,0.00000,0.00000,57,6,39,-8,57,0,79,-3,ok,2,0,0.002,6,-0.91,-1.66,9.88,36,0.091,8.01
5.6637,-0.12566,-0.02967,1.02451,0.00000,0.00000,0.00000,58,7,35,-7,58,1,77,-4,ok,2,0,0.002,6,-0.91,-1.66,9.88,36,0.104,8.01
5.6763,-0.12566,-0.02967,1.02451,0.00000,0.00000,0.00000,58,8,33,-6,59,2,75,-7,ok,2,0,0.002,6,-0.91,-1.66,9.88,36,0.116,8.01
5.6989,-0.12566,-0.02967,1.02451,0.00000,0.00000,0.00000,59,8,29,-5,60,2,72,-7,ok,2,0,0.002,6,-0.91,-1.66,9.88,36,0.129,8.01
5.7020,-0.12566,-0.02967,1.02451,0.00000,0.00000,0.00000,60,9,26,-3,61,1,71,-9,ok,2,0,0.002,6,-0.91,-1.66,9.88,36,0.142,8.01
5.7145,-0.12566,-0.02967,1.02451,0.00000,0.00000,0.00000,62,10,22,-1,62,1,69,-11,ok,2,0,0.002,6,-0.91,-1.66,9.88,36,0.154,8.01
5.7349,-0.12566,-0.02967,1.02451,0.00000,0.00000,0.00000,62,10,20,0,64,-1,67,-12,ok,2,0,0.002,6,-0.91,-1.66,9.88,36,0.167,8.01
5.7396,-0.12566,-0.02967,1.02451,0.00000,0.00000,0.00000,63,11,18,1,64,-1,65,-13,ok,2,0,0.002,6,-0.91,-1.66,9.88,36,0.179,8.01
5.7523,-0.12566,-0.02967,1.02451,0.00000,0.00000,0.00000,63,12,16,4,65,0,63,-13,ok,2,0,0.002,6,-0.91,-1.66,9.88,36,0.192,8.01
5.7749,-0.06283,-0.04712,1.06814,0.00000,0.00000,0.00000,64,12,14,7,65,0,61,-14,ok,2,0,0.002,6,-1.17,-1.02,9.66,37,0.000,8.01
5.7781,-0.06283,-0.04712,1.06814,0.00000,0.00000,0.00000,64,13,13,10,66,1,59,-14,ok,2,0,0.002,6,-1.17,-1.02,9.66,37,0.013,8.01
5.7906,-0.06283,-0.04712,1.06814,0.00000,0.00000,0.00000,65,14,11,13,67,0,56,-13,ok,2,0,0.002,6,-1.17,-1.02,9.66,37,0.026,8.01
5.8109,-0.06283,-0.04712,1.06814,0.00000,0.00000,0.00000,65,15,13,13,67,1,53,-12,ok,2,0,0.002,6,-1.17,-1.02,9.66,37,0.039,8.01
5.8157,-0.06283,-0.04712,1.06814,0.00000,0.00000,0.00000,65,16,12,13,68,1,51,-12,ok,2,0,0.002,6,-1.17,-1.02,9.66,37,0.051,8.01
5.8282,-0.06283,-0.04712,1.06814,0.00000,0.00000,0.00000,66,17,14,12,68,1,47,-11,ok,2,0,0.002,6,-1.17,-1.02,9.66,37,0.064,8.01
5.8509,-0.06283,-0.04712,1.06814,0.00000,0.00000,0.00000,66,18,15,11,69,2,45,-10,ok,2,0,0.002,6,-1.17,-1.02,9.66,37,0.076,8.01
5.8540,-0.06283,-0.04712,1.06814,0.00000,0.00000,0.00000,67,18,15,10,69,3,42,-9,ok,2,0,0.002,6,-1.17,-1.02,9.66,37,0.089,8.01
5.8665,-0.06283,-0.04712,1.06814,0.00000,0.00000,0.00000,67,19,17,9,69,3,39,-8,ok,2,0,0.002,6,-1.17,-1.02,9.66,37,0.102,8.01
5.8869,-0.06283,-0.04712,1.06814,0.00000,0.00000,0.00000,67,20,18,9,70,4,36,-7,ok,2,0,0.002,6,-1.17,-1.02,9.66,37,0.115,8.01
5.8916,-0.06283,-0.04712,1.06814,0.00000,0.00000,0.00000,68,21,20,8,71,5,34,-5,ok,2,0,0.002,6,-1.17,-1.02,9.66,37,0.127,8.01
5.9042,-0.06283,-0.04712,1.06814,0.00000,0.00000,0.00000,68,22,21,7,70,6,32,-4,ok,2,0,0.002,6,-1.17,-1.02,9.66,37,0.139,8.01
5.9269,-0.06283,-0.04712,1.06814,0.00000,0.00000,0.00000,68,23,22,7,70,7,30,-1,ok,2,0,0.002,6,-1.17,-1.02,9.66,37,0.152,8.01
5.9300,-0.06283,-0.04712,1.06814,0.00000,0.00000,0.00000,68,24,23,6,71,8,29,2,ok,2,0,0.002,6,-1.17,-1.02,9.66,37,0.165,8.01
5.9426,-0.06283,-0.04712,1.06814,0.00000,0.00000,0.00000,67,25,25,5,71,9,27,5,ok,2,0,0.002,6,-1.17,-1.02,9.66,37,0.178,8.01
5.9629,-0.06283,-0.04712,1.06814,0.00000,0.00000,0.00000,66,28,26,5,71,10,27,7,ok,2,0,0.002,6,-1.17,-1.02,9.66,37,0.191,8.01
5.9679,0.03840,-0.00175,1.11527,0.00000,0.00000,0.00000,66,29,27,4,71,12,29,6,ok,2,0,0.002,6,0.33,-0.07,10.52,38,0.000,8.01
5.9802,0.03840,-0.00175,1.11527,0.00000,0.00000,0.00000,67,28,28,4,71,13,29,6,ok,2,0,0.002,6,0.33,-0.07,10.52,38,0.013,8.01
6.0029,0.03840,-0.00175,1.11527,0.00000,0.00000,0.00000,69,25,30,3,71,15,31,3,ok,2,0,0.002,6,0.33,-0.07,10.52,38,0.025,8.01
6.0060,0.03840,-0.00175,1.11527,0.00000,0.00000,0.00000,71,21,31,2,71,16,32,3,ok,2,0,0.002,6,0.33,-0.07,10.52,38,0.038,8.01
6.0186,0.03840,-0.00175,1.11527,0.00000,0.00000,0.00000,72,17,32,2,71,18,33,3,ok,2,0,0.002,6,0.33,-0.07,10.52,38,0.051,8.01
6.0389,0.03840,-0.00175,1.11527,0.00000,0.00000,0.00000,73,15,33,2,72,19,34,2,ok,2,0,0.002,6,0.33,-0.07,10.52,38,0.064,8.01
6.0436,0.03840,-0.00175,1.11527,0.00000,0.00000,0.00000,72,14,35,2,71,21,36,1,ok,2,0,0.002,6,0.33,-0.07,10.52,38,0.076,8.01
6.0561,0.03840,-0.00175,1.11527,0.00000,0.00000,0.00000,72,11,36,2,71,22,38,1,ok,2,0,0.002,6,0.33,-0.07,10.52,38,0.088,8.01
6.0789,0.03840,-0.00175,1.11527,0.00000,0.00000,0.00000,72,8,37,2,71,24,39,2,ok,2,0,0.002,6,0.33,-0.07,10.52,38,0.101,8.01
6.0822,0.03840,-0.00175,1.11527,0.00000,0.00000,0.00000,71,5,39,2,71,25,41,1,ok,2,0,0.002,6,0.33,-0.07,10.52,38,0.114,8.01
6.0945,0.03840,-0.00175,1.11527,0.00000,0.00000,0.00000,70,1,40,2,70,27,42,2,ok,2,0,0.002,6,0.33,-0.07,10.52,38,0.127,8.01
6.1149,0.03840,-0.00175,1.11527,0.00000,0.00000,0.00000,69,-1,41,1,70,29,43,2,ok,2,0,0.002,6,0.33,-0.07,10.52,38,0.140,8.01
6.1197,0.03840,-0.00175,1.11527,0.00000,0.00000,0.00000,68,-3,43,2,70,29,44,1,ok,2,0,0.002,6,0.33,-0.07,10.52,38,0.152,8.01
6.1323,0.03840,-0.00175,1.11527,0.00000,0.00000,0.00000,66,-4,43,2,72,29,45,1,ok,2,0,0.002,6,0.33,-0.07,10.52,38,0.165,8.01
6.1589,0.03840,-0.00175,1.11527,0.00000,0.00000,0.00000,65,-6,45,3,73,26,47,0,ok,2,0,0.002,6,0.33,-0.07,10.52,38,0.177,8.01
6.1623,0.08203,0.02443,1.15715,0.00000,0.00000,0.00000,64,-8,46,3,75,22,48,0,ok,2,0,0.002,6,0.15,0.57,10.23,39,0.000,8.01
6.1746,0.08203,0.02443,1.15715,0.00000,0.00000,0.00000,62,-9,48,4,76,17,49,0,ok,2,0,0.002,6,0.15,0.57,10.23,39,0.013,8.01
6.1949,0.08203,0.02443,1.15715,0.00000,0.00000,0.00000,59,-10,49,3,78,15,49,0,ok,2,0,0.002,6,0.15,0.57,10.23,39,0.025,8.01
6.1996,0.08203,0.02443,1.15715,0.00000,0.00000,0.00000,57,-10,50,3,78,14,50,0,ok,2,0,0.002,6,0.15,0.57,10.23,39,0.038,8.01
6.2122,0.08203,0.02443,1.15715,0.00000,0.00000,0.00000,55,-11,50,5,78,12,51,0,ok,2,0,0.002,6,0.15,0.57,10.23,39,0.050,8.01
6.2349,0.08203,0.02443,1.15715,0.00000,0.00000,0.00000,52,-11,51,6,78,8,52,0,ok,2,0,0.002,6,0.15,0.57,10.23,39,0.063,8.01
6.2380,0.08203,0.02443,1.15715,0.00000,0.00000,0.00000,49,-11,52,5,78,5,53,0,ok,2,0,0.002,6,0.15,0.57,10.23,39,0.076,8.01
6.2508,0.08203,0.02443,1.15715,0.00000,0.00000,0.00000,47,-11,53,6,77,3,54,0,ok,2,0,0.002,6,0.15,0.57,10.23,39,0.089,8.01
6.2709,0.08203,0.02443,1.15715,0.00000,0.00000,0.00000,44,-11,53,7,76,0,55,1,ok,2,0,0.002,6,0.15,0.57,10.23,39,0.101,8.01
6.2756,0.08203,0.02443,1.15715,0.00000,0.00000,0.00000,42,-11,55,7,76,-3,55,0,ok,2,0,0.002,6,0.15,0.57,10.23,39,0.114,8.01
6.2884,0.08203,0.02443,1.15715,0.00000,0.00000,0.00000,40,-10,55,7,75,-4,57,1,ok,2,0,0.002,6,0.15,0.57,10.23,39,0.126,8.01
6.3109,0.08203,0.02443,1.15715,0.00000,0.00000,0.00000,37,-9,56,8,73,-7,57,-1,ok,2,0,0.002,6,0.15,0.57,10.23,39,0.139,8.01
6.3140,0.08203,0.02443,1.15715,0.00000,0.00000,0.00000,34,-8,57,9,70,-7,58,0,ok,2,0,0.002,6,0.15,0.57,10.23,39,0.152,8.01
6.3265,0.08203,0.02443,1.15715,0.00000,0.00000,0.00000,31,-6,58,9,69,-9,58,0,ok,2,0,0.002,6,0.15,0.57,10.23,39,0.165,8.01
6.3469,0.08203,0.02443,1.15715,0.00000,0.00000,0.00000,28,-4,58,9,68,-10,60,1,ok,2,0,0.002,6,0.15,0.57,10.23,39,0.177,8.01
6.3516,0.08203,0.02443,1.15715,0.00000,0.00000,0.00000,24,-2,60,11,66,-12,60,0,ok,2,0,0.002,6,0.15,0.57,10.23,39,0.190,8.01
6.3644,0.09948,0.00000,1.16937,0.00000,0.00000,0.00000,22,-1,61,11,64,-12,61,0,ok,2,0,0.002,6,0.52,0.43,10.56,40,0.000,8.01
6.3869,0.09948,0.00000,1.16937,0.00000,0.00000,0.00000,20,1,61,11,62,-13,64,-2,ok,2,0,0.002,6,0.52,0.43,10.56,40,0.013,8.01
6.3900,0.09948,0.00000,1.16937,0.00000,0.00000,0.00000,18,3,62,12,59,-13,64,-1,ok,2,0,0.002,6,0.52,0.43,10.56,40,0.026,8.01
6.4026,0.09948,0.00000,1.16937,0.00000,0.00000,0.00000,16,7,62,13,57,-14,65,-1,ok,2,0,0.002,6,0.52,0.43,10.56,40,0.039,8.01
6.4229,0.09948,0.00000,1.16937,0.00000,0.00000,0.00000,14,10,62,14,54,-13,66,-1,ok,2,0,0.002,6,0.52,0.43,10.56,40,0.051,8.01
6.4276,0.09948,0.00000,1.16937,0.00000,0.00000,0.00000,13,13,63,15,51,-12,66,-1,ok,2,0,0.002,6,0.52,0.43,10.56,40,0.064,8.01
6.4402,0.09948,0.00000,1.16937,0.00000,0.00000,0.00000,14,13,63,16,49,-12,67,0,ok,2,0,0.002,6,0.52,0.43,10.56,40,0.076,8.01
6.4629,0.09948,0.00000,1.16937,0.00000,0.00000,0.00000,14,13,63,17,46,-11,68,0,ok,2,0,0.002,6,0.52,0.43,10.56,40,0.089,8.01
6.4662,0.09948,0.00000,1.16937,0.00000,0.00000,0.00000,16,12,64,17,44,-11,69,1,ok,2,0,0.002,6,0.52,0.43,10.56,40,0.102,8.01
6.4787,0.09948,0.00000,1.16937,0.00000,0.00000,0.00000,17,12,64,18,41,-9,69,1,ok,2,0,0.002,6,0.52,0.43,10.56,40,0.115,8.01
6.4989,0.09948,0.00000,1.16937,0.00000,0.00000,0.00000,18,11,65,19,38,-9,70,2,ok,2,0,0.002,6,0.52,0.43,10.56,40,0.127,8.01
6.5036,0.09948,0.00000,1.16937,0.00000,0.00000,0.00000,20,10,65,20,35,-7,70,2,ok,0,0,0.002,6,0.52,0.43,10.56,40,0.139,8.01
6.5161,0.09948,0.00000,1.16937,0.00000,0.00000,0.00000,20,10,65,21,33,-6,71,3,ok,0,0,0.002,6,0.52,0.43,10.56,40,0.152,8.01
6.5389,0.09948,0.00000,1.16937,0.00000,0.00000,0.00000,22,9,65,21,31,-5,71,5,ok,0,0,0.002,6,0.52,0.43,10.56,40,0.165,8.01
6.5420,0.09948,0.00000,1.16937,0.00000,0.00000,0.00000,23,8,65,23,28,-1,72,5,ok,0,0,0.002,6,0.52,0.43,10.56,40,0.178,8.01
6.5545,0.09948,0.00000,1.16937,0.00000,0.00000,0.00000,25,7,65,23,27,1,72,7,ok,0,0,0.002,6,0.52,0.43,10.56,40,0.190,8.01
6.5749,0.09948,0.00000,1.16937,0.00000,0.00000,0.00000,26,6,65,24,26,4,72,8,ok,0,0,0.002,6,0.52,0.43,10.56,40,0.203,8.01
6.5799,0.04887,0.05061,1.13446,0.00000,0.00000,0.00000,27,6,65,25,26,7,73,9,ok,0,0,0.002,6,0.05,1.51,8.60,41,0.000,8.01
6.5922,0.04887,0.05061,1.13446,0.00000,0.00000,0.00000,28,5,64,28,27,6,73,10,ok,0,0,0.002,6,0.05,1.51,8.60,41,0.013,8.01
6.6149,0.04887,0.05061,1.13446,0.00000,0.00000,0.00000,30,4,63,29,28,6,73,12,ok,0,0,0.002,7,0.05,1.51,8.60,41,0.025,8.01
6.6182,0.04887,0.05061,1.13446,0.00000,0.00000,0.00000,31,4,64,28,29,4,73,13,ok,0,0,0.002,7,0.05,1.51,8.60,41,0.038,8.01
6.6305,0.04887,0.05061,1.13446,0.00000,0.00000,0.00000,32,3,67,25,30,3,74,15,ok,0,0,0.002,7,0.05,1.51,8.60,41,0.051,8.01
6.6511,0.04887,0.05061,1.13446,0.00000,0.00000,0.00000,33,3,69,21,31,3,74,16,ok,0,0,0.002,7,0.05,1.51,8.60,41,0.064,8.01
6.6556,0.04887,0.05061,1.13446,0.00000,0.00000,0.00000,35,2,70,17,32,3,73,18,ok,0,0,0.002,7,0.05,1.51,8.60,41,0.076,8.01
6.6682,0.04887,0.05061,1.13446,0.00000,0.00000,0.00000,36,2,71,15,34,2,73,20,ok,0,0,0.002,7,0.05,1.51,8.60,41,0.089,8.01
6.6909,0.04887,0.05061,1.13446,0.00000,0.00000,0.00000,38,1,71,15,36,2,74,20,ok,0,0,0.002,7,0.05,1.51,8.60,41,0.101,8.01
6.6940,0.04887,0.05061,1.13446,0.00000,0.00000,0.00000,39,1,71,11,36,2,73,23,ok,0,0,0.002,7,0.05,1.51,8.60,41,0.114,8.01
6.7067,0.04887,0.05061,1.13446,0.00000,0.00000,0.00000,41,1,70,8,38,3,73,24,ok,0,0,0.002,7,0.05,1.51,8.60,41,0.127,8.01
6.7269,0.04887,0.05061,1.13446,0.00000,0.00000,0.00000,42,1,70,6,40,2,73,25,ok,0,0,0.002,7,0.05,1.51,8.60,41,0.140,8.01
6.7316,0.04887,0.05061,1.13446,0.00000,0.00000,0.00000,43,0,69,3,41,2,73,26,ok,0,0,0.002,7,0.05,1.51,8.60,41,0.152,8.01
6.7442,0.04887,0.05061,1.13446,0.00000,0.00000,0.00000,44,0,68,1,42,1,73,28,ok,0,0,0.002,7,0.05,1.51,8.60,41,0.165,8.01
6.7669,0.04887,0.05061,1.13446,0.00000,0.00000,0.00000,46,0,67,0,43,1,72,29,ok,0,0,0.002,7,0.05,1.51,8.60,41,0.177,8.01
6.7700,0.04887,0.05061,1.13446,0.00000,0.00000,0.00000,46,0,65,-2,44,0,74,29,ok,0,0,0.002,7,0.05,1.51,8.60,41,0.190,8.01
6.7828,-0.05411,-0.03142,1.15366,0.00000,0.00000,0.00000,48,1,64,-4,46,1,75,29,ok,0,0,0.002,7,-0.72,-0.64,8.98,42,0.000,8.01
6.8029,-0.05411,-0.03142,1.15366,0.00000,0.00000,0.00000,49,0,63,-6,47,0,76,27,ok,0,0,0.002,7,-0.72,-0.64,8.98,42,0.013,8.01
6.8076,-0.05411,-0.03142,1.15366,0.00000,0.00000,0.00000,51,1,61,-6,48,0,78,21,ok,0,0,0.002,7,-0.72,-0.64,8.98,42,0.025,8.01
6.8202,-0.05411,-0.03142,1.15366,0.00000,0.00000,0.00000,52,1,58,-8,48,0,80,18,ok,0,0,0.002,7,-0.72,-0.64,8.98,42,0.038,8.01
6.8429,-0.05411,-0.03142,1.15366,0.00000,0.00000,0.00000,52,1,56,-8,50,0,81,14,ok,0,0,0.002,7,-0.72,-0.64,8.98,42,0.050,8.01
6.8463,-0.05411,-0.03142,1.15366,0.00000,0.00000,0.00000,52,3,54,-9,51,0,81,14,ok,2,0,0.002,7,-0.72,-0.64,8.98,42,0.063,8.01
6.8587,-0.05411,-0.03142,1.15366,0.00000,0.00000,0.00000,53,4,51,-9,52,0,81,11,ok,2,0,0.002,7,-0.72,-0.64,8.98,42,0.076,8.01
6.8789,-0.05411,-0.03142,1.15366,0.00000,0.00000,0.00000,54,4,48,-9,53,0,81,7,ok,2,0,0.002,7,-0.72,-0.64,8.98,42,0.089,8.01
6.8838,-0.05411,-0.03142,1.15366,0.00000,0.00000,0.00000,54,5,46,-8,54,1,80,4,ok,2,0,0.002,7,-0.72,-0.64,8.98,42,0.101,8.01
6.8963,-0.05411,-0.03142,1.15366,0.00000,0.00000,0.00000,55,6,43,-9,55,1,80,2,ok,2,0,0.002,7,-0.72,-0.64,8.98,42,0.114,8.01
6.9189,-0.05411,-0.03142,1.15366,0.00000,0.00000,0.00000,57,6,41,-9,56,1,79,-1,ok,2,0,0.002,7,-0.72,-0.64,8.98,42,0.126,8.01
6.9220,-0.05411,-0.03142,1.15366,0.00000,0.00000,0.00000,57,6,39,-8,57,1,78,-3,ok,2,0,0.002,7,-0.72,-0.64,8.98,42,0.139,8.01
6.9345,-0.05411,-0.03142,1.15366,0.00000,0.00000,0.00000,58,7,35,-7,58,1,77,-5,ok,2,0,0.002,7,-0.72,-0.64,8.98,42,0.152,8.01
6.9549,-0.05411,-0.03142,1.15366,0.00000,0.00000,0.00000,59,8,32,-6,58,1,75,-7,ok,2,0,0.002,7,-0.72,-0.64,8.98,42,0.165,8.01
6.9598,-0.05411,-0.03142,1.15366,0.00000,0.00000,0.00000,60,8,29,-5,59,2,72,-7,ok,2,0,0.002,7,-0.72,-0.64,8.98,42,0.177,8.01
6.9723,-0.05411,-0.03142,1.15366,0.00000,0.00000,0.00000,60,9,26,-3,60,2,71,-9,ok,2,0,0.002,7,-0.72,-0.64,8.98,42,0.190,8.01
6.9949,-0.09599,0.00349,1.21126,0.00000,0.00000,0.00000,62,10,21,-1,61,1,70,-11,ok,2,0,0.002,7,-0.12,-0.72,9.96,43,0.000,8.01
6.9980,-0.09599,0.00349,1.21126,0.00000,0.00000,0.00000,62,10,20,0,64,-1,68,-12,ok,2,0,0.002,7,-0.12,-0.72,9.96,43,0.013,8.01
7.0108,-0.09599,0.00349,1.21126,0.00000,0.00000,0.00000,63,11,18,1,64,-1,65,-13,ok,2,0,0.002,7,-0.12,-0.72,9.96,43,0.026,8.01
7.0309,-0.09599,0.00349,1.21126,0.00000,0.00000,0.00000,64,12,16,4,65,0,63,-13,ok,2,0,0.002,7,-0.12,-0.72,9.96,43,0.039,8.01
7.0356,-0.09599,0.00349,1.21126,0.00000,0.00000,0.00000,64,12,14,7,65,0,61,-13,ok,2,0,0.002,7,-0.12,-0.72,9.96,43,0.051,8.01
7.0482,-0.09599,0.00349,1.21126,0.00000,0.00000,0.00000,64,14,12,10,66,1,59,-14,ok,2,0,0.002,7,-0.12,-0.72,9.96,43,0.064,8.01
7.0709,-0.09599,0.00349,1.21126,0.00000,0.00000,0.00000,65,14,10,13,67,1,56,-12,ok,2,0,0.002,7,-0.12,-0.72,9.96,43,0.076,8.01
7.0740,-0.09599,0.00349,1.21126,0.00000,0.00000,0.00000,65,15,12,13,67,1,53,-12,ok,2,0,0.002,7,-0.12,-0.72,9.96,43,0.089,8.01
7.0866,-0.09599,0.00349,1.21126,0.00000,0.00000,0.00000,66,16,12,13,68,1,51,-12,ok,2,0,0.002,7,-0.12,-0.72,9.96,43,0.102,8.01
7.1069,-0.09599,0.00349,1.21126,0.00000,0.00000,0.00000,66,17,13,12,68,2,48,-11,ok,2,0,0.002,7,-0.12,-0.72,9.96,43,0.114,8.01
7.1116,-0.09599,0.00349,1.21126,0.00000,0.00000,0.00000,66,18,15,11,69,3,45,-10,ok,2,0,0.002,7,-0.12,-0.72,9.96,43,0.127,8.01
7.1242,-0.09599,0.00349,1.21126,0.00000,0.00000,0.00000,67,18,15,10,69,3,42,-9,ok,2,0,0.002,7,-0.12,-0.72,9.96,43,0.139,8.01
7.1469,-0.09599,0.00349,1.21126,0.00000,0.00000,0.00000,67,19,17,9,69,4,40,-8,ok,2,0,0.002,7,-0.12,-0.72,9.96,43,0.152,8.01
7.1500,-0.09599,0.00349,1.21126,0.00000,0.00000,0.00000,67,20,17,9,70,5,36,-6,ok,2,0,0.002,7,-0.12,-0.72,9.96,43,0.165,8.01
7.1626,-0.09599,0.00349,1.21126,0.00000,0.00000,0.00000,68,21,19,8,71,5,34,-5,ok,2,0,0.002,7,-0.12,-0.72,9.96,43,0.178,8.01
7.1829,-0.09599,0.00349,1.21126,0.00000,0.00000,0.00000,68,22,21,7,71,6,32,-3,ok,2,0,0.002,7,-0.12,-0.72,9.96,43,0.191,8.01
7.1879,-0.02094,0.02269,1.24966,0.00000,0.00000,0.00000,68,23,22,7,70,8,30,0,ok,2,0,0.002,7,0.82,-0.43,10.19,44,0.000,8.01
7.2002,-0.02094,0.02269,1.24966,0.00000,0.00000,0.00000,68,24,23,6,71,9,29,2,ok,2,0,0.002,7,0.82,-0.43,10.19,44,0.013,8.01
7.2229,-0.02094,0.02269,1.24966,0.00000,0.00000,0.00000,67,25,25,5,71,10,28,5,ok,2,0,0.002,7,0.82,-0.43,10.19,44,0.025,8.01
7.2260,-0.02094,0.02269,1.24966,0.00000,0.00000,0.00000,66,28,26,5,71,11,27,7,ok,2,0,0.002,7,0.82,-0.43,10.19,44,0.038,8.01
7.2385,-0.02094,0.02269,1.24966,0.00000,0.00000,0.00000,66,29,27,4,71,12,29,6,ok,2,0,0.002,7,0.82,-0.43,10.19,44,0.051,8.01
7.2589,-0.02094,0.02269,1.24966,0.00000,0.00000,0.00000,67,28,28,4,71,13,29,6,ok,2,0,0.002,7,0.82,-0.43,10.19,44,0.063,8.01
7.2636,-0.02094,0.02269,1.24966,0.00000,0.00000,0.00000,69,25,29,3,71,15,31,4,ok,2,0,0.002,7,0.82,-0.43,10.19,44,0.076,8.01
7.2762,-0.02094,0.02269,1.24966,0.00000,0.00000,0.00000,72,21,31,3,71,16,32,3,ok,2,0,0.002,7,0.82,-0.43,10.19,44,0.088,8.01
7.2990,-0.02094,0.02269,1.24966,0.00000,0.00000,0.00000,73,17,32,2,71,18,33,3,ok,2,0,0.002,7,0.82,-0.43,10.19,44,0.101,8.01
7.3023,-0.02094,0.02269,1.24966,0.00000,0.00000,0.00000,73,15,33,2,72,19,35,2,ok,2,0,0.002,7,0.82,-0.43,10.19,44,0.114,8.01
7.3147,-0.02094,0.02269,1.24966,0.00000,0.00000,0.00000,73,14,35,2,71,21,36,2,ok,2,0,0.002,7,0.82,-0.43,10.19,44,0.127,8.01
7.3349,-0.02094,0.02269,1.24966,0.00000,0.00000,0.00000,73,11,36,2,71,22,38,2,ok,2,0,0.002,7,0.82,-0.43,10.19,44,0.140,8.01
7.3397,-0.02094,0.02269,1.24966,0.00000,0.00000,0.00000,72,7,38,2,71,24,39,2,ok,2,0,0.002,7,0.82,-0.43,10.19,44,0.152,8.01
7.3523,-0.02094,0.02269,1.24966,0.00000,0.00000,0.00000,71,5,39,2,71,26,41,2,ok,2,0,0.002,7,0.82,-0.43,10.19,44,0.165,8.01
7.3749,-0.02094,0.02269,1.24966,0.00000,0.00000,0.00000,70,1,40,2,70,28,42,2,ok,2,0,0.002,7,0.82,-0.43,10.19,44,0.177,8.01
7.3782,-0.02094,0.02269,1.24966,0.00000,0.00000,0.00000,69,-1,41,2,70,29,43,2,ok,2,0,0.002,7,0.82,-0.43,10.19,44,0.190,8.01
7.3909,0.04887,0.04538,1.31423,0.00000,0.00000,0.00000,68,-3,43,2,70,29,44,1,ok,2,0,0.002,7,-0.37,0.92,9.97,45,0.000,8.01
7.4109,0.04887,0.04538,1.31423,0.00000,0.00000,0.00000,66,-4,43,2,72,29,45,1,ok,2,0,0.002,7,-0.37,0.92,9.97,45,0.013,8.01
7.4156,0.04887,0.04538,1.31423,0.00000,0.00000,0.00000,65,-6,45,3,73,27,47,0,ok,2,0,0.002,7,-0.37,0.92,9.97,45,0.025,8.01
7.4282,0.04887,0.04538,1.31423,0.00000,0.00000,0.00000,64,-8,46,2,75,22,48,0,ok,2,0,0.002,7,-0.37,0.92,9.97,45,0.037,8.01
7.4509,0.04887,0.04538,1.31423,0.00000,0.00000,0.00000,62,-9,48,4,77,18,49,0,ok,2,0,0.002,7,-0.37,0.92,9.97,45,0.050,8.01
7.4540,0.04887,0.04538,1.31423,0.00000,0.00000,0.00000,59,-10,49,3,78,15,49,1,ok,2,0,0.002,7,-0.37,0.92,9.97,45,0.063,8.01
7.4665,0.04887,0.04538,1.31423,0.00000,0.00000,0.00000,57,-10,49,3,78,14,50,1,ok,2,0,0.002,7,-0.37,0.92,9.97,45,0.076,8.01
7.4869,0.04887,0.04538,1.31423,0.00000,0.00000,0.00000,55,-11,50,5,78,12,51,1,ok,2,0,0.002,7,-0.37,0.92,9.97,45,0.088,8.01
7.4916,0.04887,0.04538,1.31423,0.00000,0.00000,0.00000,52,-11,51,6,78,8,52,1,ok,2,0,0.002,7,-0.37,0.92,9.97,45,0.101,8.01
7.5043,0.04887,0.04538,1.31423,0.00000,0.00000,0.00000,49,-11,52,5,78,5,54,1,ok,2,0,0.002,7,-0.37,0.92,9.97,45,0.113,8.01
7.5269,0.04887,0.04538,1.31423,0.00000,0.00000,0.00000,47,-11,53,6,77,3,54,0,ok,2,0,0.002,7,-0.37,0.92,9.97,45,0.126,8.01
7.5301,0.04887,0.04538,1.31423,0.00000,0.00000,0.00000,45,-11,53,7,76,0,55,1,ok,2,0,0.002,7,-0.37,0.92,9.97,45,0.139,8.01
7.5426,0.04887,0.04538,1.31423,0.00000,0.00000,0.00000,43,-11,55,7,76,-3,56,0,ok,2,0,0.002,7,-0.37,0.92,9.97,45,0.152,8.01
7.5629,0.04887,0.04538,1.31423,0.00000,0.00000,0.00000,40,-10,55,7,75,-4,57,1,ok,2,0,0.002,7,-0.37,0.92,9.97,45,0.164,8.01
7.5676,0.04887,0.04538,1.31423,0.00000,0.00000,0.00000,37,-9,56,8,73,-7,57,0,ok,2,0,0.002,7,-0.37,0.92,9.97,45,0.177,8.01
7.5804,0.04887,0.04538,1.31423,0.00000,0.00000,0.00000,34,-8,57,9,70,-6,58,0,ok,2,0,0.002,7,-0.37,0.92,9.97,45,0.189,8.01
7.6029,0.12217,-0.04538,1.30725,0.00000,0.00000,0.00000,31,-6,58,9,69,-8,58,0,ok,2,0,0.002,7,-0.53,1.70,9.44,46,0.000,8.01
7.6060,0.12217,-0.04538,1.30725,0.00000,0.00000,0.00000,28,-4,58,9,68,-10,60,1,ok,2,0,0.002,7,-0.53,1.70,9.44,46,0.013,8.01
7.6187,0.12217,-0.04538,1.30725,0.00000,0.00000,0.00000,24,-2,60,11,66,-11,61,0,ok,2,0,0.002,8,-0.53,1.70,9.44,46,0.026,8.01
7.6389,0.12217,-0.04538,1.30725,0.00000,0.00000,0.00000,22,-1,61,11,63,-12,62,0,ok,2,0,0.002,8,-0.53,1.70,9.44,46,0.038,8.01
7.6436,0.12217,-0.04538,1.30725,0.00000,0.00000,0.00000,20,1,62,12,62,-13,64,-2,ok,2,0,0.002,8,-0.53,1.70,9.44,46,0.051,8.01
7.6562,0.12217,-0.04538,1.30725,0.00000,0.00000,0.00000,18,3,62,12,59,-13,64,-1,ok,2,0,0.002,8,-0.53,1.70,9.44,46,0.064,8.01
7.6789,0.12217,-0.04538,1.30725,0.00000,0.00000,0.00000,16,7,62,13,57,-14,65,-1,ok,2,0,0.002,8,-0.53,1.70,9.44,46,0.076,8.01
7.6822,0.12217,-0.04538,1.30725,0.00000,0.00000,0.00000,14,10,62,14,54,-13,66,-1,ok,2,0,0.002,8,-0.53,1.70,9.44,46,0.089,8.01
7.6946,0.12217,-0.04538,1.30725,0.00000,0.00000,0.00000,13,13,63,15,51,-12,66,-1,ok,2,0,0.002,8,-0.53,1.70,9.44,46,0.102,8.01
7.7149,0.12217,-0.04538,1.30725,0.00000,0.00000,0.00000,15,13,63,16,49,-12,67,0,ok,2,0,0.002,8,-0.53,1.70,9.44,46,0.114,8.01
7.7196,0.12217,-0.04538,1.30725,0.00000,0.00000,0.00000,15,13,63,17,46,-11,68,0,ok,2,0,0.002,8,-0.53,1.70,9.44,46,0.127,8.01
7.7322,0.12217,-0.04538,1.30725,0.00000,0.00000,0.00000,16,12,64,17,43,-11,69,1,ok,2,0,0.002,8,-0.53,1.70,9.44,46,0.140,8.01
7.7549,0.12217,-0.04538,1.30725,0.00000,0.00000,0.00000,17,12,64,18,40,-10,70,1,ok,2,0,0.002,8,-0.53,1.70,9.44,46,0.152,8.01
7.7580,0.12217,-0.04538,1.30725,0.00000,0.00000,0.00000,18,11,65,19,37,-9,70,2,ok,2,0,0.002,8,-0.53,1.70,9.44,46,0.165,8.01
7.7708,0.12217,-0.04538,1.30725,0.00000,0.00000,0.00000,20,10,65,20,34,-8,70,2,ok,2,0,0.002,8,-0.53,1.70,9.44,46,0.178,8.01
7.7909,0.12217,-0.04538,1.30725,0.00000,0.00000,0.00000,20,10,65,21,32,-6,71,3,ok,2,0,0.002,8,-0.53,1.70,9.44,46,0.191,8.01
7.7958,0.06283,0.09599,1.30551,0.00000,0.00000,0.00000,23,9,65,22,31,-5,71,5,ok,2,0,0.002,8,0.60,0.89,10.60,47,0.000,8.01
7.8082,0.06283,0.09599,1.30551,0.00000,0.00000,0.00000,24,8,65,23,28,-1,72,5,ok,2,0,0.002,8,0.60,0.89,10.60,47,0.013,8.01
7.8309,0.06283,0.09599,1.30551,0.00000,0.00000,0.00000,25,7,65,23,27,1,72,7,ok,2,0,0.002,8,0.60,0.89,10.60,47,0.025,8.01
7.8340,0.06283,0.09599,1.30551,0.00000,0.00000,0.00000,26,7,64,24,26,4,72,8,ok,2,0,0.002,8,0.60,0.89,10.60,47,0.038,8.01
7.8468,0.06283,0.09599,1.30551,0.00000,0.00000,0.00000,28,6,64,25,26,7,73,9,ok,0,0,0.002,8,0.60,0.89,10.60,47,0.051,8.01
7.8669,0.06283,0.09599,1.30551,0.00000,0.00000,0.00000,29,6,63,28,27,6,73,10,ok,2,0,0.002,8,0.60,0.89,10.60,47,0.063,8.01
7.8716,0.06283,0.09599,1.30551,0.00000,0.00000,0.00000,30,5,63,29,28,6,73,12,ok,0,0,0.002,8,0.60,0.89,10.60,47,0.076,8.01
7.8841,0.06283,0.09599,1.30551,0.00000,0.00000,0.00000,31,4,64,28,29,4,73,13,ok,0,0,0.002,8,0.60,0.89,10.60,47,0.088,8.01
7.9069,0.06283,0.09599,1.30551,0.00000,0.00000,0.00000,32,3,67,25,30,4,74,15,ok,2,0,0.002,8,0.60,0.89,10.60,47,0.101,8.01
7.9100,0.06283,0.09599,1.30551,0.00000,0.00000,0.00000,34,3,69,21,31,4,74,16,ok,2,0,0.002,8,0.60,0.89,10.60,47,0.114,8.01
7.9226,0.06283,0.09599,1.30551,0.00000,0.00000,0.00000,35,2,70,17,33,3,73,18,ok,2,0,0.002,8,0.60,0.89,10.60,47,0.127,8.01
7.9429,0.06283,0.09599,1.30551,0.00000,0.00000,0.00000,36,2,71,15,34,2,73,20,ok,2,0,0.002,8,0.60,0.89,10.60,47,0.139,8.01
7.9476,0.06283,0.09599,1.30551,0.00000,0.00000,0.00000,38,1,71,14,36,2,74,21,ok,2,0,0.002,8,0.60,0.89,10.60,47,0.152,8.01
7.9601,0.06283,0.09599,1.30551,0.00000,0.00000,0.00000,39,1,70,11,37,2,73,23,ok,2,0,0.002,8,0.60,0.89,10.60,47,0.164,8.01
7.9829,0.06283,0.09599,1.30551,0.00000,0.00000,0.00000,41,1,70,8,38,3,73,24,ok,2,0,0.002,8,0.60,0.89,10.60,47,0.177,8.01
7.9863,0.06283,0.09599,1.30551,0.00000,0.00000,0.00000,42,1,69,5,40,2,73,25,ok,2,0,0.002,8,0.60,0.89,10.60,47,0.190,8.01
7.9990,-0.01396,-0.02443,1.27060,0.00000,0.00000,0.00000,44,1,69,3,41,3,73,27,ok,0,0,0.002,8,-0.72,-1.08,11.45,48,0.000,8.01
8.0189,-0.01396,-0.02443,1.27060,0.00000,0.00000,0.00000,45,0,68,1,42,1,73,28,ok,0,0,0.002,8,-0.72,-1.08,11.45,48,0.013,8.01
8.0237,-0.01396,-0.02443,1.27060,0.00000,0.00000,0.00000,46,0,67,0,43,1,73,30,ok,0,0,0.002,8,-0.72,-1.08,11.45,48,0.025,8.01
8.0362,-0.01396,-0.02443,1.27060,0.00000,0.00000,0.00000,47,0,65,-1,44,0,74,30,ok,2,0,0.002,8,-0.72,-1.08,11.45,48,0.038,8.01
8.0589,-0.01396,-0.02443,1.27060,0.00000,0.00000,0.00000,48,0,64,-3,46,0,75,29,ok,2,0,0.002,8,-0.72,-1.08,11.45,48,0.050,8.01
8.0620,-0.01396,-0.02443,1.27060,0.00000,0.00000,0.00000,49,0,63,-6,47,0,77,27,ok,2,0,0.002,8,-0.72,-1.08,11.45,48,0.063,8.01
8.0748,-0.01396,-0.02443,1.27060,0.00000,0.00000,0.00000,51,1,61,-7,48,0,79,21,ok,2,0,0.002,8,-0.72,-1.08,11.45,48,0.076,8.01
8.0949,-0.01396,-0.02443,1.27060,0.00000,0.00000,0.00000,52,1,59,-8,48,0,80,17,ok,2,0,0.002,8,-0.72,-1.08,11.45,48,0.088,8.01
8.0996,-0.01396,-0.02443,1.27060,0.00000,0.00000,0.00000,52,1,56,-8,50,0,81,14,ok,2,0,0.002,8,-0.72,-1.08,11.45,48,0.101,8.01
8.1122,-0.01396,-0.02443,1.27060,0.00000,0.00000,0.00000,52,3,54,-9,51,0,81,14,ok,2,0,0.002,8,-0.72,-1.08,11.45,48,0.113,8.01
8.1349,-0.01396,-0.02443,1.27060,0.00000,0.00000,0.00000,53,5,51,-9,52,1,81,11,ok,2,0,0.002,8,-0.72,-1.08,11.45,48,0.126,8.01
8.1383,-0.01396,-0.02443,1.27060,0.00000,0.00000,0.00000,54,4,48,-9,53,0,81,7,ok,2,0,0.002,8,-0.72,-1.08,11.45,48,0.139,8.01
8.1506,-0.01396,-0.02443,1.27060,0.00000,0.00000,0.00000,55,5,46,-8,54,1,80,4,ok,2,0,0.002,8,-0.72,-1.08,11.45,48,0.152,8.01
8.1709,-0.01396,-0.02443,1.27060,0.00000,0.00000,0.00000,55,6,43,-9,55,1,80,2,ok,2,0,0.002,8,-0.72,-1.08,11.45,48,0.165,8.01
8.1756,-0.01396,-0.02443,1.27060,0.00000,0.00000,0.00000,57,6,41,-9,56,1,79,-1,ok,2,0,0.002,8,-0.72,-1.08,11.45,48,0.177,8.01
8.1885,-0.08727,-0.05934,1.32470,0.00000,0.00000,0.00000,57,6,38,-8,57,1,79,-3,ok,2,0,0.002,8,0.72,-0.54,11.27,49,0.000,8.01
8.2109,-0.08727,-0.05934,1.32470,0.00000,0.00000,0.00000,59,7,35,-7,57,1,77,-4,ok,2,0,0.002,8,0.72,-0.54,11.27,49,0.013,8.01
8.2142,-0.08727,-0.05934,1.32470,0.00000,0.00000,0.00000,59,8,32,-5,58,1,75,-6,ok,2,0,0.002,8,0.72,-0.54,11.27,49,0.026,8.01
8.2265,-0.08727,-0.05934,1.32470,0.00000,0.00000,0.00000,60,8,28,-4,59,1,72,-7,ok,2,0,0.002,8,0.72,-0.54,11.27,49,0.038,8.01
8.2470,-0.08727,-0.05934,1.32470,0.00000,0.00000,0.00000,61,9,26,-3,60,1,71,-8,ok,2,0,0.002,8,0.72,-0.54,11.27,49,0.051,8.01
8.2516,-0.08727,-0.05934,1.32470,0.00000,0.00000,0.00000,62,10,21,-1,61,1,70,-10,ok,2,0,0.002,8,0.72,-0.54,11.27,49,0.063,8.01
8.2642,-0.08727,-0.05934,1.32470,0.00000,0.00000,0.00000,63,10,20,1,63,-1,68,-12,ok,2,0,0.002,8,0.72,-0.54,11.27,49,0.076,8.01
8.2869,-0.08727,-0.05934,1.32470,0.00000,0.00000,0.00000,64,11,18,2,64,-1,66,-13,ok,2,0,0.002,8,0.72,-0.54,11.27,49,0.088,8.01
8.2902,-0.08727,-0.05934,1.32470,0.00000,0.00000,0.00000,64,12,16,4,64,0,64,-13,ok,2,0,0.002,8,0.72,-0.54,11.27,49,0.102,8.01
8.3025,-0.08727,-0.05934,1.32470,0.00000,0.00000,0.00000,64,12,14,7,65,0,61,-14,ok,2,0,0.002,8,0.72,-0.54,11.27,49,0.114,8.01
8.3229,-0.08727,-0.05934,1.32470,0.00000,0.00000,0.00000,64,14,12,11,66,1,59,-14,ok,2,0,0.002,8,0.72,-0.54,11.27,49,0.127,8.01
8.3278,-0.08727,-0.05934,1.32470,0.00000,0.00000,0.00000,65,14,11,13,66,1,56,-13,ok,2,0,0.002,8,0.72,-0.54,11.27,49,0.139,8.01
8.3402,-0.08727,-0.05934,1.32470,0.00000,0.00000,0.00000,65,15,12,13,67,1,53,-12,ok,2,0,0.002,8,0.72,-0.54,11.27,49,0.152,8.01
8.3629,-0.08727,-0.05934,1.32470,0.00000,0.00000,0.00000,66,16,12,13,68,1,51,-12,ok,2,0,0.002,8,0.72,-0.54,11.27,49,0.164,8.01
8.3661,-0.08727,-0.05934,1.32470,0.00000,0.00000,0.00000,67,17,14,12,68,1,47,-11,ok,2,0,0.002,8,0.72,-0.54,11.27,49,0.178,8.01
8.3787,-0.08727,-0.05934,1.32470,0.00000,0.00000,0.00000,67,18,15,11,68,2,45,-10,ok,2,0,0.002,8,0.72,-0.54,11.27,49,0.190,8.01
8.3989,-0.08727,-0.05934,1.32470,0.00000,0.00000,0.00000,67,18,15,11,68,3,42,-9,ok,2,0,0.002,8,0.72,-0.54,11.27,49,0.203,8.01
8.4039,0.01222,0.05061,1.32470,0.00000,0.00000,0.00000,68,19,17,9,69,3,40,-8,ok,2,0,0.002,8,1.06,0.58,10.89,50,0.000,8.01
8.4163,0.01222,0.05061,1.32470,0.00000,0.00000,0.00000,67,20,17,9,69,5,36,-7,ok,2,0,0.002,8,1.06,0.58,10.89,50,0.013,8.01
8.4389,0.01222,0.05061,1.32470,0.00000,0.00000,0.00000,68,21,20,8,70,6,35,-5,ok,2,0,0.002,8,1.06,0.58,10.89,50,0.025,8.01
8.4420,0.01222,0.05061,1.32470,0.00000,0.00000,0.00000,68,22,21,7,70,7,32,-4,ok,2,0,0.002,8,1.06,0.58,10.89,50,0.038,8.01
8.4545,0.01222,0.05061,1.32470,0.00000,0.00000,0.00000,68,23,22,7,70,8,30,-1,ok,2,0,0.002,8,1.06,0.58,10.89,50,0.051,8.01
8.4749,0.01222,0.05061,1.32470,0.00000,0.00000,0.00000,68,24,23,6,71,9,29,2,ok,2,0,0.002,8,1.06,0.58,10.89,50,0.063,8.01
8.4796,0.01222,0.05061,1.32470,0.00000,0.00000,0.00000,67,25,24,5,71,10,28,5,ok,2,0,0.002,8,1.06,0.58,10.89,50,0.076,8.01
8.4922,0.01222,0.05061,1.32470,0.00000,0.00000,0.00000,67,28,25,5,71,11,27,7,ok,2,0,0.002,8,1.06,0.58,10.89,50,0.088,8.01
8.5149,0.01222,0.05061,1.32470,0.00000,0.00000,0.00000,66,29,27,4,71,12,29,6,ok,2,0,0.002,8,1.06,0.58,10.89,50,0.101,8.01
8.5180,0.01222,0.05061,1.32470,0.00000,0.00000,0.00000,67,28,28,4,71,14,30,6,ok,2,0,0.002,8,1.06,0.58,10.89,50,0.114,8.01
8.5305,0.01222,0.05061,1.32470,0.00000,0.00000,0.00000,70,25,29,3,71,15,31,4,ok,2,0,0.002,8,1.06,0.58,10.89,50,0.127,8.01
8.5509,0.01222,0.05061,1.32470,0.00000,0.00000,0.00000,72,21,30,3,71,16,32,3,ok,2,0,0.002,8,1.06,0.58,10.89,50,0.139,8.01
8.5556,0.01222,0.05061,1.32470,0.00000,0.00000,0.00000,73,17,32,2,71,19,34,3,ok,2,0,0.002,8,1.06,0.58,10.89,50,0.152,8.01
8.5682,0.01222,0.05061,1.32470,0.00000,0.00000,0.00000,73,15,33,2,71,19,35,3,ok,2,0,0.002,8,1.06,0.58,10.89,50,0.164,8.01
8.5909,0.01222,0.05061,1.32470,0.00000,0.00000,0.00000,73,14,35,2,70,22,37,2,ok,2,0,0.002,8,1.06,0.58,10.89,50,0.177,8.01
8.5945,0.01222,0.05061,1.32470,0.00000,0.00000,0.00000,73,11,36,2,70,23,39,2,ok,2,0,0.002,8,1.06,0.58,10.89,50,0.190,8.01
8.6070,0.01222,0.05934,1.42593,0.00000,0.00000,0.00000,72,7,37,2,71,24,39,2,ok,2,0,0.002,8,-0.46,0.96,7.98,51,0.000,8.01
8.6269,0.01222,0.05934,1.42593,0.00000,0.00000,0.00000,72,5,38,2,71,26,41,2,ok,2,0,0.002,8,-0.46,0.96,7.98,51,0.013,8.01
8.6316,0.01222,0.05934,1.42593,0.00000,0.00000,0.00000,71,1,40,2,70,28,43,2,ok,2,0,0.002,9,-0.46,0.96,7.98,51,0.025,8.01
8.6444,0.01222,0.05934,1.42593,0.00000,0.00000,0.00000,69,-1,41,2,70,29,43,2,ok,2,0,0.002,9,-0.46,0.96,7.98,51,0.038,8.01
8.6669,0.01222,0.05934,1.42593,0.00000,0.00000,0.00000,68,-3,43,2,70,30,44,1,ok,2,0,0.003,9,-0.46,0.96,7.98,51,0.050,8.01
8.6700,0.01222,0.05934,1.42593,0.00000,0.00000,0.00000,66,-4,43,2,72,29,46,1,ok,2,0,0.003,9,-0.46,0.96,7.98,51,0.063,8.01
8.6827,0.01222,0.05934,1.42593,0.00000,0.00000,0.00000,65,-6,45,3,73,27,47,1,ok,2,0,0.003,9,-0.46,0.96,7.98,51,0.076,8.01
8.7029,0.01222,0.05934,1.42593,0.00000,0.00000,0.00000,64,-8,46,3,75,22,48,1,ok,2,0,0.003,9,-0.46,0.96,7.98,51,0.088,8.01
8.7076,0.01222,0.05934,1.42593,0.00000,0.00000,0.00000,62,-9,47,4,77,18,49,1,ok,2,0,0.003,9,-0.46,0.96,7.98,51,0.101,8.01
8.7203,0.01222,0.05934,1.42593,0.00000,0.00000,0.00000,60,-10,49,3,78,15,50,1,ok,2,0,0.003,9,-0.46,0.96,7.98,51,0.113,8.01
8.7429,0.01222,0.05934,1.42593,0.00000,0.00000,0.00000,57,-11,49,3,78,14,50,1,ok,2,0,0.003,9,-0.46,0.96,7.98,51,0.126,8.01
8.7460,0.01222,0.05934,1.42593,0.00000,0.00000,0.00000,55,-12,49,5,78,12,52,1,ok,2,0,0.003,9,-0.46,0.96,7.98,51,0.139,8.01
8.7587,0.01222,0.05934,1.42593,0.00000,0.00000,0.00000,52,-11,51,6,78,8,52,1,ok,2,0,0.003,9,-0.46,0.96,7.98,51,0.152,8.01
8.7789,0.01222,0.05934,1.42593,0.00000,0.00000,0.00000,49,-11,52,6,78,5,54,1,ok,2,0,0.003,9,-0.46,0.96,7.98,51,0.165,8.01
8.7836,0.01222,0.05934,1.42593,0.00000,0.00000,0.00000,47,-11,53,6,77,3,54,0,ok,2,0,0.003,9,-0.46,0.96,7.98,51,0.177,8.01
8.7965,0.07330,-0.01396,1.41372,0.00000,0.00000,0.00000,45,-11,53,7,76,0,55,1,ok,2,0,0.003,9,-0.38,0.70,10.79,52,0.000,8.01
8.8189,0.07330,-0.01396,1.41372,0.00000,0.00000,0.00000,43,-11,55,7,76,-2,56,0,ok,2,0,0.003,9,-0.38,0.70,10.79,52,0.013,8.01
8.8220,0.07330,-0.01396,1.41372,0.00000,0.00000,0.00000,40,-10,55,7,75,-4,57,1,ok,2,0,0.003,9,-0.38,0.70,10.79,52,0.026,8.01
8.8346,0.07330,-0.01396,1.41372,0.00000,0.00000,0.00000,37,-9,57,8,73,-7,58,-1,ok,2,0,0.003,9,-0.38,0.70,10.79,52,0.039,8.01
8.8549,0.07330,-0.01396,1.41372,0.00000,0.00000,0.00000,34,-8,57,9,70,-6,58,0,ok,2,0,0.003,9,-0.38,0.70,10.79,52,0.051,8.01
8.8597,0.07330,-0.01396,1.41372,0.00000,0.00000,0.00000,31,-6,58,9,69,-9,58,0,ok,2,0,0.003,9,-0.38,0.70,10.79,52,0.064,8.01
8.8722,0.07330,-0.01396,1.41372,0.00000,0.00000,0.00000,28,-4,58,9,68,-10,60,1,ok,2,0,0.003,9,-0.38,0.70,10.79,52,0.076,8.01
8.8949,0.07330,-0.01396,1.41372,0.00000,0.00000,0.00000,24,-2,60,11,66,-12,60,0,ok,2,0,0.003,9,-0.38,0.70,10.79,52,0.089,8.01
8.8982,0.07330,-0.01396,1.41372,0.00000,0.00000,0.00000,22,-1,61,11,63,-12,61,0,ok,2,0,0.003,9,-0.38,0.70,10.79,52,0.102,8.01
8.9106,0.07330,-0.01396,1.41372,0.00000,0.00000,0.00000,21,1,61,12,62,-13,64,-2,ok,2,0,0.003,9,-0.38,0.70,10.79,52,0.114,8.01
8.9309,0.07330,-0.01396,1.41372,0.00000,0.00000,0.00000,19,3,62,12,59,-14,64,-1,ok,2,0,0.003,9,-0.38,0.70,10.79,52,0.127,8.01
8.9356,0.07330,-0.01396,1.41372,0.00000,0.00000,0.00000,16,7,62,13,57,-14,65,-1,ok,2,0,0.003,9,-0.38,0.70,10.79,52,0.139,8.01
8.9482,0.07330,-0.01396,1.41372,0.00000,0.00000,0.00000,15,10,62,15,54,-13,66,0,ok,2,0,0.003,9,-0.38,0.70,10.79,52,0.152,8.01
8.9709,0.07330,-0.01396,1.41372,0.00000,0.00000,0.00000,13,12,63,15,51,-12,66,-1,ok,2,0,0.003,9,-0.38,0.70,10.79,52,0.164,8.01
8.9742,0.07330,-0.01396,1.41372,0.00000,0.00000,0.00000,15,13,63,16,49,-12,67,0,ok,2,0,0.003,9,-0.38,0.70,10.79,52,0.178,8.01
8.9865,0.07330,-0.01396,1.41372,0.00000,0.00000,0.00000,14,13,63,17,46,-11,68,0,ok,2,0,0.003,9,-0.38,0.70,10.79,52,0.190,8.01
9.0069,0.01745,-0.01396,1.42942,0.00000,0.00000,0.00000,16,12,64,17,44,-11,69,1,ok,2,0,0.003,9,-1.36,0.16,9.54,53,0.000,8.01
9.0116,0.01745,-0.01396,1.42942,0.00000,0.00000,0.00000,17,12,64,19,40,-10,69,1,ok,2,0,0.003,9,-1.36,0.16,9.54,53,0.012,8.01
9.0242,0.01745,-0.01396,1.42942,0.00000,0.00000,0.00000,18,11,65,19,38,-9,70,2,ok,2,0,0.003,9,-1.36,0.16,9.54,53,0.025,8.01
9.0469,0.01745,-0.01396,1.42942,0.00000,0.00000,0.00000,20,10,65,20,35,-8,70,3,ok,2,0,0.003,9,-1.36,0.16,9.54,53,0.038,8.01
9.0500,0.01745,-0.01396,1.42942,0.00000,0.00000,0.00000,20,10,65,21,33,-6,71,4,ok,2,0,0.003,9,-1.36,0.16,9.54,53,0.051,8.01
9.0627,0.01745,-0.01396,1.42942,0.00000,0.00000,0.00000,23,8,65,22,31,-5,71,5,ok,2,0,0.003,9,-1.36,0.16,9.54,53,0.064,8.01
9.0829,0.01745,-0.01396,1.42942,0.00000,0.00000,0.00000,24,8,65,23,28,-1,72,5,ok,2,0,0.003,9,-1.36,0.16,9.54,53,0.076,8.01
9.0876,0.01745,-0.01396,1.42942,0.00000,0.00000,0.00000,25,7,65,23,27,1,72,7,ok,2,0,0.003,9,-1.36,0.16,9.54,53,0.088,8.01
9.1001,0.01745,-0.01396,1.42942,0.00000,0.00000,0.00000,26,6,65,25,26,4,72,8,ok,2,0,0.003,9,-1.36,0.16,9.54,53,0.101,8.01
9.1229,0.01745,-0.01396,1.42942,0.00000,0.00000,0.00000,27,6,65,25,25,7,73,9,ok,2,0,0.003,9,-1.36,0.16,9.54,53,0.114,8.01
9.1260,0.01745,-0.01396,1.42942,0.00000,0.00000,0.00000,29,5,64,28,27,6,73,10,ok,2,0,0.003,9,-1.36,0.16,9.54,53,0.127,8.01
9.1385,0.01745,-0.01396,1.42942,0.00000,0.00000,0.00000,30,4,63,29,28,6,73,12,ok,2,0,0.003,9,-1.36,0.16,9.54,53,0.139,8.01
9.1589,0.01745,-0.01396,1.42942,0.00000,0.00000,0.00000,31,4,65,28,29,4,73,13,ok,2,0,0.003,9,-1.36,0.16,9.54,53,0.152,8.01
9.1636,0.01745,-0.01396,1.42942,0.00000,0.00000,0.00000,32,3,67,25,30,3,73,15,ok,2,0,0.003,9,-1.36,0.16,9.54,53,0.164,8.01
9.1763,0.01745,-0.01396,1.42942,0.00000,0.00000,0.00000,34,3,70,21,31,3,74,16,ok,2,0,0.003,9,-1.36,0.16,9.54,53,0.177,8.01
9.1989,0.01745,-0.01396,1.42942,0.00000,0.00000,0.00000,35,2,71,18,32,2,73,18,ok,2,0,0.003,9,-1.36,0.16,9.54,53,0.189,8.01
9.2022,0.04887,0.02793,1.40674,0.00000,0.00000,0.00000,36,2,71,15,34,1,73,20,ok,2,0,0.003,9,0.62,1.64,9.94,54,0.000,8.01
9.2145,0.04887,0.02793,1.40674,0.00000,0.00000,0.00000,38,1,71,15,36,2,74,20,ok,2,0,0.003,9,0.62,1.64,9.94,54,0.013,8.01
9.2349,0.04887,0.02793,1.40674,0.00000,0.00000,0.00000,39,1,71,11,36,2,73,23,ok,2,0,0.003,9,0.62,1.64,9.94,54,0.025,8.01
9.2396,0.04887,0.02793,1.40674,0.00000,0.00000,0.00000,41,1,70,8,38,2,73,24,ok,2,0,0.003,9,0.62,1.64,9.94,54,0.038,8.01
9.2523,0.04887,0.02793,1.40674,0.00000,0.00000,0.00000,42,1,70,6,39,2,73,25,ok,2,0,0.003,9,0.62,1.64,9.94,54,0.050,8.01
9.2749,0.04887,0.02793,1.40674,0.00000,0.00000,0.00000,44,1,69,3,40,2,73,26,ok,2,0,0.003,9,0.62,1.64,9.94,54,0.063,8.01
9.2781,0.04887,0.02793,1.40674,0.00000,0.00000,0.00000,45,0,68,1,42,1,73,28,ok,2,0,0.003,9,0.62,1.64,9.94,54,0.076,8.01
9.2905,0.04887,0.02793,1.40674,0.00000,0.00000,0.00000,46,0,67,0,43,1,72,29,ok,2,0,0.003,9,0.62,1.64,9.94,54,0.089,8.01
9.3109,0.04887,0.02793,1.40674,0.00000,0.00000,0.00000,47,0,65,-1,44,0,73,29,ok,2,0,0.003,9,0.62,1.64,9.94,54,0.101,8.01
9.3156,0.04887,0.02793,1.40674,0.00000,0.00000,0.00000,48,1,64,-4,46,0,75,29,ok,2,0,0.003,9,0.62,1.64,9.94,54,0.114,8.01
9.3284,0.04887,0.02793,1.40674,0.00000,0.00000,0.00000,49,1,63,-6,47,0,76,26,ok,2,0,0.003,9,0.62,1.64,9.94,54,0.126,8.01
9.3509,0.04887,0.02793,1.40674,0.00000,0.00000,0.00000,51,2,61,-7,48,1,78,21,ok,2,0,0.003,9,0.62,1.64,9.94,54,0.139,8.01
9.3540,0.04887,0.02793,1.40674,0.00000,0.00000,0.00000,52,1,58,-8,48,1,80,17,ok,2,0,0.003,9,0.62,1.64,9.94,54,0.152,8.01
9.3665,0.04887,0.02793,1.40674,0.00000,0.00000,0.00000,52,1,56,-8,50,1,81,14,ok,2,0,0.003,9,0.62,1.64,9.94,54,0.165,8.01
9.3869,0.04887,0.02793,1.40674,0.00000,0.00000,0.00000,52,4,54,-9,51,1,81,14,ok,2,0,0.003,9,0.62,1.64,9.94,54,0.177,8.01
9.3918,0.04887,0.02793,1.40674,0.00000,0.00000,0.00000,53,5,51,-9,52,1,81,11,ok,2,0,0.003,9,0.62,1.64,9.94,54,0.190,8.01
9.4045,-0.12217,0.03142,1.45735,0.00000,0.00000,0.00000,54,4,48,-9,53,1,81,7,ok,2,0,0.003,9,0.17,-1.60,10.23,55,0.000,8.01
9.4269,-0.12217,0.03142,1.45735,0.00000,0.00000,0.00000,55,5,45,-8,54,1,81,4,ok,2,0,0.003,9,0.17,-1.60,10.23,55,0.013,8.01
9.4301,-0.12217,0.03142,1.45735,0.00000,0.00000,0.00000,55,6,43,-8,55,1,80,3,ok,2,0,0.003,9,0.17,-1.60,10.23,55,0.026,8.01
9.4426,-0.12217,0.03142,1.45735,0.00000,0.00000,0.00000,57,6,40,-9,56,1,79,-1,ok,2,0,0.003,9,0.17,-1.60,10.23,55,0.039,8.01
9.4629,-0.12217,0.03142,1.45735,0.00000,0.00000,0.00000,58,6,38,-8,57,1,79,-2,ok,2,0,0.003,9,0.17,-1.60,10.23,55,0.051,8.01
9.4676,-0.12217,0.03142,1.45735,0.00000,0.00000,0.00000,59,7,35,-7,57,1,77,-4,ok,2,0,0.003,9,0.17,-1.60,10.23,55,0.064,8.01
9.4801,-0.12217,0.03142,1.45735,0.00000,0.00000,0.00000,59,8,32,-5,58,2,76,-6,ok,2,0,0.003,9,0.17,-1.60,10.23,55,0.076,8.01
9.5029,-0.12217,0.03142,1.45735,0.00000,0.00000,0.00000,60,8,28,-4,59,2,73,-6,ok,2,0,0.003,9,0.17,-1.60,10.23,55,0.089,8.01
9.5060,-0.12217,0.03142,1.45735,0.00000,0.00000,0.00000,61,8,26,-3,60,2,72,-8,ok,2,0,0.003,9,0.17,-1.60,10.23,55,0.102,8.01
9.5186,-0.12217,0.03142,1.45735,0.00000,0.00000,0.00000,62,10,21,-1,61,1,70,-10,ok,2,0,0.003,9,0.17,-1.60,10.23,55,0.115,8.01
9.5389,-0.12217,0.03142,1.45735,0.00000,0.00000,0.00000,62,10,20,1,64,0,68,-11,ok,2,0,0.003,9,0.17,-1.60,10.23,55,0.127,8.01
9.5438,-0.12217,0.03142,1.45735,0.00000,0.00000,0.00000,63,11,18,2,64,0,65,-13,ok,2,0,0.003,9,0.17,-1.60,10.23,55,0.140,8.01
9.5562,-0.12217,0.03142,1.45735,0.00000,0.00000,0.00000,64,12,16,4,65,1,63,-13,ok,2,0,0.003,9,0.17,-1.60,10.23,55,0.152,8.01
9.5789,-0.12217,0.03142,1.45735,0.00000,0.00000,0.00000,64,12,14,7,65,1,61,-13,ok,2,0,0.003,9,0.17,-1.60,10.23,55,0.165,8.01
9.5820,-0.12217,0.03142,1.45735,0.00000,0.00000,0.00000,64,13,12,10,66,1,59,-14,ok,2,0,0.003,9,0.17,-1.60,10.23,55,0.178,8.01
9.5950,-0.12217,0.03142,1.45735,0.00000,0.00000,0.00000,65,14,10,13,67,1,56,-12,ok,2,0,0.003,9,0.17,-1.60,10.23,55,0.190,8.01
9.6149,-0.06109,-0.02094,1.51146,0.00000,0.00000,0.00000,65,15,12,13,67,1,53,-12,ok,2,0,0.003,9,0.25,-0.22,10.22,56,0.000,8.01
9.6196,-0.06109,-0.02094,1.51146,0.00000,0.00000,0.00000,66,16,12,13,68,2,51,-11,ok,2,0,0.003,9,0.25,-0.22,10.22,56,0.012,8.01
9.6322,-0.06109,-0.02094,1.51146,0.00000,0.00000,0.00000,67,16,14,12,68,2,48,-11,ok,2,0,0.003,9,0.25,-0.22,10.22,56,0.025,8.01
9.6549,-0.06109,-0.02094,1.51146,0.00000,0.00000,0.00000,67,17,15,11,69,3,46,-10,ok,2,0,0.003,9,0.25,-0.22,10.22,56,0.037,8.01
9.6581,-0.06109,-0.02094,1.51146,0.00000,0.00000,0.00000,67,18,15,11,69,3,42,-9,ok,2,0,0.003,10,0.25,-0.22,10.22,56,0.051,8.01
9.6705,-0.06109,-0.02094,1.51146,0.00000,0.00000,0.00000,68,19,17,9,69,4,40,-8,ok,2,0,0.003,10,0.25,-0.22,10.22,56,0.064,8.01
9.6909,-0.06109,-0.02094,1.51146,0.00000,0.00000,0.00000,68,20,17,9,69,5,36,-6,ok,2,0,0.003,10,0.25,-0.22,10.22,56,0.076,8.01
9.6956,-0.06109,-0.02094,1.51146,0.00000,0.00000,0.00000,69,21,19,8,71,5,35,-5,ok,2,0,0.003,10,0.25,-0.22,10.22,56,0.088,8.01
9.7084,-0.06109,-0.02094,1.51146,0.00000,0.00000,0.00000,69,22,21,7,70,7,32,-3,ok,2,0,0.003,10,0.25,-0.22,10.22,56,0.101,8.01
9.7309,-0.06109,-0.02094,1.51146,0.00000,0.00000,0.00000,68,23,22,7,70,8,30,0,ok,2,0,0.003,10,0.25,-0.22,10.22,56,0.113,8.01
9.7340,-0.06109,-0.02094,1.51146,0.00000,0.00000,0.00000,68,24,23,6,71,8,29,2,ok,2,0,0.003,10,0.25,-0.22,10.22,56,0.127,8.01
9.7465,-0.06109,-0.02094,1.51146,0.00000,0.00000,0.00000,68,25,24,5,71,9,28,6,ok,2,0,0.003,10,0.25,-0.22,10.22,56,0.140,8.01
9.7669,-0.06109,-0.02094,1.51146,0.00000,0.00000,0.00000,67,28,26,5,71,11,27,8,ok,2,0,0.003,10,0.25,-0.22,10.22,56,0.152,8.01
9.7716,-0.06109,-0.02094,1.51146,0.00000,0.00000,0.00000,66,29,27,4,71,12,29,7,ok,2,0,0.003,10,0.25,-0.22,10.22,56,0.164,8.01
9.7842,-0.06109,-0.02094,1.51146,0.00000,0.00000,0.00000,68,28,28,4,71,13,29,6,ok,2,0,0.003,10,0.25,-0.22,10.22,56,0.177,8.01
9.8069,-0.06109,-0.02094,1.51146,0.00000,0.00000,0.00000,70,25,29,3,71,15,31,4,ok,2,0,0.003,10,0.25,-0.22,10.22,56,0.189,8.01
9.8103,0.01396,0.06632,1.57952,0.00000,0.00000,0.00000,72,21,31,3,71,16,32,3,ok,2,0,0.003,10,1.33,-0.52,10.25,57,0.000,8.01
9.8226,0.01396,0.06632,1.57952,0.00000,0.00000,0.00000,73,17,32,2,71,19,33,3,ok,2,0,0.003,10,1.33,-0.52,10.25,57,0.013,8.01
9.8429,0.01396,0.06632,1.57952,0.00000,0.00000,0.00000,73,15,33,2,72,19,35,2,ok,2,0,0.003,10,1.33,-0.52,10.25,57,0.025,8.01
9.8476,0.01396,0.06632,1.57952,0.00000,0.00000,0.00000,73,14,35,2,70,22,36,1,ok,2,0,0.003,10,1.33,-0.52,10.25,57,0.038,8.01
9.8602,0.01396,0.06632,1.57952,0.00000,0.00000,0.00000,73,11,36,2,70,23,38,1,ok,2,0,0.003,10,1.33,-0.52,10.25,57,0.050,8.01
9.8829,0.01396,0.06632,1.57952,0.00000,0.00000,0.00000,72,8,37,2,71,24,39,2,ok,2,0,0.003,10,1.33,-0.52,10.25,57,0.063,8.01
9.8860,0.01396,0.06632,1.57952,0.00000,0.00000,0.00000,72,5,38,2,71,26,41,2,ok,2,0,0.003,10,1.33,-0.52,10.25,57,0.076,8.01
9.8985,0.01396,0.06632,1.57952,0.00000,0.00000,0.00000,71,2,40,2,70,28,42,2,ok,2,0,0.003,10,1.33,-0.52,10.25,57,0.089,8.01
9.9189,0.01396,0.06632,1.57952,0.00000,0.00000,0.00000,70,0,41,2,70,29,43,2,ok,2,0,0.003,10,1.33,-0.52,10.25,57,0.101,8.01
9.9236,0.01396,0.06632,1.57952,0.00000,0.00000,0.00000,68,-3,43,2,70,30,44,1,ok,2,0,0.003,10,1.33,-0.52,10.25,57,0.114,8.01
9.9362,0.01396,0.06632,1.57952,0.00000,0.00000,0.00000,66,-4,43,2,72,29,45,1,ok,2,0,0.003,10,1.33,-0.52,10.25,57,0.126,8.01
9.9589,0.01396,0.06632,1.57952,0.00000,0.00000,0.00000,65,-6,45,2,73,27,47,1,ok,2,0,0.003,10,1.33,-0.52,10.25,57,0.139,8.01
9.9620,0.01396,0.06632,1.57952,0.00000,0.00000,0.00000,64,-8,46,3,75,22,48,1,ok,2,0,0.003,10,1.33,-0.52,10.25,57,0.152,8.01
9.9746,0.01396,0.06632,1.57952,0.00000,0.00000,0.00000,62,-9,47,4,77,18,49,1,ok,2,0,0.003,10,1.33,-0.52,10.25,57,0.165,8.01
9.9949,0.01396,0.06632,1.57952,0.00000,0.00000,0.00000,60,-10,49,3,78,15,50,1,ok,2,0,0.003,10,1.33,-0.52,10.25,57,0.177,8.01
9.9996,0.01396,0.06632,1.57952,0.00000,0.00000,0.00000,57,-10,49,3,78,14,50,1,ok,2,0,0.003,10,1.33,-0.52,10.25,57,0.190,8.01
10.0125,0.10647,0.00873,1.57254,0.00000,0.00000,0.00000,55,-11,49,5,78,12,52,1,ok,2,0,0.003,10,-1.24,0.96,9.45,58,0.000,8.01
10.0389,0.10647,0.00873,1.57254,0.00000,0.00000,0.00000,52,-11,51,6,78,9,53,1,ok,2,0,0.003,10,-1.24,0.96,9.45,58,0.013,8.01
10.0420,0.10647,0.00873,1.57254,0.00000,0.00000,0.00000,50,-11,52,6,78,6,54,0,ok,2,0,0.003,10,-1.24,0.96,9.45,58,0.030,8.01
10.0548,0.10647,0.00873,1.57254,0.00000,0.00000,0.00000,48,-11,53,6,77,3,55,0,ok,2,0,0.003,10,-1.24,0.96,9.45,58,0.043,8.01
10.0749,0.10647,0.00873,1.57254,0.00000,0.00000,0.00000,45,-11,53,7,76,0,55,1,ok,2,0,0.003,10,-1.24,0.96,9.45,58,0.055,8.01
10.0798,0.10647,0.00873,1.57254,0.00000,0.00000,0.00000,43,-11,55,7,76,-2,56,0,ok,2,0,0.003,10,-1.24,0.96,9.45,58,0.068,8.01
10.0926,0.10647,0.00873,1.57254,0.00000,0.00000,0.00000,40,-10,55,7,75,-4,57,1,ok,2,0,0.003,10,-1.24,0.96,9.45,58,0.080,8.14
10.1149,0.10647,0.00873,1.57254,0.00000,0.00000,0.00000,37,-9,56,8,73,-7,57,-1,ok,2,0,0.003,10,-1.24,0.96,9.45,58,0.093,8.14
10.1180,0.10647,0.00873,1.57254,0.00000,0.00000,0.00000,35,-7,57,9,70,-6,58,0,ok,2,0,0.003,10,-1.24,0.96,9.45,58,0.106,8.14
10.1305,0.10647,0.00873,1.57254,0.00000,0.00000,0.00000,31,-6,57,9,69,-8,59,0,ok,2,0,0.003,10,-1.24,0.96,9.45,58,0.118,8.14
10.1509,0.10647,0.00873,1.57254,0.00000,0.00000,0.00000,29,-4,58,9,68,-10,60,1,ok,2,0,0.003,10,-1.24,0.96,9.45,58,0.131,8.14
10.1556,0.10647,0.00873,1.57254,0.00000,0.00000,0.00000,24,-1,59,11,65,-11,61,1,ok,2,0,0.003,10,-1.24,0.96,9.45,58,0.143,8.14
10.1682,0.10647,0.00873,1.57254,0.00000,0.00000,0.00000,23,-1,60,11,63,-12,62,0,ok,2,0,0.003,10,-1.24,0.96,9.45,58,0.156,8.14
10.1909,0.10647,0.00873,1.57254,0.00000,0.00000,0.00000,21,1,61,12,61,-12,64,-2,ok,2,0,0.003,10,-1.24,0.96,9.45,58,0.168,8.14
10.1940,0.10647,0.00873,1.57254,0.00000,0.00000,0.00000,19,3,61,12,59,-13,64,-1,ok,2,0,0.003,10,-1.24,0.96,9.45,58,0.182,8.14
10.2065,0.10647,0.00873,1.57254,0.00000,0.00000,0.00000,17,7,62,13,57,-14,65,-1,ok,2,0,0.003,10,-1.24,0.96,9.45,58,0.194,8.14
10.2269,0.02967,-0.02269,1.60919,0.00000,0.00000,0.00000,15,10,62,14,54,-13,66,0,ok,2,0,0.003,10,-0.64,1.18,11.15,59,0.000,8.14
10.2316,0.02967,-0.02269,1.60919,0.00000,0.00000,0.00000,13,13,63,15,51,-12,66,0,ok,2,0,0.003,10,-0.64,1.18,11.15,59,0.012,8.14
10.2441,0.02967,-0.02269,1.60919,0.00000,0.00000,0.00000,15,13,63,16,49,-12,67,1,ok,2,0,0.003,10,-0.64,1.18,11.15,59,0.025,8.14
10.2669,0.02967,-0.02269,1.60919,0.00000,0.00000,0.00000,15,13,63,17,46,-11,68,0,ok,2,0,0.003,10,-0.64,1.18,11.15,59,0.038,8.14
10.2702,0.02967,-0.02269,1.60919,0.00000,0.00000,0.00000,16,12,64,17,44,-11,69,1,ok,2,0,0.003,10,-0.64,1.18,11.15,59,0.051,8.14
10.2826,0.02967,-0.02269,1.60919,0.00000,0.00000,0.00000,18,12,64,19,40,-9,70,1,ok,2,0,0.003,10,-0.64,1.18,11.15,59,0.064,8.14
10.3029,0.02967,-0.02269,1.60919,0.00000,0.00000,0.00000,18,11,65,19,38,-9,70,2,ok,2,0,0.003,10,-0.64,1.18,11.15,59,0.076,8.14
10.3077,0.02967,-0.02269,1.60919,0.00000,0.00000,0.00000,20,10,65,20,34,-7,70,3,ok,2,0,0.003,10,-0.64,1.18,11.15,59,0.089,8.14
10.3202,0.02967,-0.02269,1.60919,0.00000,0.00000,0.00000,21,10,65,21,33,-6,71,4,ok,2,0,0.003,10,-0.64,1.18,11.15,59,0.101,8.14
10.3429,0.02967,-0.02269,1.60919,0.00000,0.00000,0.00000,23,8,65,22,31,-5,71,5,ok,2,0,0.003,10,-0.64,1.18,11.15,59,0.114,8.14
10.3460,0.02967,-0.02269,1.60919,0.00000,0.00000,0.00000,24,8,65,23,28,-1,72,5,ok,2,0,0.003,10,-0.64,1.18,11.15,59,0.127,8.14
10.3585,0.02967,-0.02269,1.60919,0.00000,0.00000,0.00000,25,7,65,23,27,1,72,7,ok,2,0,0.003,10,-0.64,1.18,11.15,59,0.140,8.14
10.3789,0.02967,-0.02269,1.60919,0.00000,0.00000,0.00000,26,6,65,25,26,4,72,8,ok,2,0,0.003,10,-0.64,1.18,11.15,59,0.152,8.14
10.3836,0.02967,-0.02269,1.60919,0.00000,0.00000,0.00000,28,6,64,25,25,7,73,9,ok,2,0,0.003,10,-0.64,1.18,11.15,59,0.164,8.14
10.3962,0.02967,-0.02269,1.60919,0.00000,0.00000,0.00000,29,6,64,28,27,6,73,10,ok,2,0,0.003,10,-0.64,1.18,11.15,59,0.177,8.14
10.4189,0.02967,-0.02269,1.60919,0.00000,0.00000,0.00000,30,5,63,29,28,6,73,12,ok,2,0,0.003,10,-0.64,1.18,11.15,59,0.190,8.14
10.4223,-0.00349,0.02618,1.58825,0.00000,0.00000,0.00000,31,4,65,28,29,4,73,13,ok,2,0,0.003,10,1.16,0.23,9.96,60,0.000,8.14
10.4346,-0.00349,0.02618,1.58825,0.00000,0.00000,0.00000,33,3,67,25,30,3,73,15,ok,2,0,0.003,10,1.16,0.23,9.96,60,0.013,8.14
10.4549,-0.00349,0.02618,1.58825,0.00000,0.00000,0.00000,34,3,69,21,31,3,74,16,ok,2,0,0.003,10,1.16,0.23,9.96,60,0.025,8.14
10.4596,-0.00349,0.02618,1.58825,0.00000,0.00000,0.00000,35,2,70,18,32,3,73,18,ok,2,0,0.003,10,1.16,0.23,9.96,60,0.038,8.14
10.4722,-0.00349,0.02618,1.58825,0.00000,0.00000,0.00000,37,2,71,15,34,2,73,20,ok,2,0,0.003,10,1.16,0.23,9.96,60,0.050,8.14
10.4949,-0.00349,0.02618,1.58825,0.00000,0.00000,0.00000,38,1,71,15,36,2,74,21,ok,2,0,0.003,10,1.16,0.23,9.96,60,0.063,8.14
10.4981,-0.00349,0.02618,1.58825,0.00000,0.00000,0.00000,40,1,71,11,36,2,73,23,ok,2,0,0.003,10,1.16,0.23,9.96,60,0.076,8.14
10.5108,-0.00349,0.02618,1.58825,0.00000,0.00000,0.00000,41,1,70,9,38,2,73,24,ok,2,0,0.003,10,1.16,0.23,9.96,60,0.089,8.14
10.5309,-0.00349,0.02618,1.58825,0.00000,0.00000,0.00000,42,1,70,6,40,2,73,25,ok,2,0,0.003,10,1.16,0.23,9.96,60,0.101,8.14
10.5356,-0.00349,0.02618,1.58825,0.00000,0.00000,0.00000,44,1,69,3,40,2,73,27,ok,2,0,0.003,10,1.16,0.23,9.96,60,0.114,8.14
10.5483,-0.00349,0.02618,1.58825,0.00000,0.00000,0.00000,45,0,68,1,42,1,73,28,ok,2,0,0.003,10,1.16,0.23,9.96,60,0.126,8.14
10.5709,-0.00349,0.02618,1.58825,0.00000,0.00000,0.00000,47,0,67,0,43,1,72,29,ok,2,0,0.003,10,1.16,0.23,9.96,60,0.139,8.14
10.5740,-0.00349,0.02618,1.58825,0.00000,0.00000,0.00000,47,0,65,-1,44,0,73,29,ok,2,0,0.003,10,1.16,0.23,9.96,60,0.152,8.14
10.5866,-0.00349,0.02618,1.58825,0.00000,0.00000,0.00000,48,1,64,-4,46,0,74,29,ok,2,0,0.003,10,1.16,0.23,9.96,60,0.165,8.14
10.6069,-0.00349,0.02618,1.58825,0.00000,0.00000,0.00000,50,1,63,-6,47,0,76,27,ok,2,0,0.003,10,1.16,0.23,9.96,60,0.177,8.14
10.6116,-0.00349,0.02618,1.58825,0.00000,0.00000,0.00000,51,2,61,-7,48,1,78,21,ok,2,0,0.003,10,1.16,0.23,9.96,60,0.190,8.14
10.6244,-0.07505,0.00873,1.64410,0.00000,0.00000,0.00000,52,1,58,-8,48,1,79,17,ok,2,0,0.003,10,-0.51,-0.77,10.18,61,0.000,8.14
10.6469,-0.07505,0.00873,1.64410,0.00000,0.00000,0.00000,52,2,56,-8,50,0,81,14,ok,2,0,0.003,10,-0.51,-0.77,10.18,61,0.013,8.14
10.6502,-0.07505,0.00873,1.64410,0.00000,0.00000,0.00000,53,4,53,-9,51,0,81,14,ok,2,0,0.003,10,-0.51,-0.77,10.18,61,0.026,8.14
10.6627,-0.07505,0.00873,1.64410,0.00000,0.00000,0.00000,54,4,51,-9,52,1,81,11,ok,2,0,0.003,10,-0.51,-0.77,10.18,61,0.039,8.14
10.6829,-0.07505,0.00873,1.64410,0.00000,0.00000,0.00000,54,4,48,-9,53,1,81,8,ok,2,0,0.003,11,-0.51,-0.77,10.18,61,0.051,8.14
10.6876,-0.07505,0.00873,1.64410,0.00000,0.00000,0.00000,55,5,45,-8,54,2,80,4,ok,2,0,0.003,11,-0.51,-0.77,10.18,61,0.063,8.14
10.7004,-0.07505,0.00873,1.64410,0.00000,0.00000,0.00000,55,6,43,-9,55,1,80,3,ok,2,0,0.003,11,-0.51,-0.77,10.18,61,0.076,8.14
10.7229,-0.07505,0.00873,1.64410,0.00000,0.00000,0.00000,57,6,41,-9,56,2,79,-1,ok,2,0,0.003,11,-0.51,-0.77,10.18,61,0.088,8.14
10.7261,-0.07505,0.00873,1.64410,0.00000,0.00000,0.00000,58,6,38,-8,57,1,79,-3,ok,2,0,0.003,11,-0.51,-0.77,10.18,61,0.102,8.14
10.7386,-0.07505,0.00873,1.64410,0.00000,0.00000,0.00000,59,7,35,-7,58,2,77,-4,ok,2,0,0.003,11,-0.51,-0.77,10.18,61,0.115,8.14
10.7589,-0.07505,0.00873,1.64410,0.00000,0.00000,0.00000,59,8,32,-6,58,2,75,-6,ok,2,0,0.003,11,-0.51,-0.77,10.18,61,0.127,8.14
10.7636,-0.07505,0.00873,1.64410,0.00000,0.00000,0.00000,60,8,28,-5,59,2,72,-7,ok,2,0,0.003,11,-0.51,-0.77,10.18,61,0.140,8.14
10.7762,-0.07505,0.00873,1.64410,0.00000,0.00000,0.00000,61,9,25,-3,60,2,71,-8,ok,2,0,0.003,11,-0.51,-0.77,10.18,61,0.152,8.14
10.7989,-0.07505,0.00873,1.64410,0.00000,0.00000,0.00000,62,10,21,-1,61,1,70,-10,ok,2,0,0.003,11,-0.51,-0.77,10.18,61,0.165,8.14
10.8021,-0.07505,0.00873,1.64410,0.00000,0.00000,0.00000,63,10,19,0,64,-1,68,-11,ok,2,0,0.003,11,-0.51,-0.77,10.18,61,0.178,8.14
10.8146,-0.07505,0.00873,1.64410,0.00000,0.00000,0.00000,64,11,18,2,64,0,66,-12,ok,2,0,0.003,11,-0.51,-0.77,10.18,61,0.191,8.14
10.8349,-0.07505,0.00873,1.64410,0.00000,0.00000,0.00000,64,12,16,4,65,1,64,-13,ok,2,0,0.003,11,-0.51,-0.77,10.18,61,0.203,8.14
10.8398,-0.02793,-0.00873,1.64585,0.00000,0.00000,0.00000,65,12,14,7,65,1,61,-13,ok,2,0,0.003,11,1.13,-0.60,10.95,62,0.000,8.14
10.8523,-0.02793,-0.00873,1.64585,0.00000,0.00000,0.00000,65,14,12,10,66,1,59,-14,ok,2,0,0.003,11,1.13,-0.60,10.95,62,0.013,8.14
10.8749,-0.02793,-0.00873,1.64585,0.00000,0.00000,0.00000,66,14,10,13,66,1,56,-12,ok,2,0,0.003,11,1.13,-0.60,10.95,62,0.025,8.14
10.8781,-0.02793,-0.00873,1.64585,0.00000,0.00000,0.00000,66,15,12,13,67,1,54,-12,ok,2,0,0.003,11,1.13,-0.60,10.95,62,0.038,8.14
10.8906,-0.02793,-0.00873,1.64585,0.00000,0.00000,0.00000,66,16,12,13,68,2,51,-12,ok,2,0,0.003,11,1.13,-0.60,10.95,62,0.051,8.14
10.9109,-0.02793,-0.00873,1.64585,0.00000,0.00000,0.00000,67,17,13,12,68,2,48,-11,ok,2,0,0.003,11,1.13,-0.60,10.95,62,0.064,8.14
10.9156,-0.02793,-0.00873,1.64585,0.00000,0.00000,0.00000,67,18,15,11,68,3,46,-10,ok,2,0,0.003,11,1.13,-0.60,10.95,62,0.076,8.14
10.9283,-0.02793,-0.00873,1.64585,0.00000,0.00000,0.00000,68,18,15,10,68,3,42,-9,ok,2,0,0.003,11,1.13,-0.60,10.95,62,0.089,8.14
10.9509,-0.02793,-0.00873,1.64585,0.00000,0.00000,0.00000,68,19,17,9,69,4,40,-8,ok,2,0,0.003,11,1.13,-0.60,10.95,62,0.101,8.14
10.9542,-0.02793,-0.00873,1.64585,0.00000,0.00000,0.00000,68,20,17,9,69,5,36,-6,ok,2,0,0.003,11,1.13,-0.60,10.95,62,0.114,8.14
10.9665,-0.02793,-0.00873,1.64585,0.00000,0.00000,0.00000,69,21,19,8,70,5,35,-5,ok,2,0,0.003,11,1.13,-0.60,10.95,62,0.127,8.14
10.9869,-0.02793,-0.00873,1.64585,0.00000,0.00000,0.00000,69,22,20,7,70,7,32,-3,ok,2,0,0.003,11,1.13,-0.60,10.95,62,0.140,8.14
10.9916,-0.02793,-0.00873,1.64585,0.00000,0.00000,0.00000,69,23,22,7,70,8,30,0,ok,2,0,0.003,11,1.13,-0.60,10.95,62,0.152,8.14
11.0042,-0.02793,-0.00873,1.64585,0.00000,0.00000,0.00000,69,24,23,6,71,9,29,2,ok,2,0,0.003,11,1.13,-0.60,10.95,62,0.165,8.14
11.0269,-0.02793,-0.00873,1.64585,0.00000,0.00000,0.00000,68,25,24,6,71,10,28,6,ok,2,0,0.003,11,1.13,-0.60,10.95,62,0.177,8.14
11.0303,-0.00698,0.06981,1.74882,0.00000,0.00000,0.00000,67,28,25,5,71,11,27,8,ok,2,0,0.003,11,1.04,-0.81,8.63,63,0.000,8.14
11.0426,-0.00698,0.06981,1.74882,0.00000,0.00000,0.00000,66,29,27,4,71,13,29,7,ok,2,0,0.003,11,1.04,-0.81,8.63,63,0.013,8.14
11.0629,-0.00698,0.06981,1.74882,0.00000,0.00000,0.00000,68,28,28,4,71,14,30,6,ok,2,0,0.003,11,1.04,-0.81,8.63,63,0.025,8.14
11.0676,-0.00698,0.06981,1.74882,0.00000,0.00000,0.00000,70,25,29,3,71,15,31,4,ok,2,0,0.003,11,1.04,-0.81,8.63,63,0.038,8.14
11.0802,-0.00698,0.06981,1.74882,0.00000,0.00000,0.00000,72,21,30,3,71,17,32,4,ok,2,0,0.003,11,1.04,-0.81,8.63,63,0.050,8.14
11.1029,-0.00698,0.06981,1.74882,0.00000,0.00000,0.00000,73,17,32,2,71,19,34,3,ok,2,0,0.003,11,1.04,-0.81,8.63,63,0.063,8.14
11.1062,-0.00698,0.06981,1.74882,0.00000,0.00000,0.00000,74,15,33,2,71,19,35,3,ok,2,0,0.003,11,1.04,-0.81,8.63,63,0.076,8.14
11.1185,-0.00698,0.06981,1.74882,0.00000,0.00000,0.00000,73,14,34,2,70,22,37,2,ok,2,0,0.003,11,1.04,-0.81,8.63,63,0.089,8.14
11.1389,-0.00698,0.06981,1.74882,0.00000,0.00000,0.00000,73,11,36,2,70,23,39,2,ok,2,0,0.003,11,1.04,-0.81,8.63,63,0.101,8.14
11.1436,-0.00698,0.06981,1.74882,0.00000,0.00000,0.00000,73,8,37,2,71,25,39,2,ok,2,0,0.003,11,1.04,-0.81,8.63,63,0.114,8.14
11.1562,-0.00698,0.06981,1.74882,0.00000,0.00000,0.00000,72,5,38,2,71,26,41,2,ok,2,0,0.003,11,1.04,-0.81,8.63,63,0.126,8.14
11.1789,-0.00698,0.06981,1.74882,0.00000,0.00000,0.00000,71,2,40,2,70,28,42,2,ok,2,0,0.003,11,1.04,-0.81,8.63,63,0.139,8.14
