# run_gait log  cmd_fwd=0.100 hz=80.0 fw_balance=off policy_yaw_sign=-1
t,roll,pitch,yaw,gx,gy,gz,j0,j1,j2,j3,j4,j5,j6,j7,guard_state,hottest_j,hottest_tier,hottest_frac,duty_s,ax,ay,az,imu_n,imu_age_s,volt
0.0389,-0.00698,0.02967,0.00000,0.00000,0.00000,0.00000,21,-1,59,7,66,-12,61,0,ok,4,0,0.000,0,0.29,-0.08,9.99,7,0.022,nan
0.0426,-0.00698,0.02793,0.00000,0.00000,0.00000,0.00000,19,0,61,8,64,-12,63,-1,ok,4,0,0.000,0,0.29,-0.07,10.01,8,0.000,nan
0.0553,-0.00698,0.02793,0.00000,0.00000,0.00000,0.00000,17,2,61,9,61,-13,64,0,ok,4,0,0.000,0,0.29,-0.07,10.01,8,0.013,8.02
0.0749,-0.00698,0.02793,0.00000,0.00000,0.00000,0.00000,15,6,62,9,59,-13,64,0,ok,4,0,0.000,0,0.29,-0.07,10.01,8,0.025,8.02
0.0798,-0.00698,0.02793,0.00000,0.00000,0.00000,0.00000,13,9,62,11,56,-12,65,1,ok,4,0,0.000,0,0.29,-0.07,10.01,8,0.038,8.02
0.0923,-0.00698,0.02793,0.00000,0.00000,0.00000,0.00000,11,11,63,11,53,-12,65,1,ok,4,0,0.000,0,0.29,-0.07,10.01,8,0.050,8.02
0.1149,-0.00698,0.02793,0.00000,0.00000,0.00000,0.00000,13,12,63,12,51,-12,66,2,ok,4,0,0.000,0,0.29,-0.07,10.01,8,0.063,8.02
0.1181,-0.00698,0.02793,0.00000,0.00000,0.00000,0.00000,13,11,63,13,48,-12,66,2,ok,4,0,0.000,0,0.29,-0.07,10.01,8,0.076,8.02
0.1307,-0.00698,0.02793,0.00000,0.00000,0.00000,0.00000,14,10,64,14,45,-12,66,3,ok,4,0,0.000,0,0.29,-0.07,10.01,8,0.089,8.02
0.1508,-0.00698,0.02793,0.00000,0.00000,0.00000,0.00000,15,9,64,15,42,-10,67,3,ok,4,0,0.000,0,0.29,-0.07,10.01,8,0.101,8.02
0.1557,-0.00698,0.02793,0.00000,0.00000,0.00000,0.00000,16,9,65,15,39,-10,68,4,ok,4,0,0.000,0,0.29,-0.07,10.01,8,0.114,8.02
0.1681,-0.00698,0.02793,0.00000,0.00000,0.00000,0.00000,18,8,65,16,36,-8,68,4,ok,4,0,0.000,0,0.29,-0.07,10.01,8,0.126,8.02
0.1910,-0.00698,0.02793,0.00000,0.00000,0.00000,0.00000,18,7,65,17,34,-7,69,5,ok,4,0,0.000,0,0.29,-0.07,10.01,8,0.139,8.02
0.1951,-0.00698,0.02793,0.00000,0.00000,0.00000,0.00000,21,6,66,18,32,-5,69,6,ok,4,0,0.000,0,0.29,-0.07,10.01,8,0.152,8.02
0.2077,-0.00698,0.02793,0.00000,0.00000,0.00000,0.00000,22,5,66,19,30,-2,70,7,ok,4,0,0.000,0,0.29,-0.07,10.01,8,0.165,8.02
0.2309,-0.00698,0.02793,0.00000,0.00000,0.00000,0.00000,23,5,66,21,29,0,70,8,ok,4,0,0.000,0,0.29,-0.07,10.01,8,0.177,8.02
0.2353,-0.00698,0.02793,0.00000,0.00000,0.00000,0.00000,24,4,66,22,27,4,70,9,ok,4,0,0.000,0,0.29,-0.07,10.01,8,0.192,8.02
0.2480,-0.02967,-0.11170,0.00873,0.00000,0.00000,0.00000,26,4,65,23,27,6,71,9,ok,4,0,0.000,0,-0.62,-0.76,9.04,9,0.000,8.02
0.2709,-0.02967,-0.11170,0.00873,0.00000,0.00000,0.00000,27,4,65,26,29,5,71,10,ok,4,0,0.000,0,-0.62,-0.76,9.04,9,0.012,8.02
0.2750,-0.02967,-0.11170,0.00873,0.00000,0.00000,0.00000,28,3,65,28,29,5,72,11,ok,4,0,0.000,0,-0.62,-0.76,9.04,9,0.027,8.02
0.2868,-0.02967,-0.11170,0.00873,0.00000,0.00000,0.00000,29,3,66,27,30,3,72,12,ok,4,0,0.000,0,-0.62,-0.76,9.04,9,0.040,8.02
0.3068,-0.02967,-0.11170,0.00873,0.00000,0.00000,0.00000,30,2,69,24,31,3,73,13,ok,4,0,0.000,0,-0.62,-0.76,9.04,9,0.053,8.02
0.3118,-0.02967,-0.11170,0.00873,0.00000,0.00000,0.00000,31,1,72,21,32,3,73,14,ok,4,0,0.000,0,-0.62,-0.76,9.04,9,0.065,8.02
0.3242,-0.02967,-0.11170,0.00873,0.00000,0.00000,0.00000,32,0,73,17,33,3,73,16,ok,4,0,0.000,0,-0.62,-0.76,9.04,9,0.078,8.02
0.3468,-0.02967,-0.11170,0.00873,0.00000,0.00000,0.00000,33,0,74,15,34,1,73,18,ok,4,0,0.000,0,-0.62,-0.76,9.04,9,0.090,8.02
0.3501,-0.02967,-0.11170,0.00873,0.00000,0.00000,0.00000,34,-1,74,15,37,1,74,19,ok,4,0,0.000,0,-0.62,-0.76,9.04,9,0.103,8.02
0.3626,-0.02967,-0.11170,0.00873,0.00000,0.00000,0.00000,36,-1,74,12,37,1,73,21,ok,4,0,0.000,0,-0.62,-0.76,9.04,9,0.116,8.02
0.3828,-0.02967,-0.11170,0.00873,0.00000,0.00000,0.00000,37,-1,73,9,39,1,72,22,ok,4,0,0.000,0,-0.62,-0.76,9.04,9,0.128,8.02
0.3876,-0.02967,-0.11170,0.00873,0.00000,0.00000,0.00000,38,-1,73,6,40,1,73,23,ok,4,0,0.000,0,-0.62,-0.76,9.04,9,0.141,8.02
0.4002,-0.02967,-0.11170,0.00873,0.00000,0.00000,0.00000,39,-2,72,3,40,1,72,25,ok,4,0,0.000,0,-0.62,-0.76,9.04,9,0.153,8.02
0.4228,-0.02967,-0.11170,0.00873,0.00000,0.00000,0.00000,40,-2,71,2,42,0,72,26,ok,4,0,0.000,0,-0.62,-0.76,9.04,9,0.166,8.02
0.4259,-0.02967,-0.11170,0.00873,0.00000,0.00000,0.00000,42,-2,69,0,43,0,71,28,ok,4,0,0.000,0,-0.62,-0.76,9.04,9,0.179,8.02
0.4390,-0.02967,-0.11170,0.00873,0.00000,0.00000,0.00000,42,-2,67,-2,44,-1,72,28,ok,4,0,0.000,0,-0.62,-0.76,9.04,9,0.192,8.02
0.4588,-0.12741,-0.00349,0.03665,0.00000,0.00000,0.00000,44,-1,66,-4,46,-2,73,27,ok,4,0,0.000,0,0.54,0.15,7.74,10,0.000,8.02
0.4638,-0.12741,-0.00349,0.03665,0.00000,0.00000,0.00000,45,-1,65,-6,47,-1,75,26,ok,4,0,0.000,0,0.54,0.15,7.74,10,0.012,8.02
0.4761,-0.12741,-0.00349,0.03665,0.00000,0.00000,0.00000,47,0,63,-7,48,-2,76,21,ok,4,0,0.000,0,0.54,0.15,7.74,10,0.025,8.02
0.4988,-0.12741,-0.00349,0.03665,0.00000,0.00000,0.00000,48,0,60,-8,49,-2,78,17,ok,4,0,0.000,0,0.54,0.15,7.74,10,0.038,8.02
0.5019,-0.12741,-0.00349,0.03665,0.00000,0.00000,0.00000,49,0,57,-9,50,-1,79,14,ok,4,0,0.000,0,0.54,0.15,7.74,10,0.051,8.02
0.5148,-0.12741,-0.00349,0.03665,0.00000,0.00000,0.00000,49,3,55,-10,52,-1,79,14,ok,4,0,0.000,0,0.54,0.15,7.74,10,0.063,8.02
0.5348,-0.12741,-0.00349,0.03665,0.00000,0.00000,0.00000,51,4,52,-10,53,0,79,11,ok,4,0,0.000,1,0.54,0.15,7.74,10,0.076,8.02
0.5395,-0.12741,-0.00349,0.03665,0.00000,0.00000,0.00000,52,4,49,-10,55,0,79,7,ok,4,0,0.000,1,0.54,0.15,7.74,10,0.088,8.02
0.5520,-0.12741,-0.00349,0.03665,0.00000,0.00000,0.00000,53,5,46,-10,56,0,79,4,ok,4,0,0.000,1,0.54,0.15,7.74,10,0.101,8.02
0.5748,-0.12741,-0.00349,0.03665,0.00000,0.00000,0.00000,53,5,43,-10,57,0,78,2,ok,4,0,0.000,1,0.54,0.15,7.74,10,0.114,8.02
0.5781,-0.12741,-0.00349,0.03665,0.00000,0.00000,0.00000,55,6,41,-10,58,1,77,-1,ok,4,0,0.000,1,0.54,0.15,7.74,10,0.127,8.02
0.5907,-0.12741,-0.00349,0.03665,0.00000,0.00000,0.00000,55,6,39,-9,59,0,77,-3,ok,4,0,0.000,1,0.54,0.15,7.74,10,0.140,8.02
0.6108,-0.12741,-0.00349,0.03665,0.00000,0.00000,0.00000,56,6,36,-8,59,1,76,-4,ok,4,0,0.000,1,0.54,0.15,7.74,10,0.152,8.02
0.6156,-0.12741,-0.00349,0.03665,0.00000,0.00000,0.00000,57,7,33,-7,60,1,74,-6,ok,4,0,0.000,1,0.54,0.15,7.74,10,0.165,8.02
0.6282,-0.12741,-0.00349,0.03665,0.00000,0.00000,0.00000,58,7,29,-6,60,1,71,-6,ok,2,0,0.000,1,0.54,0.15,7.74,10,0.177,8.02
0.6508,-0.12741,-0.00349,0.03665,0.00000,0.00000,0.00000,59,8,27,-4,61,1,70,-8,ok,2,0,0.000,1,0.54,0.15,7.74,10,0.190,8.02
0.6542,-0.04014,0.04189,0.09250,0.00000,0.00000,0.00000,60,9,22,-2,62,0,69,-10,ok,2,0,0.000,1,-0.23,-0.05,10.66,11,0.000,8.02
0.6666,-0.04014,0.04189,0.09250,0.00000,0.00000,0.00000,60,10,21,-1,64,-1,67,-11,ok,2,0,0.000,1,-0.23,-0.05,10.66,11,0.013,8.02
0.6868,-0.04014,0.04189,0.09250,0.00000,0.00000,0.00000,61,10,19,0,65,0,65,-13,ok,2,0,0.000,1,-0.23,-0.05,10.66,11,0.025,8.02
0.6916,-0.04014,0.04189,0.09250,0.00000,0.00000,0.00000,61,11,17,3,66,1,63,-13,ok,2,0,0.000,1,-0.23,-0.05,10.66,11,0.038,8.02
0.7042,-0.04014,0.04189,0.09250,0.00000,0.00000,0.00000,62,12,15,6,66,0,60,-14,ok,2,0,0.000,1,-0.23,-0.05,10.66,11,0.050,8.02
0.7268,-0.04014,0.04189,0.09250,0.00000,0.00000,0.00000,62,13,13,10,67,1,58,-14,ok,2,0,0.000,1,-0.23,-0.05,10.66,11,0.063,8.02
0.7299,-0.04014,0.04189,0.09250,0.00000,0.00000,0.00000,62,14,11,12,68,1,55,-13,ok,2,0,0.000,1,-0.23,-0.05,10.66,11,0.076,8.02
0.7425,-0.04014,0.04189,0.09250,0.00000,0.00000,0.00000,63,15,13,12,68,1,53,-13,ok,2,0,0.000,1,-0.23,-0.05,10.66,11,0.089,8.02
0.7628,-0.04014,0.04189,0.09250,0.00000,0.00000,0.00000,63,16,12,13,69,1,50,-12,ok,2,0,0.000,1,-0.23,-0.05,10.66,11,0.101,8.02
0.7677,-0.04014,0.04189,0.09250,0.00000,0.00000,0.00000,64,17,14,11,69,2,47,-11,ok,2,0,0.000,1,-0.23,-0.05,10.66,11,0.114,8.02
0.7801,-0.04014,0.04189,0.09250,0.00000,0.00000,0.00000,64,18,15,10,70,2,45,-10,ok,2,0,0.000,1,-0.23,-0.05,10.66,11,0.126,8.02
0.8028,-0.04014,0.04189,0.09250,0.00000,0.00000,0.00000,65,18,16,10,70,3,41,-9,ok,2,0,0.000,1,-0.23,-0.05,10.66,11,0.139,8.02
0.8059,-0.04014,0.04189,0.09250,0.00000,0.00000,0.00000,66,18,17,9,70,4,39,-8,ok,2,0,0.000,1,-0.23,-0.05,10.66,11,0.152,8.02
0.8186,-0.04014,0.04189,0.09250,0.00000,0.00000,0.00000,66,20,18,8,71,5,35,-7,ok,2,0,0.000,1,-0.23,-0.05,10.66,11,0.165,8.02
0.8388,-0.04014,0.04189,0.09250,0.00000,0.00000,0.00000,67,20,20,7,72,5,34,-5,ok,2,0,0.000,1,-0.23,-0.05,10.66,11,0.177,8.02
0.8437,-0.04014,0.04189,0.09250,0.00000,0.00000,0.00000,67,22,21,6,72,6,32,-4,ok,2,0,0.000,1,-0.23,-0.05,10.66,11,0.190,8.02
0.8563,0.05411,0.00349,0.16930,0.00000,0.00000,0.00000,66,23,22,6,71,8,30,-1,ok,2,0,0.000,1,3.61,-1.10,6.32,12,0.000,8.02
0.8788,0.05411,0.00349,0.16930,0.00000,0.00000,0.00000,66,24,23,6,72,8,29,2,ok,2,0,0.000,1,3.61,-1.10,6.32,12,0.013,8.02
0.8820,0.05411,0.00349,0.16930,0.00000,0.00000,0.00000,66,25,25,5,72,9,27,5,ok,2,0,0.000,1,3.61,-1.10,6.32,12,0.026,8.02
0.8945,0.05411,0.00349,0.16930,0.00000,0.00000,0.00000,65,28,26,4,72,10,27,7,ok,2,0,0.000,1,3.61,-1.10,6.32,12,0.039,8.02
0.9148,0.05411,0.00349,0.16930,0.00000,0.00000,0.00000,64,29,28,3,72,12,29,6,ok,2,0,0.000,1,3.61,-1.10,6.32,12,0.051,8.02
0.9196,0.05411,0.00349,0.16930,0.00000,0.00000,0.00000,66,28,29,3,72,13,29,5,ok,2,0,0.000,1,3.61,-1.10,6.32,12,0.063,8.02
0.9320,0.05411,0.00349,0.16930,0.00000,0.00000,0.00000,68,25,30,2,72,15,30,3,ok,2,0,0.000,1,3.61,-1.10,6.32,12,0.076,8.02
0.9548,0.05411,0.00349,0.16930,0.00000,0.00000,0.00000,70,21,31,2,72,16,31,3,ok,2,0,0.000,1,3.61,-1.10,6.32,12,0.089,8.02
0.9581,0.05411,0.00349,0.16930,0.00000,0.00000,0.00000,71,17,33,2,71,18,33,3,ok,2,0,0.000,1,3.61,-1.10,6.32,12,0.102,8.02
0.9706,0.05411,0.00349,0.16930,0.00000,0.00000,0.00000,72,15,34,2,72,18,34,2,ok,2,0,0.000,1,3.61,-1.10,6.32,12,0.115,8.02
0.9908,0.05411,0.00349,0.16930,0.00000,0.00000,0.00000,71,14,35,1,71,21,36,1,ok,2,0,0.000,1,3.61,-1.10,6.32,12,0.127,8.02
0.9956,0.05411,0.00349,0.16930,0.00000,0.00000,0.00000,71,11,37,1,71,22,38,1,ok,2,0,0.000,1,3.61,-1.10,6.32,12,0.140,8.02
1.0080,0.05411,0.00349,0.16930,0.00000,0.00000,0.00000,70,7,38,2,71,24,39,2,ok,2,0,0.000,1,3.61,-1.10,6.32,12,0.152,8.02
1.0308,0.05411,0.00349,0.16930,0.00000,0.00000,0.00000,70,5,39,2,71,25,40,1,ok,2,0,0.000,1,3.61,-1.10,6.32,12,0.165,8.02
1.0339,0.05411,0.00349,0.16930,0.00000,0.00000,0.00000,68,1,41,1,71,27,42,1,ok,2,0,0.000,1,3.61,-1.10,6.32,12,0.178,8.02
1.0465,0.05411,0.00349,0.16930,0.00000,0.00000,0.00000,67,-1,42,1,71,29,43,1,ok,2,0,0.000,1,3.61,-1.10,6.32,12,0.191,8.02
1.0668,0.05411,0.00349,0.16930,0.00000,0.00000,0.00000,66,-3,44,2,71,29,44,0,ok,2,0,0.000,1,3.61,-1.10,6.32,12,0.203,8.02
1.0718,0.05934,0.01396,0.30892,0.00000,0.00000,0.00000,64,-4,44,2,72,29,45,0,ok,2,0,0.000,1,0.71,1.01,9.26,13,0.000,8.02
1.0840,0.05934,0.01396,0.30892,0.00000,0.00000,0.00000,63,-6,46,2,74,26,46,0,ok,2,0,0.000,1,0.71,1.01,9.26,13,0.013,8.02
1.1068,0.05934,0.01396,0.30892,0.00000,0.00000,0.00000,62,-8,47,2,76,22,47,0,ok,2,0,0.000,1,0.71,1.01,9.26,13,0.025,8.02
1.1101,0.05934,0.01396,0.30892,0.00000,0.00000,0.00000,60,-9,48,3,77,17,49,0,ok,2,0,0.000,1,0.71,1.01,9.26,13,0.038,8.02
1.1225,0.05934,0.01396,0.30892,0.00000,0.00000,0.00000,58,-10,49,3,79,14,49,0,ok,2,0,0.000,1,0.71,1.01,9.26,13,0.051,8.02
1.1428,0.05934,0.01396,0.30892,0.00000,0.00000,0.00000,55,-11,50,3,79,14,50,0,ok,2,0,0.000,1,0.71,1.01,9.26,13,0.064,8.02
1.1476,0.05934,0.01396,0.30892,0.00000,0.00000,0.00000,53,-12,50,5,79,11,51,0,ok,2,0,0.000,1,0.71,1.01,9.26,13,0.076,8.02
1.1602,0.05934,0.01396,0.30892,0.00000,0.00000,0.00000,50,-11,52,5,79,8,52,0,ok,2,0,0.000,1,0.71,1.01,9.26,13,0.089,8.02
1.1828,0.05934,0.01396,0.30892,0.00000,0.00000,0.00000,48,-11,52,5,78,5,53,0,ok,2,0,0.000,1,0.71,1.01,9.26,13,0.101,8.02
1.1859,0.05934,0.01396,0.30892,0.00000,0.00000,0.00000,46,-11,53,6,77,2,54,0,ok,2,0,0.000,1,0.71,1.01,9.26,13,0.114,8.02
1.1986,0.05934,0.01396,0.30892,0.00000,0.00000,0.00000,43,-11,54,7,77,-1,54,1,ok,2,0,0.000,1,0.71,1.01,9.26,13,0.127,8.02
1.2188,0.05934,0.01396,0.30892,0.00000,0.00000,0.00000,41,-11,56,7,76,-3,55,0,ok,2,0,0.000,1,0.71,1.01,9.26,13,0.140,8.02
1.2236,0.05934,0.01396,0.30892,0.00000,0.00000,0.00000,38,-10,56,7,75,-4,56,0,ok,2,0,0.000,1,0.71,1.01,9.26,13,0.152,8.02
1.2363,0.05934,0.01396,0.30892,0.00000,0.00000,0.00000,35,-9,57,7,73,-8,57,-1,ok,2,0,0.000,1,0.71,1.01,9.26,13,0.165,8.02
1.2588,0.05934,0.01396,0.30892,0.00000,0.00000,0.00000,33,-8,57,8,71,-7,57,0,ok,2,0,0.000,1,0.71,1.01,9.26,13,0.177,8.02
1.2622,0.06632,-0.05585,0.32638,0.00000,0.00000,0.00000,29,-6,58,8,70,-9,58,0,ok,2,0,0.000,1,0.03,1.20,9.90,14,0.000,8.02
1.2746,0.06632,-0.05585,0.32638,0.00000,0.00000,0.00000,27,-4,59,9,68,-11,59,0,ok,2,0,0.000,1,0.03,1.20,9.90,14,0.013,8.02
1.2948,0.06632,-0.05585,0.32638,0.00000,0.00000,0.00000,22,-2,60,11,66,-12,60,0,ok,2,0,0.000,1,0.03,1.20,9.90,14,0.025,8.02
1.2996,0.06632,-0.05585,0.32638,0.00000,0.00000,0.00000,21,-1,61,11,64,-13,61,0,ok,2,0,0.000,1,0.03,1.20,9.90,14,0.038,8.02
1.3121,0.06632,-0.05585,0.32638,0.00000,0.00000,0.00000,19,0,62,11,62,-13,63,-3,ok,2,0,0.000,1,0.03,1.20,9.90,14,0.050,8.02
1.3348,0.06632,-0.05585,0.32638,0.00000,0.00000,0.00000,17,3,63,12,59,-14,64,-2,ok,2,0,0.000,1,0.03,1.20,9.90,14,0.063,8.02
1.3379,0.06632,-0.05585,0.32638,0.00000,0.00000,0.00000,14,7,63,13,58,-15,64,-2,ok,2,0,0.000,1,0.03,1.20,9.90,14,0.076,8.02
1.3507,0.06632,-0.05585,0.32638,0.00000,0.00000,0.00000,13,10,63,14,55,-14,65,-1,ok,2,0,0.000,1,0.03,1.20,9.90,14,0.089,8.02
1.3708,0.06632,-0.05585,0.32638,0.00000,0.00000,0.00000,11,13,64,15,52,-13,66,-1,ok,2,0,0.000,1,0.03,1.20,9.90,14,0.101,8.02
1.3756,0.06632,-0.05585,0.32638,0.00000,0.00000,0.00000,13,13,64,16,49,-13,67,0,ok,2,0,0.000,1,0.03,1.20,9.90,14,0.114,8.02
1.3880,0.06632,-0.05585,0.32638,0.00000,0.00000,0.00000,13,13,64,17,46,-12,67,-1,ok,2,0,0.000,1,0.03,1.20,9.90,14,0.126,8.02
1.4108,0.06632,-0.05585,0.32638,0.00000,0.00000,0.00000,14,12,65,17,44,-12,68,0,ok,2,0,0.000,1,0.03,1.20,9.90,14,0.139,8.02
1.4139,0.06632,-0.05585,0.32638,0.00000,0.00000,0.00000,16,12,65,18,41,-10,69,0,ok,0,0,0.000,1,0.03,1.20,9.90,14,0.152,8.02
1.4265,0.06632,-0.05585,0.32638,0.00000,0.00000,0.00000,16,11,65,19,38,-10,69,1,ok,4,0,0.000,1,0.03,1.20,9.90,14,0.165,8.02
1.4468,0.06632,-0.05585,0.32638,0.00000,0.00000,0.00000,18,10,66,19,35,-8,70,2,ok,4,0,0.000,1,0.03,1.20,9.90,14,0.177,8.02
1.4516,0.06632,-0.05585,0.32638,0.00000,0.00000,0.00000,19,10,66,21,33,-7,70,2,ok,4,0,0.000,1,0.03,1.20,9.90,14,0.190,8.02
1.4643,-0.03142,-0.01047,0.34907,0.00000,0.00000,0.00000,21,9,66,21,31,-5,71,4,ok,4,0,0.000,1,-0.11,-0.56,9.45,15,0.000,8.02
1.4868,-0.03142,-0.01047,0.34907,0.00000,0.00000,0.00000,22,8,66,22,29,-2,72,5,ok,4,0,0.000,1,-0.11,-0.56,9.45,15,0.012,8.02
1.4899,-0.03142,-0.01047,0.34907,0.00000,0.00000,0.00000,23,7,65,23,28,0,71,6,ok,4,0,0.000,1,-0.11,-0.56,9.45,15,0.026,8.02
1.5025,-0.03142,-0.01047,0.34907,0.00000,0.00000,0.00000,25,6,65,24,27,3,71,8,ok,4,0,0.000,1,-0.11,-0.56,9.45,15,0.039,8.02
1.5228,-0.03142,-0.01047,0.34907,0.00000,0.00000,0.00000,26,6,65,25,26,6,72,8,ok,4,0,0.000,1,-0.11,-0.56,9.45,15,0.051,8.02
1.5276,-0.03142,-0.01047,0.34907,0.00000,0.00000,0.00000,27,5,64,28,28,5,72,9,ok,4,0,0.000,1,-0.11,-0.56,9.45,15,0.063,8.02
1.5400,-0.03142,-0.01047,0.34907,0.00000,0.00000,0.00000,28,4,64,29,28,5,72,11,ok,4,0,0.000,1,-0.11,-0.56,9.45,15,0.076,8.02
1.5628,-0.03142,-0.01047,0.34907,0.00000,0.00000,0.00000,29,4,65,28,29,3,72,12,ok,4,0,0.000,2,-0.11,-0.56,9.45,15,0.089,8.02
1.5661,-0.03142,-0.01047,0.34907,0.00000,0.00000,0.00000,31,3,68,25,31,2,73,14,ok,4,0,0.000,2,-0.11,-0.56,9.45,15,0.102,8.02
1.5787,-0.03142,-0.01047,0.34907,0.00000,0.00000,0.00000,32,3,70,21,32,2,73,15,ok,4,0,0.000,2,-0.11,-0.56,9.45,15,0.115,8.02
1.5988,-0.03142,-0.01047,0.34907,0.00000,0.00000,0.00000,33,2,71,17,33,2,72,17,ok,4,0,0.000,2,-0.11,-0.56,9.45,15,0.127,8.02
1.6036,-0.03142,-0.01047,0.34907,0.00000,0.00000,0.00000,34,2,71,15,34,1,72,19,ok,4,0,0.000,2,-0.11,-0.56,9.45,15,0.140,8.02
1.6161,-0.03142,-0.01047,0.34907,0.00000,0.00000,0.00000,36,1,71,14,37,1,73,20,ok,4,0,0.000,2,-0.11,-0.56,9.45,15,0.152,8.02
1.6389,-0.03142,-0.01047,0.34907,0.00000,0.00000,0.00000,37,1,71,11,37,1,72,22,ok,4,0,0.000,2,-0.11,-0.56,9.45,15,0.165,8.02
1.6421,-0.03142,-0.01047,0.34907,0.00000,0.00000,0.00000,39,1,71,8,39,1,72,23,ok,4,0,0.000,2,-0.11,-0.56,9.45,15,0.178,8.02
1.6546,-0.03142,-0.01047,0.34907,0.00000,0.00000,0.00000,40,1,70,5,40,1,72,24,ok,4,0,0.000,2,-0.11,-0.56,9.45,15,0.191,8.02
1.6748,-0.02269,0.01571,0.33336,0.00000,0.00000,0.00000,42,0,70,3,41,1,72,26,ok,4,0,0.000,2,-0.74,-1.58,8.84,16,0.000,8.02
1.6796,-0.02269,0.01571,0.33336,0.00000,0.00000,0.00000,43,0,69,1,42,1,72,28,ok,4,0,0.000,2,-0.74,-1.58,8.84,16,0.012,8.02
1.6922,-0.02269,0.01571,0.33336,0.00000,0.00000,0.00000,45,0,68,-1,44,1,71,29,ok,4,0,0.000,2,-0.74,-1.58,8.84,16,0.025,8.02
1.7148,-0.02269,0.01571,0.33336,0.00000,0.00000,0.00000,45,0,65,-2,45,0,72,29,ok,4,0,0.000,2,-0.74,-1.58,8.84,16,0.038,8.02
1.7179,-0.02269,0.01571,0.33336,0.00000,0.00000,0.00000,46,1,64,-4,46,0,74,28,ok,4,0,0.001,2,-0.74,-1.58,8.84,16,0.051,8.02
1.7305,-0.02269,0.01571,0.33336,0.00000,0.00000,0.00000,48,1,63,-6,48,0,75,26,ok,4,0,0.001,2,-0.74,-1.58,8.84,16,0.063,8.02
1.7508,-0.02269,0.01571,0.33336,0.00000,0.00000,0.00000,49,2,61,-7,48,0,77,20,ok,4,0,0.001,2,-0.74,-1.58,8.84,16,0.076,8.02
1.7556,-0.02269,0.01571,0.33336,0.00000,0.00000,0.00000,50,1,59,-8,49,0,79,17,ok,4,0,0.001,2,-0.74,-1.58,8.84,16,0.088,8.02
1.7681,-0.02269,0.01571,0.33336,0.00000,0.00000,0.00000,50,1,56,-9,50,0,80,14,ok,4,0,0.001,2,-0.74,-1.58,8.84,16,0.101,8.02
1.7908,-0.02269,0.01571,0.33336,0.00000,0.00000,0.00000,51,4,54,-10,52,0,80,13,ok,4,0,0.001,2,-0.74,-1.58,8.84,16,0.113,8.02
1.7939,-0.02269,0.01571,0.33336,0.00000,0.00000,0.00000,52,5,51,-9,53,0,80,10,ok,4,0,0.001,2,-0.74,-1.58,8.84,16,0.127,8.02
1.8067,-0.02269,0.01571,0.33336,0.00000,0.00000,0.00000,52,4,49,-9,54,0,80,7,ok,4,0,0.001,2,-0.74,-1.58,8.84,16,0.139,8.02
1.8268,-0.02269,0.01571,0.33336,0.00000,0.00000,0.00000,53,5,46,-9,55,1,80,4,ok,2,0,0.001,2,-0.74,-1.58,8.84,16,0.152,8.02
1.8316,-0.02269,0.01571,0.33336,0.00000,0.00000,0.00000,53,6,43,-9,56,1,79,2,ok,2,0,0.001,2,-0.74,-1.58,8.84,16,0.164,8.02
1.8442,-0.02269,0.01571,0.33336,0.00000,0.00000,0.00000,55,6,41,-9,57,1,78,-2,ok,2,0,0.001,2,-0.74,-1.58,8.84,16,0.177,8.02
1.8708,-0.02269,0.01571,0.33336,0.00000,0.00000,0.00000,56,6,39,-8,58,0,78,-3,ok,2,0,0.001,2,-0.74,-1.58,8.84,16,0.189,8.02
1.8742,-0.08203,-0.01920,0.47647,0.00000,0.00000,0.00000,57,7,35,-7,58,1,77,-5,ok,2,0,0.001,2,-2.06,0.00,10.71,17,0.000,8.02
1.8866,-0.08203,-0.01920,0.47647,0.00000,0.00000,0.00000,58,8,33,-6,59,1,75,-7,ok,2,0,0.001,2,-2.06,0.00,10.71,17,0.013,8.02
1.9069,-0.08203,-0.01920,0.47647,0.00000,0.00000,0.00000,59,8,29,-5,60,1,72,-7,ok,2,0,0.001,2,-2.06,0.00,10.71,17,0.025,8.02
1.9116,-0.08203,-0.01920,0.47647,0.00000,0.00000,0.00000,59,9,26,-3,61,1,71,-9,ok,2,0,0.001,2,-2.06,0.00,10.71,17,0.038,8.02
1.9241,-0.08203,-0.01920,0.47647,0.00000,0.00000,0.00000,61,10,22,-1,62,0,69,-11,ok,2,0,0.001,2,-2.06,0.00,10.71,17,0.050,8.02
1.9469,-0.08203,-0.01920,0.47647,0.00000,0.00000,0.00000,61,10,20,0,64,-2,67,-12,ok,2,0,0.001,2,-2.06,0.00,10.71,17,0.063,8.02
1.9499,-0.08203,-0.01920,0.47647,0.00000,0.00000,0.00000,62,11,18,1,64,-1,65,-13,ok,2,0,0.001,2,-2.06,0.00,10.71,17,0.076,8.02
1.9629,-0.08203,-0.01920,0.47647,0.00000,0.00000,0.00000,63,12,16,3,65,0,63,-13,ok,2,0,0.001,2,-2.06,0.00,10.71,17,0.089,8.02
1.9828,-0.08203,-0.01920,0.47647,0.00000,0.00000,0.00000,63,12,14,7,66,0,60,-14,ok,2,0,0.001,2,-2.06,0.00,10.71,17,0.101,8.02
1.9876,-0.08203,-0.01920,0.47647,0.00000,0.00000,0.00000,63,13,13,10,66,0,59,-15,ok,2,0,0.001,2,-2.06,0.00,10.71,17,0.114,8.02
2.0001,-0.08203,-0.01920,0.47647,0.00000,0.00000,0.00000,64,14,11,12,67,0,55,-13,ok,2,0,0.001,2,-2.06,0.00,10.71,17,0.126,8.02
2.0228,-0.08203,-0.01920,0.47647,0.00000,0.00000,0.00000,64,15,13,13,67,0,53,-12,ok,2,0,0.001,2,-2.06,0.00,10.71,17,0.139,8.02
2.0259,-0.08203,-0.01920,0.47647,0.00000,0.00000,0.00000,64,16,13,13,68,1,50,-12,ok,2,0,0.001,2,-2.06,0.00,10.71,17,0.152,8.02
2.0385,-0.08203,-0.01920,0.47647,0.00000,0.00000,0.00000,65,17,14,11,68,1,47,-11,ok,2,0,0.001,2,-2.06,0.00,10.71,17,0.165,8.02
2.0588,-0.08203,-0.01920,0.47647,0.00000,0.00000,0.00000,65,18,15,11,69,2,45,-11,ok,2,0,0.001,2,-2.06,0.00,10.71,17,0.177,8.02
2.0636,-0.08203,-0.01920,0.47647,0.00000,0.00000,0.00000,66,18,16,10,69,2,41,-9,ok,2,0,0.001,2,-2.06,0.00,10.71,17,0.190,8.02
2.0762,-0.08203,-0.01920,0.47647,0.00000,0.00000,0.00000,66,18,17,9,70,3,39,-9,ok,2,0,0.001,2,-2.06,0.00,10.71,17,0.202,8.02
2.0988,0.02443,0.01222,0.48171,0.00000,0.00000,0.00000,66,20,18,9,70,4,35,-7,ok,2,0,0.001,2,0.34,1.13,10.18,18,0.000,8.02
2.1019,0.02443,0.01222,0.48171,0.00000,0.00000,0.00000,67,21,20,8,71,5,34,-6,ok,2,0,0.001,2,0.34,1.13,10.18,18,0.013,8.02
2.1146,0.02443,0.01222,0.48171,0.00000,0.00000,0.00000,67,22,21,7,71,6,32,-4,ok,2,0,0.001,2,0.34,1.13,10.18,18,0.026,8.02
2.1348,0.02443,0.01222,0.48171,0.00000,0.00000,0.00000,67,23,22,6,71,8,30,-1,ok,2,0,0.001,2,0.34,1.13,10.18,18,0.039,8.02
2.1397,0.02443,0.01222,0.48171,0.00000,0.00000,0.00000,67,24,23,6,71,8,28,1,ok,2,0,0.001,2,0.34,1.13,10.18,18,0.051,8.02
2.1520,0.02443,0.01222,0.48171,0.00000,0.00000,0.00000,66,25,25,5,71,9,27,5,ok,2,0,0.001,2,0.34,1.13,10.18,18,0.064,8.02
2.1749,0.02443,0.01222,0.48171,0.00000,0.00000,0.00000,65,28,26,5,71,10,27,7,ok,2,0,0.001,2,0.34,1.13,10.18,18,0.076,8.02
2.1780,0.02443,0.01222,0.48171,0.00000,0.00000,0.00000,65,29,27,4,71,12,29,6,ok,2,0,0.001,2,0.34,1.13,10.18,18,0.089,8.02
2.1908,0.02443,0.01222,0.48171,0.00000,0.00000,0.00000,66,28,28,3,71,13,29,5,ok,2,0,0.001,2,0.34,1.13,10.18,18,0.102,8.02
2.2108,0.02443,0.01222,0.48171,0.00000,0.00000,0.00000,68,25,30,3,72,14,30,3,ok,2,0,0.001,2,0.34,1.13,10.18,18,0.115,8.02
2.2156,0.02443,0.01222,0.48171,0.00000,0.00000,0.00000,71,21,31,2,71,16,32,3,ok,2,0,0.001,2,0.34,1.13,10.18,18,0.127,8.02
2.2281,0.02443,0.01222,0.48171,0.00000,0.00000,0.00000,72,17,32,2,71,18,33,3,ok,2,0,0.001,2,0.34,1.13,10.18,18,0.140,8.02
2.2509,0.02443,0.01222,0.48171,0.00000,0.00000,0.00000,72,15,34,2,72,18,34,2,ok,2,0,0.001,2,0.34,1.13,10.18,18,0.152,8.02
2.2540,0.02443,0.01222,0.48171,0.00000,0.00000,0.00000,71,14,35,1,71,21,36,1,ok,2,0,0.001,2,0.34,1.13,10.18,18,0.165,8.02
2.2666,0.02443,0.01222,0.48171,0.00000,0.00000,0.00000,71,11,36,1,71,22,38,1,ok,2,0,0.001,2,0.34,1.13,10.18,18,0.178,8.02
2.2868,-0.02443,0.07156,0.55676,0.00000,0.00000,0.00000,71,7,38,2,71,24,39,2,ok,2,0,0.001,2,-0.28,-0.14,9.33,19,0.000,8.02
2.2917,-0.02443,0.07156,0.55676,0.00000,0.00000,0.00000,70,5,39,2,71,25,40,1,ok,2,0,0.001,2,-0.28,-0.14,9.33,19,0.012,8.02
2.3041,-0.02443,0.07156,0.55676,0.00000,0.00000,0.00000,69,1,40,2,71,27,42,2,ok,2,0,0.001,2,-0.28,-0.14,9.33,19,0.025,8.02
2.3268,-0.02443,0.07156,0.55676,0.00000,0.00000,0.00000,68,-1,41,1,71,29,43,2,ok,2,0,0.001,2,-0.28,-0.14,9.33,19,0.038,8.02
2.3299,-0.02443,0.07156,0.55676,0.00000,0.00000,0.00000,67,-3,43,2,71,29,44,1,ok,2,0,0.001,2,-0.28,-0.14,9.33,19,0.051,8.02
2.3427,-0.02443,0.07156,0.55676,0.00000,0.00000,0.00000,65,-4,43,2,72,29,45,1,ok,2,0,0.001,2,-0.28,-0.14,9.33,19,0.063,8.02
2.3628,-0.02443,0.07156,0.55676,0.00000,0.00000,0.00000,64,-6,45,2,74,26,46,0,ok,2,0,0.001,2,-0.28,-0.14,9.33,19,0.076,8.02
2.3676,-0.02443,0.07156,0.55676,0.00000,0.00000,0.00000,63,-8,46,2,76,22,47,0,ok,2,0,0.001,2,-0.28,-0.14,9.33,19,0.088,8.02
2.3800,-0.02443,0.07156,0.55676,0.00000,0.00000,0.00000,60,-9,48,3,77,17,49,0,ok,2,0,0.001,2,-0.28,-0.14,9.33,19,0.101,8.02
2.4028,-0.02443,0.07156,0.55676,0.00000,0.00000,0.00000,58,-10,49,3,79,14,49,0,ok,2,0,0.001,2,-0.28,-0.14,9.33,19,0.113,8.02
2.4059,-0.02443,0.07156,0.55676,0.00000,0.00000,0.00000,56,-11,50,3,79,14,50,1,ok,2,0,0.001,2,-0.28,-0.14,9.33,19,0.127,8.02
2.4185,-0.02443,0.07156,0.55676,0.00000,0.00000,0.00000,53,-12,50,5,79,12,51,1,ok,2,0,0.001,2,-0.28,-0.14,9.33,19,0.139,8.02
2.4388,-0.02443,0.07156,0.55676,0.00000,0.00000,0.00000,51,-12,51,6,79,8,52,1,ok,2,0,0.001,2,-0.28,-0.14,9.33,19,0.152,8.02
2.4436,-0.02443,0.07156,0.55676,0.00000,0.00000,0.00000,48,-12,52,5,78,5,53,1,ok,2,0,0.001,2,-0.28,-0.14,9.33,19,0.164,8.02
2.4561,-0.02443,0.07156,0.55676,0.00000,0.00000,0.00000,46,-11,53,6,78,3,54,0,ok,2,0,0.001,2,-0.28,-0.14,9.33,19,0.177,8.02
2.4788,-0.02443,0.07156,0.55676,0.00000,0.00000,0.00000,43,-11,54,7,77,-1,54,1,ok,2,0,0.001,2,-0.28,-0.14,9.33,19,0.189,8.02
2.4822,0.06632,-0.05760,0.55851,0.00000,0.00000,0.00000,41,-11,55,7,76,-3,55,0,ok,2,0,0.001,2,-0.32,0.88,8.64,20,0.000,8.02
2.4946,0.06632,-0.05760,0.55851,0.00000,0.00000,0.00000,39,-10,56,7,75,-4,56,0,ok,2,0,0.001,2,-0.32,0.88,8.64,20,0.013,8.02
2.5148,0.06632,-0.05760,0.55851,0.00000,0.00000,0.00000,36,-9,57,7,73,-7,57,-1,ok,2,0,0.001,2,-0.32,0.88,8.64,20,0.025,8.02
2.5196,0.06632,-0.05760,0.55851,0.00000,0.00000,0.00000,33,-8,58,8,71,-7,57,0,ok,2,0,0.001,2,-0.32,0.88,8.64,20,0.038,8.02
2.5321,0.06632,-0.05760,0.55851,0.00000,0.00000,0.00000,29,-6,59,8,69,-9,58,0,ok,2,0,0.001,2,-0.32,0.88,8.64,20,0.050,8.02
2.5548,0.06632,-0.05760,0.55851,0.00000,0.00000,0.00000,27,-4,59,9,68,-11,59,0,ok,2,0,0.001,2,-0.32,0.88,8.64,20,0.063,8.02
2.5579,0.06632,-0.05760,0.55851,0.00000,0.00000,0.00000,22,-2,60,11,66,-12,60,0,ok,2,0,0.001,3,-0.32,0.88,8.64,20,0.076,8.02
2.5706,0.06632,-0.05760,0.55851,0.00000,0.00000,0.00000,21,-1,61,11,64,-13,61,0,ok,2,0,0.001,3,-0.32,0.88,8.64,20,0.089,8.02
2.5909,0.06632,-0.05760,0.55851,0.00000,0.00000,0.00000,19,1,62,11,62,-13,63,-3,ok,2,0,0.001,3,-0.32,0.88,8.64,20,0.101,8.02
2.5957,0.06632,-0.05760,0.55851,0.00000,0.00000,0.00000,17,3,62,12,59,-14,63,-1,ok,2,0,0.001,3,-0.32,0.88,8.64,20,0.114,8.02
2.6081,0.06632,-0.05760,0.55851,0.00000,0.00000,0.00000,15,7,63,13,57,-15,64,-1,ok,2,0,0.001,3,-0.32,0.88,8.64,20,0.126,8.02
2.6308,0.06632,-0.05760,0.55851,0.00000,0.00000,0.00000,13,10,63,14,54,-14,65,-1,ok,0,0,0.001,3,-0.32,0.88,8.64,20,0.139,8.02
2.6341,0.06632,-0.05760,0.55851,0.00000,0.00000,0.00000,11,13,64,15,52,-13,66,-1,ok,0,0,0.001,3,-0.32,0.88,8.64,20,0.152,8.02
2.6466,0.06632,-0.05760,0.55851,0.00000,0.00000,0.00000,13,13,64,16,49,-13,67,0,ok,0,0,0.001,3,-0.32,0.88,8.64,20,0.165,8.02
2.6668,0.06632,-0.05760,0.55851,0.00000,0.00000,0.00000,13,13,64,17,46,-12,67,-1,ok,0,0,0.001,3,-0.32,0.88,8.64,20,0.177,8.02
2.6716,0.06632,-0.05760,0.55851,0.00000,0.00000,0.00000,15,12,65,17,44,-12,68,0,ok,0,0,0.001,3,-0.32,0.88,8.64,20,0.190,8.02
2.6843,0.12915,0.10297,0.51662,0.00000,0.00000,0.00000,16,11,65,18,41,-10,69,0,ok,0,0,0.001,3,2.19,0.48,9.37,21,0.000,8.02
2.7068,0.12915,0.10297,0.51662,0.00000,0.00000,0.00000,16,11,65,19,38,-9,69,2,ok,0,0,0.001,3,2.19,0.48,9.37,21,0.013,8.02
2.7099,0.12915,0.10297,0.51662,0.00000,0.00000,0.00000,18,10,65,19,35,-7,70,2,ok,0,0,0.001,3,2.19,0.48,9.37,21,0.026,8.02
2.7226,0.12915,0.10297,0.51662,0.00000,0.00000,0.00000,19,10,65,20,33,-6,71,3,ok,0,0,0.001,3,2.19,0.48,9.37,21,0.039,8.02
2.7428,0.12915,0.10297,0.51662,0.00000,0.00000,0.00000,21,9,65,21,31,-5,71,4,ok,0,0,0.001,3,2.19,0.48,9.37,21,0.051,8.02
2.7475,0.12915,0.10297,0.51662,0.00000,0.00000,0.00000,22,8,65,22,29,-1,72,5,ok,0,0,0.001,3,2.19,0.48,9.37,21,0.063,8.02
2.7601,0.12915,0.10297,0.51662,0.00000,0.00000,0.00000,24,7,65,23,28,1,72,6,ok,0,0,0.001,3,2.19,0.48,9.37,21,0.076,8.02
2.7828,0.12915,0.10297,0.51662,0.00000,0.00000,0.00000,25,6,65,24,27,4,72,7,ok,0,0,0.001,3,2.19,0.48,9.37,21,0.089,8.02
2.7859,0.12915,0.10297,0.51662,0.00000,0.00000,0.00000,26,6,64,25,26,7,72,8,ok,0,0,0.001,3,2.19,0.48,9.37,21,0.102,8.02
2.7985,0.12915,0.10297,0.51662,0.00000,0.00000,0.00000,27,6,63,27,28,6,73,9,ok,0,0,0.001,3,2.19,0.48,9.37,21,0.114,8.02
2.8188,0.12915,0.10297,0.51662,0.00000,0.00000,0.00000,29,5,63,29,28,6,73,11,ok,0,0,0.001,3,2.19,0.48,9.37,21,0.127,8.02
2.8235,0.12915,0.10297,0.51662,0.00000,0.00000,0.00000,30,4,64,27,30,4,73,12,ok,0,0,0.001,3,2.19,0.48,9.37,21,0.139,8.02
2.8360,0.12915,0.10297,0.51662,0.00000,0.00000,0.00000,31,3,67,24,31,4,74,15,ok,0,0,0.001,3,2.19,0.48,9.37,21,0.152,8.02
2.8588,0.12915,0.10297,0.51662,0.00000,0.00000,0.00000,32,3,70,21,32,3,74,16,ok,0,0,0.001,3,2.19,0.48,9.37,21,0.164,8.02
2.8620,0.12915,0.10297,0.51662,0.00000,0.00000,0.00000,34,2,71,17,33,3,73,17,ok,0,0,0.001,3,2.19,0.48,9.37,21,0.178,8.02
2.8745,0.12915,0.10297,0.51662,0.00000,0.00000,0.00000,35,2,71,15,34,2,73,19,ok,0,0,0.001,3,2.19,0.48,9.37,21,0.191,8.02
2.8948,0.02443,-0.04014,0.45553,0.00000,0.00000,0.00000,37,1,71,14,37,2,74,20,ok,0,0,0.001,3,-0.86,-0.40,9.42,22,0.000,8.02
2.8996,0.02443,-0.04014,0.45553,0.00000,0.00000,0.00000,38,1,71,11,37,2,73,22,ok,0,0,0.001,3,-0.86,-0.40,9.42,22,0.013,8.02
2.9120,0.02443,-0.04014,0.45553,0.00000,0.00000,0.00000,40,0,71,8,39,2,73,24,ok,0,0,0.001,3,-0.86,-0.40,9.42,22,0.025,8.02
2.9348,0.02443,-0.04014,0.45553,0.00000,0.00000,0.00000,41,0,70,6,40,1,73,25,ok,0,0,0.001,3,-0.86,-0.40,9.42,22,0.038,8.02
2.9380,0.02443,-0.04014,0.45553,0.00000,0.00000,0.00000,42,0,70,3,41,1,73,26,ok,0,0,0.001,3,-0.86,-0.40,9.42,22,0.051,8.02
2.9505,0.02443,-0.04014,0.45553,0.00000,0.00000,0.00000,43,-1,69,1,42,1,73,28,ok,0,0,0.001,3,-0.86,-0.40,9.42,22,0.063,8.02
2.9708,0.02443,-0.04014,0.45553,0.00000,0.00000,0.00000,45,0,68,0,43,1,72,29,ok,0,0,0.001,3,-0.86,-0.40,9.42,22,0.076,8.02
2.9756,0.02443,-0.04014,0.45553,0.00000,0.00000,0.00000,45,0,66,-2,44,0,74,29,ok,0,0,0.001,3,-0.86,-0.40,9.42,22,0.088,8.02
2.9882,0.02443,-0.04014,0.45553,0.00000,0.00000,0.00000,47,0,65,-4,46,0,75,28,ok,0,0,0.001,3,-0.86,-0.40,9.42,22,0.101,8.02
3.0108,0.02443,-0.04014,0.45553,0.00000,0.00000,0.00000,48,0,64,-6,47,0,76,26,ok,0,0,0.001,3,-0.86,-0.40,9.42,22,0.113,8.02
3.0139,0.02443,-0.04014,0.45553,0.00000,0.00000,0.00000,49,1,62,-7,48,0,78,20,ok,0,0,0.001,3,-0.86,-0.40,9.42,22,0.127,8.02
3.0266,0.02443,-0.04014,0.45553,0.00000,0.00000,0.00000,50,1,59,-8,49,0,79,17,ok,0,0,0.001,3,-0.86,-0.40,9.42,22,0.140,8.02
3.0469,0.02443,-0.04014,0.45553,0.00000,0.00000,0.00000,51,1,57,-8,50,0,81,13,ok,0,0,0.001,3,-0.86,-0.40,9.42,22,0.152,8.02
3.0516,0.02443,-0.04014,0.45553,0.00000,0.00000,0.00000,51,3,54,-9,51,0,81,13,ok,0,0,0.001,3,-0.86,-0.40,9.42,22,0.165,8.02
3.0642,0.02443,-0.04014,0.45553,0.00000,0.00000,0.00000,52,4,51,-9,52,0,81,10,ok,2,0,0.001,3,-0.86,-0.40,9.42,22,0.177,8.02
3.0868,0.02443,-0.04014,0.45553,0.00000,0.00000,0.00000,53,4,49,-9,54,0,81,7,ok,2,0,0.001,3,-0.86,-0.40,9.42,22,0.190,8.02
3.0902,-0.09425,0.00524,0.56898,0.00000,0.00000,0.00000,53,5,46,-9,54,1,80,3,ok,2,0,0.001,3,-0.42,-0.79,9.02,23,0.000,8.02
3.1025,-0.09425,0.00524,0.56898,0.00000,0.00000,0.00000,54,6,43,-9,55,1,80,2,ok,2,0,0.001,3,-0.42,-0.79,9.02,23,0.013,8.02
3.1228,-0.09425,0.00524,0.56898,0.00000,0.00000,0.00000,56,6,41,-9,56,1,78,-1,ok,2,0,0.001,3,-0.42,-0.79,9.02,23,0.025,8.02
3.1277,-0.09425,0.00524,0.56898,0.00000,0.00000,0.00000,56,6,38,-8,58,0,78,-3,ok,2,0,0.001,3,-0.42,-0.79,9.02,23,0.038,8.02
3.1401,-0.09425,0.00524,0.56898,0.00000,0.00000,0.00000,58,7,35,-7,58,1,77,-5,ok,2,0,0.001,3,-0.42,-0.79,9.02,23,0.050,8.02
3.1628,-0.09425,0.00524,0.56898,0.00000,0.00000,0.00000,58,8,33,-6,59,1,75,-7,ok,2,0,0.001,3,-0.42,-0.79,9.02,23,0.063,8.02
3.1659,-0.09425,0.00524,0.56898,0.00000,0.00000,0.00000,59,8,29,-5,60,1,72,-7,ok,2,0,0.001,3,-0.42,-0.79,9.02,23,0.076,8.02
3.1785,-0.09425,0.00524,0.56898,0.00000,0.00000,0.00000,60,9,26,-3,61,1,71,-9,ok,2,0,0.001,3,-0.42,-0.79,9.02,23,0.089,8.02
3.1988,-0.09425,0.00524,0.56898,0.00000,0.00000,0.00000,61,10,22,-1,62,1,70,-11,ok,2,0,0.001,3,-0.42,-0.79,9.02,23,0.101,8.02
3.2036,-0.09425,0.00524,0.56898,0.00000,0.00000,0.00000,61,10,20,0,64,-1,67,-12,ok,2,0,0.001,3,-0.42,-0.79,9.02,23,0.114,8.02
3.2161,-0.09425,0.00524,0.56898,0.00000,0.00000,0.00000,62,11,18,1,64,0,65,-13,ok,2,0,0.001,3,-0.42,-0.79,9.02,23,0.126,8.02
3.2389,-0.09425,0.00524,0.56898,0.00000,0.00000,0.00000,63,11,16,4,65,0,63,-13,ok,2,0,0.001,3,-0.42,-0.79,9.02,23,0.139,8.02
3.2421,-0.09425,0.00524,0.56898,0.00000,0.00000,0.00000,63,12,14,7,66,0,60,-14,ok,2,0,0.001,3,-0.42,-0.79,9.02,23,0.152,8.02
3.2548,-0.09425,0.00524,0.56898,0.00000,0.00000,0.00000,63,13,13,10,66,0,59,-14,ok,2,0,0.001,3,-0.42,-0.79,9.02,23,0.165,8.02
3.2748,-0.09425,0.00524,0.56898,0.00000,0.00000,0.00000,64,14,11,12,67,0,55,-13,ok,2,0,0.001,3,-0.42,-0.79,9.02,23,0.177,8.02
3.2797,-0.09425,0.00524,0.56898,0.00000,0.00000,0.00000,64,15,13,13,67,1,53,-12,ok,2,0,0.001,3,-0.42,-0.79,9.02,23,0.190,8.02
3.2924,-0.02793,0.02269,0.57421,0.00000,0.00000,0.00000,65,16,12,13,68,1,50,-12,ok,2,0,0.001,3,0.66,0.78,8.81,24,0.000,8.02
3.3148,-0.02793,0.02269,0.57421,0.00000,0.00000,0.00000,65,16,14,11,68,1,47,-11,ok,2,0,0.001,3,0.66,0.78,8.81,24,0.012,8.02
3.3179,-0.02793,0.02269,0.57421,0.00000,0.00000,0.00000,65,17,15,11,69,2,45,-11,ok,2,0,0.001,3,0.66,0.78,8.81,24,0.026,8.02
3.3305,-0.02793,0.02269,0.57421,0.00000,0.00000,0.00000,66,18,16,10,69,3,42,-9,ok,2,0,0.001,3,0.66,0.78,8.81,24,0.038,8.02
3.3508,-0.02793,0.02269,0.57421,0.00000,0.00000,0.00000,66,18,17,9,70,4,39,-9,ok,2,0,0.001,3,0.66,0.78,8.81,24,0.051,8.02
3.3556,-0.02793,0.02269,0.57421,0.00000,0.00000,0.00000,66,20,18,9,70,5,35,-7,ok,2,0,0.001,3,0.66,0.78,8.81,24,0.063,8.02
3.3681,-0.02793,0.02269,0.57421,0.00000,0.00000,0.00000,67,21,20,8,71,5,34,-5,ok,2,0,0.001,3,0.66,0.78,8.81,24,0.076,8.02
3.3908,-0.02793,0.02269,0.57421,0.00000,0.00000,0.00000,67,22,21,7,71,6,32,-4,ok,2,0,0.001,3,0.66,0.78,8.81,24,0.088,8.02
3.3941,-0.02793,0.02269,0.57421,0.00000,0.00000,0.00000,67,23,22,6,71,8,30,-1,ok,2,0,0.001,3,0.66,0.78,8.81,24,0.102,8.02
3.4066,-0.02793,0.02269,0.57421,0.00000,0.00000,0.00000,67,24,23,6,71,8,29,2,ok,2,0,0.001,3,0.66,0.78,8.81,24,0.114,8.02
3.4268,-0.02793,0.02269,0.57421,0.00000,0.00000,0.00000,66,25,25,5,71,9,27,5,ok,2,0,0.001,3,0.66,0.78,8.81,24,0.127,8.02
3.4316,-0.02793,0.02269,0.57421,0.00000,0.00000,0.00000,66,28,26,5,71,10,27,7,ok,2,0,0.001,3,0.66,0.78,8.81,24,0.139,8.02
3.4440,-0.02793,0.02269,0.57421,0.00000,0.00000,0.00000,65,29,27,4,71,12,29,6,ok,2,0,0.001,3,0.66,0.78,8.81,24,0.152,8.02
3.4668,-0.02793,0.02269,0.57421,0.00000,0.00000,0.00000,66,28,28,4,71,13,29,6,ok,2,0,0.001,3,0.66,0.78,8.81,24,0.164,8.02
3.4700,-0.02793,0.02269,0.57421,0.00000,0.00000,0.00000,68,25,30,3,72,15,31,4,ok,2,0,0.001,3,0.66,0.78,8.81,24,0.178,8.02
3.4829,-0.02793,0.02269,0.57421,0.00000,0.00000,0.00000,71,21,31,2,71,16,32,3,ok,2,0,0.001,3,0.66,0.78,8.81,24,0.190,8.02
3.5028,-0.05236,0.05061,0.68242,0.00000,0.00000,0.00000,72,17,33,2,71,18,33,3,ok,2,0,0.001,3,0.52,-0.72,10.90,25,0.000,8.02
3.5076,-0.05236,0.05061,0.68242,0.00000,0.00000,0.00000,72,15,34,2,72,19,34,2,ok,2,0,0.001,3,0.52,-0.72,10.90,25,0.012,8.02
3.5201,-0.05236,0.05061,0.68242,0.00000,0.00000,0.00000,72,14,35,2,71,21,36,1,ok,2,0,0.001,3,0.52,-0.72,10.90,25,0.025,8.02
3.5428,-0.05236,0.05061,0.68242,0.00000,0.00000,0.00000,72,11,36,2,71,22,38,1,ok,2,0,0.001,3,0.52,-0.72,10.90,25,0.038,8.02
3.5459,-0.05236,0.05061,0.68242,0.00000,0.00000,0.00000,71,7,38,2,71,24,39,2,ok,2,0,0.001,3,0.52,-0.72,10.90,25,0.051,8.02
3.5587,-0.05236,0.05061,0.68242,0.00000,0.00000,0.00000,70,5,39,2,71,26,40,1,ok,2,0,0.001,3,0.52,-0.72,10.90,25,0.063,8.02
3.5789,-0.05236,0.05061,0.68242,0.00000,0.00000,0.00000,69,1,40,2,70,28,42,2,ok,2,0,0.001,4,0.52,-0.72,10.90,25,0.076,8.02
3.5836,-0.05236,0.05061,0.68242,0.00000,0.00000,0.00000,68,-1,42,1,70,29,43,2,ok,2,0,0.001,4,0.52,-0.72,10.90,25,0.088,8.02
3.5961,-0.05236,0.05061,0.68242,0.00000,0.00000,0.00000,67,-3,43,2,71,29,44,1,ok,2,0,0.001,4,0.52,-0.72,10.90,25,0.101,8.02
3.6188,-0.05236,0.05061,0.68242,0.00000,0.00000,0.00000,65,-4,44,2,72,29,45,1,ok,2,0,0.001,4,0.52,-0.72,10.90,25,0.114,8.02
3.6221,-0.05236,0.05061,0.68242,0.00000,0.00000,0.00000,64,-6,45,2,74,26,46,0,ok,2,0,0.001,4,0.52,-0.72,10.90,25,0.127,8.02
3.6346,-0.05236,0.05061,0.68242,0.00000,0.00000,0.00000,63,-8,46,2,76,22,47,0,ok,2,0,0.001,4,0.52,-0.72,10.90,25,0.140,8.02
3.6548,-0.05236,0.05061,0.68242,0.00000,0.00000,0.00000,60,-9,48,3,77,17,49,0,ok,2,0,0.001,4,0.52,-0.72,10.90,25,0.152,8.02
3.6596,-0.05236,0.05061,0.68242,0.00000,0.00000,0.00000,58,-10,49,3,79,14,49,0,ok,2,0,0.001,4,0.52,-0.72,10.90,25,0.164,8.02
3.6720,-0.05236,0.05061,0.68242,0.00000,0.00000,0.00000,56,-11,50,3,79,14,50,1,ok,2,0,0.001,4,0.52,-0.72,10.90,25,0.177,8.02
3.6948,-0.05236,0.05061,0.68242,0.00000,0.00000,0.00000,54,-12,50,5,79,11,51,1,ok,2,0,0.001,4,0.52,-0.72,10.90,25,0.190,8.02
3.6982,0.06109,-0.00175,0.68591,0.00000,0.00000,0.00000,51,-12,52,6,79,8,52,1,ok,2,0,0.001,4,-0.08,0.61,10.83,26,0.000,8.02
3.7107,0.06109,-0.00175,0.68591,0.00000,0.00000,0.00000,48,-12,52,5,78,5,53,0,ok,2,0,0.001,4,-0.08,0.61,10.83,26,0.013,8.02
3.7308,0.06109,-0.00175,0.68591,0.00000,0.00000,0.00000,46,-11,53,6,77,3,54,0,ok,2,0,0.001,4,-0.08,0.61,10.83,26,0.025,8.02
3.7356,0.06109,-0.00175,0.68591,0.00000,0.00000,0.00000,43,-11,54,7,77,-1,54,0,ok,2,0,0.001,4,-0.08,0.61,10.83,26,0.038,8.02
3.7481,0.06109,-0.00175,0.68591,0.00000,0.00000,0.00000,41,-11,56,7,76,-3,55,-1,ok,2,0,0.001,4,-0.08,0.61,10.83,26,0.050,8.02
3.7708,0.06109,-0.00175,0.68591,0.00000,0.00000,0.00000,39,-10,56,7,75,-4,56,0,ok,2,0,0.001,4,-0.08,0.61,10.83,26,0.063,8.02
3.7741,0.06109,-0.00175,0.68591,0.00000,0.00000,0.00000,36,-9,57,7,73,-7,57,-1,ok,2,0,0.001,4,-0.08,0.61,10.83,26,0.076,8.02
3.7867,0.06109,-0.00175,0.68591,0.00000,0.00000,0.00000,33,-8,57,8,71,-7,57,0,ok,2,0,0.001,4,-0.08,0.61,10.83,26,0.089,8.02
3.8068,0.06109,-0.00175,0.68591,0.00000,0.00000,0.00000,30,-6,58,8,69,-9,58,0,ok,2,0,0.001,4,-0.08,0.61,10.83,26,0.101,8.02
3.8117,0.06109,-0.00175,0.68591,0.00000,0.00000,0.00000,27,-4,59,9,68,-11,59,1,ok,2,0,0.001,4,-0.08,0.61,10.83,26,0.114,8.02
3.8241,0.06109,-0.00175,0.68591,0.00000,0.00000,0.00000,23,-1,60,11,66,-12,60,0,ok,2,0,0.001,4,-0.08,0.61,10.83,26,0.126,8.02
3.8468,0.06109,-0.00175,0.68591,0.00000,0.00000,0.00000,21,-1,61,11,64,-13,61,0,ok,2,0,0.001,4,-0.08,0.61,10.83,26,0.139,8.02
3.8499,0.06109,-0.00175,0.68591,0.00000,0.00000,0.00000,19,1,62,11,62,-13,63,-2,ok,2,0,0.001,4,-0.08,0.61,10.83,26,0.152,8.02
3.8626,0.06109,-0.00175,0.68591,0.00000,0.00000,0.00000,17,3,62,12,59,-14,64,-1,ok,2,0,0.001,4,-0.08,0.61,10.83,26,0.165,8.02
3.8828,0.06109,-0.00175,0.68591,0.00000,0.00000,0.00000,15,7,63,13,57,-14,65,-1,ok,2,0,0.001,4,-0.08,0.61,10.83,26,0.177,8.02
3.8878,0.07505,-0.01396,0.70860,0.00000,0.00000,0.00000,13,10,63,14,54,-13,65,-1,ok,2,0,0.001,4,0.92,0.18,10.21,27,0.000,8.02
3.9001,0.07505,-0.01396,0.70860,0.00000,0.00000,0.00000,12,13,63,15,52,-13,66,-1,ok,2,0,0.001,4,0.92,0.18,10.21,27,0.013,8.02
3.9228,0.07505,-0.01396,0.70860,0.00000,0.00000,0.00000,13,13,64,16,49,-13,67,0,ok,2,0,0.001,4,0.92,0.18,10.21,27,0.025,8.02
3.9259,0.07505,-0.01396,0.70860,0.00000,0.00000,0.00000,13,13,64,17,46,-11,67,-1,ok,2,0,0.001,4,0.92,0.18,10.21,27,0.038,8.02
3.9386,0.07505,-0.01396,0.70860,0.00000,0.00000,0.00000,15,12,64,17,44,-11,68,0,ok,0,0,0.001,4,0.92,0.18,10.21,27,0.051,8.02
3.9588,0.07505,-0.01396,0.70860,0.00000,0.00000,0.00000,16,12,65,18,41,-10,69,0,ok,0,0,0.001,4,0.92,0.18,10.21,27,0.064,8.02
3.9636,0.07505,-0.01396,0.70860,0.00000,0.00000,0.00000,17,11,65,19,38,-9,70,2,ok,0,0,0.001,4,0.92,0.18,10.21,27,0.076,8.02
3.9762,0.07505,-0.01396,0.70860,0.00000,0.00000,0.00000,19,10,65,20,35,-8,70,2,ok,0,0,0.001,4,0.92,0.18,10.21,27,0.089,8.02
3.9988,0.07505,-0.01396,0.70860,0.00000,0.00000,0.00000,19,10,65,21,33,-6,71,3,ok,0,0,0.001,4,0.92,0.18,10.21,27,0.101,8.02
4.0019,0.07505,-0.01396,0.70860,0.00000,0.00000,0.00000,21,9,66,21,31,-5,71,4,ok,0,0,0.001,4,0.92,0.18,10.21,27,0.114,8.02
4.0146,0.07505,-0.01396,0.70860,0.00000,0.00000,0.00000,23,8,66,22,29,-2,72,5,ok,0,0,0.001,4,0.92,0.18,10.21,27,0.127,8.02
4.0348,0.07505,-0.01396,0.70860,0.00000,0.00000,0.00000,24,7,65,23,27,1,72,6,ok,0,0,0.001,4,0.92,0.18,10.21,27,0.140,8.02
4.0397,0.07505,-0.01396,0.70860,0.00000,0.00000,0.00000,25,6,65,24,26,4,72,7,ok,0,0,0.001,4,0.92,0.18,10.21,27,0.152,8.02
4.0522,0.07505,-0.01396,0.70860,0.00000,0.00000,0.00000,27,6,65,25,26,6,72,8,ok,0,0,0.001,4,0.92,0.18,10.21,27,0.165,8.02
4.0748,0.07505,-0.01396,0.70860,0.00000,0.00000,0.00000,28,5,64,28,28,6,73,9,ok,0,0,0.001,4,0.92,0.18,10.21,27,0.177,8.02
4.0779,0.07505,-0.01396,0.70860,0.00000,0.00000,0.00000,29,4,64,29,28,6,73,11,ok,0,0,0.001,4,0.92,0.18,10.21,27,0.190,8.02
4.0910,0.07505,-0.01396,0.70860,0.00000,0.00000,0.00000,30,4,65,28,29,3,73,12,ok,0,0,0.001,4,0.92,0.18,10.21,27,0.203,8.02
4.1108,0.05760,0.06283,0.68766,0.00000,0.00000,0.00000,31,3,67,25,30,3,73,14,ok,0,0,0.001,4,0.84,0.92,10.71,28,0.000,8.02
4.1156,0.05760,0.06283,0.68766,0.00000,0.00000,0.00000,32,3,70,21,31,3,73,16,ok,0,0,0.001,4,0.84,0.92,10.71,28,0.012,8.02
4.1281,0.05760,0.06283,0.68766,0.00000,0.00000,0.00000,34,2,71,17,33,2,73,17,ok,0,0,0.001,4,0.84,0.92,10.71,28,0.025,8.02
4.1508,0.05760,0.06283,0.68766,0.00000,0.00000,0.00000,35,2,71,15,34,1,73,20,ok,0,0,0.001,4,0.84,0.92,10.71,28,0.037,8.02
4.1539,0.05760,0.06283,0.68766,0.00000,0.00000,0.00000,37,1,71,14,36,2,74,20,ok,0,0,0.001,4,0.84,0.92,10.71,28,0.051,8.02
4.1666,0.05760,0.06283,0.68766,0.00000,0.00000,0.00000,38,1,71,11,37,2,73,22,ok,0,0,0.001,4,0.84,0.92,10.71,28,0.063,8.02
4.1868,0.05760,0.06283,0.68766,0.00000,0.00000,0.00000,40,1,71,8,38,2,72,23,ok,0,0,0.001,4,0.84,0.92,10.71,28,0.076,8.02
4.1916,0.05760,0.06283,0.68766,0.00000,0.00000,0.00000,41,1,70,5,40,1,73,25,ok,0,0,0.001,4,0.84,0.92,10.71,28,0.088,8.02
4.2042,0.05760,0.06283,0.68766,0.00000,0.00000,0.00000,43,0,69,3,41,2,73,26,ok,0,0,0.001,4,0.84,0.92,10.71,28,0.101,8.02
4.2268,0.05760,0.06283,0.68766,0.00000,0.00000,0.00000,44,0,68,1,42,1,72,28,ok,0,0,0.001,4,0.84,0.92,10.71,28,0.113,8.02
4.2299,0.05760,0.06283,0.68766,0.00000,0.00000,0.00000,45,0,67,-1,43,1,72,29,ok,0,0,0.001,4,0.84,0.92,10.71,28,0.127,8.02
4.2426,0.05760,0.06283,0.68766,0.00000,0.00000,0.00000,46,0,65,-2,45,0,73,29,ok,0,0,0.001,4,0.84,0.92,10.71,28,0.139,8.02
4.2629,0.05760,0.06283,0.68766,0.00000,0.00000,0.00000,47,1,64,-4,46,1,74,28,ok,0,0,0.001,4,0.84,0.92,10.71,28,0.152,8.02
4.2678,0.05760,0.06283,0.68766,0.00000,0.00000,0.00000,48,1,63,-6,47,1,76,26,ok,0,0,0.001,4,0.84,0.92,10.71,28,0.164,8.02
4.2800,0.05760,0.06283,0.68766,0.00000,0.00000,0.00000,50,2,61,-7,48,1,78,21,ok,0,0,0.001,4,0.84,0.92,10.71,28,0.177,8.02
4.3028,0.05760,0.06283,0.68766,0.00000,0.00000,0.00000,51,1,59,-8,49,1,79,17,ok,0,0,0.001,4,0.84,0.92,10.71,28,0.189,8.02
4.3062,-0.09599,-0.01571,0.76794,0.00000,0.00000,0.00000,51,1,56,-8,50,1,81,14,ok,0,0,0.001,4,-0.28,-0.52,10.23,29,0.000,8.02
4.3186,-0.09599,-0.01571,0.76794,0.00000,0.00000,0.00000,52,3,54,-9,51,0,81,14,ok,2,0,0.001,4,-0.28,-0.52,10.23,29,0.013,8.02
4.3388,-0.09599,-0.01571,0.76794,0.00000,0.00000,0.00000,53,4,51,-9,52,0,81,11,ok,2,0,0.001,4,-0.28,-0.52,10.23,29,0.025,8.02
4.3437,-0.09599,-0.01571,0.76794,0.00000,0.00000,0.00000,54,4,48,-9,54,0,81,8,ok,2,0,0.001,4,-0.28,-0.52,10.23,29,0.038,8.02
4.3560,-0.09599,-0.01571,0.76794,0.00000,0.00000,0.00000,54,5,46,-8,55,1,80,4,ok,2,0,0.001,4,-0.28,-0.52,10.23,29,0.050,8.02
4.3788,-0.09599,-0.01571,0.76794,0.00000,0.00000,0.00000,54,5,43,-9,55,1,80,2,ok,2,0,0.001,4,-0.28,-0.52,10.23,29,0.063,8.02
4.3819,-0.09599,-0.01571,0.76794,0.00000,0.00000,0.00000,56,6,41,-9,56,1,79,-1,ok,2,0,0.001,4,-0.28,-0.52,10.23,29,0.076,8.02
4.3946,-0.09599,-0.01571,0.76794,0.00000,0.00000,0.00000,57,6,39,-8,58,1,79,-3,ok,2,0,0.001,4,-0.28,-0.52,10.23,29,0.089,8.02
4.4148,-0.09599,-0.01571,0.76794,0.00000,0.00000,0.00000,58,7,35,-7,58,1,77,-4,ok,2,0,0.001,4,-0.28,-0.52,10.23,29,0.101,8.02
4.4196,-0.09599,-0.01571,0.76794,0.00000,0.00000,0.00000,58,7,33,-6,59,1,75,-7,ok,2,0,0.001,4,-0.28,-0.52,10.23,29,0.114,8.02
4.4320,-0.09599,-0.01571,0.76794,0.00000,0.00000,0.00000,59,8,29,-5,60,2,72,-7,ok,2,0,0.001,4,-0.28,-0.52,10.23,29,0.126,8.02
4.4548,-0.09599,-0.01571,0.76794,0.00000,0.00000,0.00000,60,9,26,-3,61,1,71,-9,ok,2,0,0.001,4,-0.28,-0.52,10.23,29,0.139,8.02
4.4580,-0.09599,-0.01571,0.76794,0.00000,0.00000,0.00000,61,10,22,-1,62,1,69,-11,ok,2,0,0.001,4,-0.28,-0.52,10.23,29,0.152,8.02
4.4705,-0.09599,-0.01571,0.76794,0.00000,0.00000,0.00000,62,10,20,0,64,-1,67,-12,ok,2,0,0.001,4,-0.28,-0.52,10.23,29,0.165,8.02
4.4908,-0.09599,-0.01571,0.76794,0.00000,0.00000,0.00000,63,11,18,1,64,-1,65,-13,ok,2,0,0.001,4,-0.28,-0.52,10.23,29,0.177,8.02
4.4957,-0.09599,-0.01571,0.76794,0.00000,0.00000,0.00000,63,11,16,4,65,0,63,-13,ok,2,0,0.001,4,-0.28,-0.52,10.23,29,0.190,8.02
4.5083,-0.03840,0.00175,0.79762,0.00000,0.00000,0.00000,64,12,14,7,65,0,61,-14,ok,2,0,0.001,4,-0.50,0.29,9.28,30,0.000,8.02
4.5308,-0.03840,0.00175,0.79762,0.00000,0.00000,0.00000,64,13,13,10,66,1,59,-14,ok,2,0,0.001,4,-0.50,0.29,9.28,30,0.012,8.02
4.5341,-0.03840,0.00175,0.79762,0.00000,0.00000,0.00000,64,14,11,12,67,1,56,-13,ok,2,0,0.001,4,-0.50,0.29,9.28,30,0.026,8.02
4.5466,-0.03840,0.00175,0.79762,0.00000,0.00000,0.00000,65,15,13,13,67,1,53,-12,ok,2,0,0.001,4,-0.50,0.29,9.28,30,0.039,8.02
4.5668,-0.03840,0.00175,0.79762,0.00000,0.00000,0.00000,65,16,12,13,68,1,51,-12,ok,2,0,0.001,4,-0.50,0.29,9.28,30,0.051,8.02
4.5716,-0.03840,0.00175,0.79762,0.00000,0.00000,0.00000,66,17,14,12,68,1,47,-11,ok,2,0,0.001,4,-0.50,0.29,9.28,30,0.064,8.02
4.5842,-0.03840,0.00175,0.79762,0.00000,0.00000,0.00000,66,18,15,11,69,2,45,-10,ok,2,0,0.001,5,-0.50,0.29,9.28,30,0.076,8.02
4.6068,-0.03840,0.00175,0.79762,0.00000,0.00000,0.00000,66,18,15,10,69,3,42,-9,ok,2,0,0.001,5,-0.50,0.29,9.28,30,0.089,8.02
4.6099,-0.03840,0.00175,0.79762,0.00000,0.00000,0.00000,67,19,17,9,70,3,39,-9,ok,2,0,0.001,5,-0.50,0.29,9.28,30,0.102,8.02
4.6228,-0.03840,0.00175,0.79762,0.00000,0.00000,0.00000,67,20,17,9,70,5,36,-7,ok,2,0,0.001,5,-0.50,0.29,9.28,30,0.115,8.02
4.6428,-0.03840,0.00175,0.79762,0.00000,0.00000,0.00000,68,21,19,8,71,5,34,-5,ok,2,0,0.001,5,-0.50,0.29,9.28,30,0.127,8.02
4.6476,-0.03840,0.00175,0.79762,0.00000,0.00000,0.00000,68,22,21,7,71,6,32,-4,ok,2,0,0.001,5,-0.50,0.29,9.28,30,0.139,8.02
4.6601,-0.03840,0.00175,0.79762,0.00000,0.00000,0.00000,67,23,22,7,70,8,30,-1,ok,2,0,0.001,5,-0.50,0.29,9.28,30,0.152,8.02
4.6828,-0.03840,0.00175,0.79762,0.00000,0.00000,0.00000,67,24,23,6,71,8,29,2,ok,2,0,0.001,5,-0.50,0.29,9.28,30,0.165,8.02
4.6859,-0.03840,0.00175,0.79762,0.00000,0.00000,0.00000,67,25,25,5,71,9,28,5,ok,2,0,0.001,5,-0.50,0.29,9.28,30,0.178,8.02
4.6988,-0.03840,0.00175,0.79762,0.00000,0.00000,0.00000,66,28,26,5,71,10,27,7,ok,2,0,0.001,5,-0.50,0.29,9.28,30,0.191,8.02
4.7188,-0.00524,0.05934,0.86743,0.00000,0.00000,0.00000,65,29,27,4,71,12,29,6,ok,2,0,0.001,5,0.75,-0.83,9.19,31,0.000,8.02
4.7235,-0.00524,0.05934,0.86743,0.00000,0.00000,0.00000,67,28,28,4,71,13,29,6,ok,2,0,0.001,5,0.75,-0.83,9.19,31,0.012,8.02
4.7361,-0.00524,0.05934,0.86743,0.00000,0.00000,0.00000,69,25,30,3,72,15,31,4,ok,2,0,0.001,5,0.75,-0.83,9.19,31,0.025,8.02
4.7588,-0.00524,0.05934,0.86743,0.00000,0.00000,0.00000,71,21,31,2,71,16,32,3,ok,2,0,0.001,5,0.75,-0.83,9.19,31,0.038,8.02
4.7619,-0.00524,0.05934,0.86743,0.00000,0.00000,0.00000,72,17,32,2,71,18,33,3,ok,2,0,0.001,5,0.75,-0.83,9.19,31,0.051,8.02
4.7746,-0.00524,0.05934,0.86743,0.00000,0.00000,0.00000,72,15,33,2,72,19,34,2,ok,2,0,0.001,5,0.75,-0.83,9.19,31,0.063,8.02
4.7948,-0.00524,0.05934,0.86743,0.00000,0.00000,0.00000,72,14,35,2,71,21,36,1,ok,2,0,0.001,5,0.75,-0.83,9.19,31,0.076,8.02
4.7996,-0.00524,0.05934,0.86743,0.00000,0.00000,0.00000,72,11,36,2,71,22,38,1,ok,2,0,0.001,5,0.75,-0.83,9.19,31,0.088,8.02
4.8121,-0.00524,0.05934,0.86743,0.00000,0.00000,0.00000,71,8,37,2,71,24,39,2,ok,2,0,0.001,5,0.75,-0.83,9.19,31,0.101,8.02
4.8348,-0.00524,0.05934,0.86743,0.00000,0.00000,0.00000,71,5,39,2,71,26,41,2,ok,2,0,0.001,5,0.75,-0.83,9.19,31,0.113,8.02
4.8379,-0.00524,0.05934,0.86743,0.00000,0.00000,0.00000,70,1,40,2,70,28,42,2,ok,2,0,0.001,5,0.75,-0.83,9.19,31,0.127,8.02
4.8507,-0.00524,0.05934,0.86743,0.00000,0.00000,0.00000,69,-1,41,1,70,29,43,2,ok,2,0,0.001,5,0.75,-0.83,9.19,31,0.139,8.02
4.8708,-0.00524,0.05934,0.86743,0.00000,0.00000,0.00000,67,-3,43,2,71,29,44,1,ok,2,0,0.001,5,0.75,-0.83,9.19,31,0.152,8.02
4.8756,-0.00524,0.05934,0.86743,0.00000,0.00000,0.00000,65,-4,43,2,72,29,45,1,ok,2,0,0.001,5,0.75,-0.83,9.19,31,0.164,8.02
4.8881,-0.00524,0.05934,0.86743,0.00000,0.00000,0.00000,64,-6,45,2,74,26,46,0,ok,2,0,0.001,5,0.75,-0.83,9.19,31,0.177,8.02
4.9108,0.10123,0.02618,0.92677,0.00000,0.00000,0.00000,63,-8,46,2,76,22,48,0,ok,2,0,0.001,5,0.67,1.35,9.39,32,0.000,8.02
4.9139,0.10123,0.02618,0.92677,0.00000,0.00000,0.00000,61,-9,48,3,77,18,49,0,ok,2,0,0.001,5,0.67,1.35,9.39,32,0.013,8.02
4.9268,0.10123,0.02618,0.92677,0.00000,0.00000,0.00000,59,-10,49,3,78,15,50,0,ok,2,0,0.001,5,0.67,1.35,9.39,32,0.026,8.02
4.9468,0.10123,0.02618,0.92677,0.00000,0.00000,0.00000,56,-11,50,3,78,14,50,0,ok,2,0,0.001,5,0.67,1.35,9.39,32,0.038,8.02
4.9516,0.10123,0.02618,0.92677,0.00000,0.00000,0.00000,54,-12,50,5,78,12,51,0,ok,2,0,0.001,5,0.67,1.35,9.39,32,0.051,8.02
4.9640,0.10123,0.02618,0.92677,0.00000,0.00000,0.00000,51,-11,51,6,78,8,52,0,ok,2,0,0.001,5,0.67,1.35,9.39,32,0.064,8.02
4.9868,0.10123,0.02618,0.92677,0.00000,0.00000,0.00000,49,-11,52,5,78,5,53,0,ok,2,0,0.001,5,0.67,1.35,9.39,32,0.076,8.02
4.9899,0.10123,0.02618,0.92677,0.00000,0.00000,0.00000,47,-11,53,6,77,3,54,0,ok,2,0,0.001,5,0.67,1.35,9.39,32,0.089,8.02
5.0026,0.10123,0.02618,0.92677,0.00000,0.00000,0.00000,44,-11,53,7,76,0,55,1,ok,2,0,0.001,5,0.67,1.35,9.39,32,0.102,8.02
5.0308,0.10123,0.02618,0.92677,0.00000,0.00000,0.00000,42,-11,55,7,76,-3,55,0,ok,2,0,0.001,5,0.67,1.35,9.39,32,0.115,8.02
5.0339,0.10123,0.02618,0.92677,0.00000,0.00000,0.00000,40,-10,55,7,75,-4,57,1,ok,2,0,0.001,5,0.67,1.35,9.39,32,0.133,8.02
5.0465,0.10123,0.02618,0.92677,0.00000,0.00000,0.00000,37,-9,57,7,73,-7,57,-1,ok,2,0,0.001,5,0.67,1.35,9.39,32,0.146,8.02
5.0668,0.10123,0.02618,0.92677,0.00000,0.00000,0.00000,34,-8,57,8,70,-7,58,0,ok,2,0,0.001,5,0.67,1.35,9.39,32,0.159,8.02
5.0716,0.10123,0.02618,0.92677,0.00000,0.00000,0.00000,30,-6,58,9,69,-9,58,0,ok,2,0,0.001,5,0.67,1.35,9.39,32,0.171,8.02
5.0841,0.10123,0.02618,0.92677,0.00000,0.00000,0.00000,28,-4,58,9,68,-10,60,1,ok,2,0,0.001,5,0.67,1.35,9.39,32,0.184,8.02
5.1068,0.10123,0.02618,0.92677,0.00000,0.00000,0.00000,24,-2,60,11,66,-12,60,0,ok,2,0,0.001,5,0.67,1.35,9.39,32,0.196,8.02
5.1103,0.10123,0.02618,0.92677,0.00000,0.00000,0.00000,22,-1,61,11,64,-12,61,0,ok,2,0,0.001,5,0.67,1.35,9.39,32,0.209,8.02
5.1232,0.04887,-0.02967,0.92852,0.00000,0.00000,0.00000,20,1,61,11,62,-13,64,-2,ok,2,0,0.001,5,-0.23,0.62,9.46,33,0.000,8.17
5.1428,0.04887,-0.02967,0.92852,0.00000,0.00000,0.00000,18,3,62,12,59,-14,64,-1,ok,2,0,0.001,5,-0.23,0.62,9.46,33,0.013,8.17
5.1475,0.04887,-0.02967,0.92852,0.00000,0.00000,0.00000,16,7,62,13,57,-14,65,-1,ok,2,0,0.001,5,-0.23,0.62,9.46,33,0.025,8.17
5.1601,0.04887,-0.02967,0.92852,0.00000,0.00000,0.00000,14,10,62,14,54,-13,66,0,ok,2,0,0.001,5,-0.23,0.62,9.46,33,0.038,8.17
5.1828,0.04887,-0.02967,0.92852,0.00000,0.00000,0.00000,12,12,63,15,52,-13,66,-1,ok,2,0,0.001,5,-0.23,0.62,9.46,33,0.050,8.17
5.1860,0.04887,-0.02967,0.92852,0.00000,0.00000,0.00000,14,13,63,16,49,-13,67,0,ok,2,0,0.001,5,-0.23,0.62,9.46,33,0.063,8.17
5.1985,0.04887,-0.02967,0.92852,0.00000,0.00000,0.00000,14,13,63,17,46,-11,68,0,ok,2,0,0.001,5,-0.23,0.62,9.46,33,0.076,8.17
5.2188,0.04887,-0.02967,0.92852,0.00000,0.00000,0.00000,15,12,64,17,44,-11,68,1,ok,2,0,0.001,5,-0.23,0.62,9.46,33,0.089,8.17
5.2236,0.04887,-0.02967,0.92852,0.00000,0.00000,0.00000,17,11,65,18,41,-10,69,1,ok,2,0,0.001,5,-0.23,0.62,9.46,33,0.101,8.17
5.2362,0.04887,-0.02967,0.92852,0.00000,0.00000,0.00000,17,11,65,19,38,-9,70,2,ok,2,0,0.001,5,-0.23,0.62,9.46,33,0.114,8.17
5.2588,0.04887,-0.02967,0.92852,0.00000,0.00000,0.00000,19,10,65,20,35,-8,70,2,ok,2,0,0.001,5,-0.23,0.62,9.46,33,0.126,8.17
5.2621,0.04887,-0.02967,0.92852,0.00000,0.00000,0.00000,20,10,65,21,33,-6,71,3,ok,2,0,0.001,5,-0.23,0.62,9.46,33,0.139,8.17
5.2745,0.04887,-0.02967,0.92852,0.00000,0.00000,0.00000,22,8,66,21,31,-5,71,5,ok,2,0,0.001,5,-0.23,0.62,9.46,33,0.152,8.17
5.2948,0.04887,-0.02967,0.92852,0.00000,0.00000,0.00000,23,8,66,23,29,-2,72,5,ok,2,0,0.001,5,-0.23,0.62,9.46,33,0.164,8.17
5.2997,0.04887,-0.02967,0.92852,0.00000,0.00000,0.00000,24,7,65,23,27,0,72,6,ok,2,0,0.001,5,-0.23,0.62,9.46,33,0.177,8.17
5.3122,0.04887,-0.02967,0.92852,0.00000,0.00000,0.00000,26,6,65,24,26,4,72,8,ok,0,0,0.001,5,-0.23,0.62,9.46,33,0.189,8.17
5.3348,-0.01745,-0.00524,0.92328,0.00000,0.00000,0.00000,27,6,65,25,26,6,72,9,ok,0,0,0.002,5,-0.64,-0.81,8.61,34,0.000,8.17
5.3380,-0.01745,-0.00524,0.92328,0.00000,0.00000,0.00000,28,5,64,28,27,6,73,10,ok,0,0,0.002,5,-0.64,-0.81,8.61,34,0.013,8.17
5.3505,-0.01745,-0.00524,0.92328,0.00000,0.00000,0.00000,29,4,63,29,28,5,73,12,ok,0,0,0.002,5,-0.64,-0.81,8.61,34,0.026,8.17
5.3708,-0.01745,-0.00524,0.92328,0.00000,0.00000,0.00000,30,4,65,28,29,3,73,13,ok,2,0,0.002,5,-0.64,-0.81,8.61,34,0.039,8.17
5.3756,-0.01745,-0.00524,0.92328,0.00000,0.00000,0.00000,32,3,67,25,30,3,73,15,ok,2,0,0.002,5,-0.64,-0.81,8.61,34,0.051,8.17
5.3882,-0.01745,-0.00524,0.92328,0.00000,0.00000,0.00000,33,3,70,21,31,3,73,16,ok,2,0,0.002,5,-0.64,-0.81,8.61,34,0.064,8.17
5.4108,-0.01745,-0.00524,0.92328,0.00000,0.00000,0.00000,35,2,71,17,33,2,73,18,ok,2,0,0.002,5,-0.64,-0.81,8.61,34,0.076,8.17
5.4141,-0.01745,-0.00524,0.92328,0.00000,0.00000,0.00000,36,2,71,15,34,1,73,20,ok,2,0,0.002,5,-0.64,-0.81,8.61,34,0.089,8.17
5.4265,-0.01745,-0.00524,0.92328,0.00000,0.00000,0.00000,37,1,71,15,36,1,74,20,ok,2,0,0.002,5,-0.64,-0.81,8.61,34,0.102,8.17
5.4468,-0.01745,-0.00524,0.92328,0.00000,0.00000,0.00000,38,1,71,11,37,1,73,22,ok,2,0,0.002,5,-0.64,-0.81,8.61,34,0.115,8.17
5.4516,-0.01745,-0.00524,0.92328,0.00000,0.00000,0.00000,40,1,71,8,38,2,72,24,ok,2,0,0.002,5,-0.64,-0.81,8.61,34,0.127,8.17
5.4641,-0.01745,-0.00524,0.92328,0.00000,0.00000,0.00000,41,1,70,6,40,1,73,25,ok,2,0,0.002,5,-0.64,-0.81,8.61,34,0.140,8.17
5.4868,-0.01745,-0.00524,0.92328,0.00000,0.00000,0.00000,43,0,69,3,41,2,73,26,ok,0,0,0.002,5,-0.64,-0.81,8.61,34,0.152,8.17
5.4901,-0.01745,-0.00524,0.92328,0.00000,0.00000,0.00000,44,0,68,1,42,1,72,28,ok,0,0,0.002,5,-0.64,-0.81,8.61,34,0.165,8.17
5.5024,-0.01745,-0.00524,0.92328,0.00000,0.00000,0.00000,46,0,67,0,43,1,72,29,ok,0,0,0.002,5,-0.64,-0.81,8.61,34,0.178,8.17
5.5228,-0.01745,-0.00524,0.92328,0.00000,0.00000,0.00000,46,0,65,-2,44,0,73,29,ok,2,0,0.002,5,-0.64,-0.81,8.61,34,0.191,8.17
5.5278,-0.00524,0.01222,0.94248,0.00000,0.00000,0.00000,48,1,64,-4,46,0,74,29,ok,0,0,0.002,5,0.17,-0.49,6.99,35,0.000,8.17
5.5401,-0.00524,0.01222,0.94248,0.00000,0.00000,0.00000,49,1,63,-6,47,0,76,26,ok,0,0,0.002,5,0.17,-0.49,6.99,35,0.013,8.17
5.5628,-0.00524,0.01222,0.94248,0.00000,0.00000,0.00000,50,2,61,-7,48,0,78,21,ok,2,0,0.002,5,0.17,-0.49,6.99,35,0.025,8.17
5.5659,-0.00524,0.01222,0.94248,0.00000,0.00000,0.00000,51,1,59,-8,49,0,79,17,ok,2,0,0.002,5,0.17,-0.49,6.99,35,0.038,8.17
5.5786,-0.00524,0.01222,0.94248,0.00000,0.00000,0.00000,52,2,56,-8,50,0,81,14,ok,2,0,0.002,5,0.17,-0.49,6.99,35,0.051,8.17
5.5988,-0.00524,0.01222,0.94248,0.00000,0.00000,0.00000,52,4,54,-9,51,0,81,13,ok,2,0,0.002,5,0.17,-0.49,6.99,35,0.064,8.17
5.6037,-0.00524,0.01222,0.94248,0.00000,0.00000,0.00000,53,5,51,-9,52,0,81,11,ok,2,0,0.002,6,0.17,-0.49,6.99,35,0.076,8.17
5.6161,-0.00524,0.01222,0.94248,0.00000,0.00000,0.00000,53,4,48,-9,54,0,81,7,ok,2,0,0.002,6,0.17,-0.49,6.99,35,0.089,8.17
5.6389,-0.00524,0.01222,0.94248,0.00000,0.00000,0.00000,54,5,46,-9,54,1,80,4,ok,2,0,0.002,6,0.17,-0.49,6.99,35,0.101,8.17
5.6420,-0.00524,0.01222,0.94248,0.00000,0.00000,0.00000,55,6,43,-9,55,1,80,2,ok,2,0,0.002,6,0.17,-0.49,6.99,35,0.114,8.17
5.6547,-0.00524,0.01222,0.94248,0.00000,0.00000,0.00000,57,6,41,-9,56,2,79,-2,ok,2,0,0.002,6,0.17,-0.49,6.99,35,0.127,8.17
5.6748,-0.00524,0.01222,0.94248,0.00000,0.00000,0.00000,57,6,38,-8,57,1,78,-3,ok,2,0,0.002,6,0.17,-0.49,6.99,35,0.140,8.17
5.6796,-0.00524,0.01222,0.94248,0.00000,0.00000,0.00000,58,7,35,-7,58,1,77,-5,ok,2,0,0.002,6,0.17,-0.49,6.99,35,0.152,8.17
5.6922,-0.00524,0.01222,0.94248,0.00000,0.00000,0.00000,59,8,32,-6,59,2,75,-7,ok,2,0,0.002,6,0.17,-0.49,6.99,35,0.165,8.17
5.7148,-0.00524,0.01222,0.94248,0.00000,0.00000,0.00000,59,8,29,-5,60,2,72,-7,ok,2,0,0.002,6,0.17,-0.49,6.99,35,0.177,8.17
5.7179,-0.00524,0.01222,0.94248,0.00000,0.00000,0.00000,60,9,26,-3,61,2,71,-9,ok,2,0,0.002,6,0.17,-0.49,6.99,35,0.190,8.17
5.7308,-0.00524,0.01222,0.94248,0.00000,0.00000,0.00000,62,10,21,-1,62,1,70,-11,ok,2,0,0.002,6,0.17,-0.49,6.99,35,0.203,8.17
5.7508,-0.09948,-0.01920,1.01404,0.00000,0.00000,0.00000,62,10,20,0,64,-1,68,-12,ok,2,0,0.002,6,-0.55,-0.53,9.46,36,0.000,8.17
5.7557,-0.09948,-0.01920,1.01404,0.00000,0.00000,0.00000,63,11,18,1,64,-1,65,-13,ok,2,0,0.002,6,-0.55,-0.53,9.46,36,0.012,8.17
5.7681,-0.09948,-0.01920,1.01404,0.00000,0.00000,0.00000,64,12,16,4,65,0,63,-13,ok,2,0,0.002,6,-0.55,-0.53,9.46,36,0.025,8.17
5.7948,-0.09948,-0.01920,1.01404,0.00000,0.00000,0.00000,64,12,14,7,65,0,61,-13,ok,2,0,0.002,6,-0.55,-0.53,9.46,36,0.037,8.17
5.7981,-0.09948,-0.01920,1.01404,0.00000,0.00000,0.00000,64,13,12,10,66,1,59,-14,ok,2,0,0.002,6,-0.55,-0.53,9.46,36,0.055,8.17
5.8105,-0.09948,-0.01920,1.01404,0.00000,0.00000,0.00000,65,14,11,13,67,0,56,-12,ok,2,0,0.002,6,-0.55,-0.53,9.46,36,0.067,8.17
5.8308,-0.09948,-0.01920,1.01404,0.00000,0.00000,0.00000,65,15,12,13,67,1,53,-12,ok,2,0,0.002,6,-0.55,-0.53,9.46,36,0.080,8.17
5.8356,-0.09948,-0.01920,1.01404,0.00000,0.00000,0.00000,65,16,12,13,68,1,51,-12,ok,2,0,0.002,6,-0.55,-0.53,9.46,36,0.092,8.17
5.8481,-0.09948,-0.01920,1.01404,0.00000,0.00000,0.00000,66,16,14,12,68,1,48,-11,ok,2,0,0.002,6,-0.55,-0.53,9.46,36,0.105,8.17
5.8708,-0.09948,-0.01920,1.01404,0.00000,0.00000,0.00000,66,17,15,11,69,2,45,-10,ok,2,0,0.002,6,-0.55,-0.53,9.46,36,0.118,8.17
5.8740,-0.09948,-0.01920,1.01404,0.00000,0.00000,0.00000,67,18,16,10,69,3,42,-9,ok,2,0,0.002,6,-0.55,-0.53,9.46,36,0.131,8.17
5.8867,-0.09948,-0.01920,1.01404,0.00000,0.00000,0.00000,67,18,17,9,69,3,39,-8,ok,2,0,0.002,6,-0.55,-0.53,9.46,36,0.143,8.17
5.9068,-0.09948,-0.01920,1.01404,0.00000,0.00000,0.00000,67,20,18,9,70,5,35,-6,ok,2,0,0.002,6,-0.55,-0.53,9.46,36,0.156,8.17
5.9115,-0.09948,-0.01920,1.01404,0.00000,0.00000,0.00000,68,21,20,8,71,5,34,-5,ok,2,0,0.002,6,-0.55,-0.53,9.46,36,0.168,8.17
5.9241,-0.09948,-0.01920,1.01404,0.00000,0.00000,0.00000,68,22,21,7,71,6,32,-3,ok,2,0,0.002,6,-0.55,-0.53,9.46,36,0.181,8.17
5.9468,-0.06283,0.05934,1.04022,0.00000,0.00000,0.00000,68,23,22,7,70,7,30,0,ok,2,0,0.002,6,0.95,-1.16,10.99,37,0.000,8.17
5.9500,-0.06283,0.05934,1.04022,0.00000,0.00000,0.00000,68,24,23,6,71,8,29,2,ok,2,0,0.002,6,0.95,-1.16,10.99,37,0.013,8.17
5.9628,-0.06283,0.05934,1.04022,0.00000,0.00000,0.00000,67,25,24,5,71,9,27,5,ok,2,0,0.002,6,0.95,-1.16,10.99,37,0.026,8.17
5.9828,-0.06283,0.05934,1.04022,0.00000,0.00000,0.00000,66,28,26,5,71,10,27,7,ok,2,0,0.002,6,0.95,-1.16,10.99,37,0.039,8.17
5.9876,-0.06283,0.05934,1.04022,0.00000,0.00000,0.00000,65,29,27,4,71,12,29,6,ok,2,0,0.002,6,0.95,-1.16,10.99,37,0.051,8.17
6.0001,-0.06283,0.05934,1.04022,0.00000,0.00000,0.00000,67,28,28,4,71,13,29,6,ok,2,0,0.002,6,0.95,-1.16,10.99,37,0.064,8.17
6.0228,-0.06283,0.05934,1.04022,0.00000,0.00000,0.00000,69,25,29,3,72,15,31,4,ok,2,0,0.002,6,0.95,-1.16,10.99,37,0.076,8.17
6.0260,-0.06283,0.05934,1.04022,0.00000,0.00000,0.00000,71,21,31,2,71,16,32,3,ok,2,0,0.002,6,0.95,-1.16,10.99,37,0.089,8.17
6.0385,-0.06283,0.05934,1.04022,0.00000,0.00000,0.00000,72,17,32,2,71,18,33,3,ok,2,0,0.002,6,0.95,-1.16,10.99,37,0.102,8.17
6.0588,-0.06283,0.05934,1.04022,0.00000,0.00000,0.00000,73,15,33,2,72,19,34,2,ok,2,0,0.002,6,0.95,-1.16,10.99,37,0.114,8.17
6.0635,-0.06283,0.05934,1.04022,0.00000,0.00000,0.00000,72,14,35,2,71,21,36,2,ok,2,0,0.002,6,0.95,-1.16,10.99,37,0.127,8.17
6.0761,-0.06283,0.05934,1.04022,0.00000,0.00000,0.00000,72,11,36,2,71,22,38,2,ok,2,0,0.002,6,0.95,-1.16,10.99,37,0.140,8.17
6.0988,-0.06283,0.05934,1.04022,0.00000,0.00000,0.00000,71,7,37,2,71,24,39,2,ok,2,0,0.002,6,0.95,-1.16,10.99,37,0.152,8.17
6.1020,-0.06283,0.05934,1.04022,0.00000,0.00000,0.00000,71,5,39,2,71,26,41,2,ok,2,0,0.002,6,0.95,-1.16,10.99,37,0.165,8.17
6.1145,-0.06283,0.05934,1.04022,0.00000,0.00000,0.00000,70,1,40,2,70,28,42,2,ok,2,0,0.002,6,0.95,-1.16,10.99,37,0.178,8.17
6.1348,-0.06283,0.05934,1.04022,0.00000,0.00000,0.00000,69,-1,41,1,70,29,43,2,ok,2,0,0.002,6,0.95,-1.16,10.99,37,0.190,8.17
6.1398,0.06283,0.02269,1.11527,0.00000,0.00000,0.00000,68,-3,43,2,71,29,44,1,ok,2,0,0.002,6,0.24,1.18,10.49,38,0.000,8.17
6.1521,0.06283,0.02269,1.11527,0.00000,0.00000,0.00000,66,-4,43,2,72,29,45,1,ok,2,0,0.002,6,0.24,1.18,10.49,38,0.013,8.17
6.1748,0.06283,0.02269,1.11527,0.00000,0.00000,0.00000,64,-6,45,2,73,27,46,0,ok,2,0,0.002,6,0.24,1.18,10.49,38,0.025,8.17
6.1779,0.06283,0.02269,1.11527,0.00000,0.00000,0.00000,63,-8,46,2,75,22,48,0,ok,2,0,0.002,6,0.24,1.18,10.49,38,0.038,8.17
6.1905,0.06283,0.02269,1.11527,0.00000,0.00000,0.00000,61,-9,48,3,77,18,49,0,ok,2,0,0.002,6,0.24,1.18,10.49,38,0.051,8.17
6.2108,0.06283,0.02269,1.11527,0.00000,0.00000,0.00000,59,-10,49,3,78,15,49,0,ok,2,0,0.002,6,0.24,1.18,10.49,38,0.064,8.17
6.2155,0.06283,0.02269,1.11527,0.00000,0.00000,0.00000,57,-10,50,3,78,14,50,0,ok,2,0,0.002,6,0.24,1.18,10.49,38,0.076,8.17
6.2281,0.06283,0.02269,1.11527,0.00000,0.00000,0.00000,54,-11,50,5,78,12,51,0,ok,2,0,0.002,6,0.24,1.18,10.49,38,0.089,8.17
6.2508,0.06283,0.02269,1.11527,0.00000,0.00000,0.00000,52,-11,51,6,78,8,52,0,ok,2,0,0.002,6,0.24,1.18,10.49,38,0.101,8.17
6.2540,0.06283,0.02269,1.11527,0.00000,0.00000,0.00000,49,-11,52,5,78,5,53,1,ok,2,0,0.002,6,0.24,1.18,10.49,38,0.114,8.17
6.2665,0.06283,0.02269,1.11527,0.00000,0.00000,0.00000,47,-11,53,6,77,3,54,0,ok,2,0,0.002,6,0.24,1.18,10.49,38,0.127,8.17
6.2868,0.06283,0.02269,1.11527,0.00000,0.00000,0.00000,44,-11,53,7,76,-1,55,1,ok,2,0,0.002,6,0.24,1.18,10.49,38,0.140,8.17
6.2915,0.06283,0.02269,1.11527,0.00000,0.00000,0.00000,42,-11,55,7,76,-3,55,0,ok,2,0,0.002,6,0.24,1.18,10.49,38,0.152,8.17
6.3041,0.06283,0.02269,1.11527,0.00000,0.00000,0.00000,40,-10,55,7,75,-4,57,1,ok,2,0,0.002,6,0.24,1.18,10.49,38,0.165,8.17
6.3308,0.06283,0.02269,1.11527,0.00000,0.00000,0.00000,37,-9,57,8,73,-7,57,-1,ok,2,0,0.002,6,0.24,1.18,10.49,38,0.177,8.17
6.3342,0.04712,-0.07679,1.12050,0.00000,0.00000,0.00000,34,-8,57,8,70,-7,58,0,ok,2,0,0.002,6,-0.20,0.47,10.07,39,0.000,8.17
6.3467,0.04712,-0.07679,1.12050,0.00000,0.00000,0.00000,31,-6,58,9,69,-9,58,0,ok,2,0,0.002,6,-0.20,0.47,10.07,39,0.013,8.17
6.3668,0.04712,-0.07679,1.12050,0.00000,0.00000,0.00000,28,-4,58,9,68,-11,60,1,ok,2,0,0.002,6,-0.20,0.47,10.07,39,0.025,8.17
6.3715,0.04712,-0.07679,1.12050,0.00000,0.00000,0.00000,24,-2,60,11,66,-12,60,0,ok,2,0,0.002,6,-0.20,0.47,10.07,39,0.038,8.17
6.3841,0.04712,-0.07679,1.12050,0.00000,0.00000,0.00000,22,-1,61,11,64,-13,61,0,ok,2,0,0.002,6,-0.20,0.47,10.07,39,0.050,8.17
6.4068,0.04712,-0.07679,1.12050,0.00000,0.00000,0.00000,20,1,62,12,62,-13,64,-2,ok,2,0,0.002,6,-0.20,0.47,10.07,39,0.063,8.17
6.4099,0.04712,-0.07679,1.12050,0.00000,0.00000,0.00000,18,3,62,12,59,-14,64,-1,ok,2,0,0.002,6,-0.20,0.47,10.07,39,0.076,8.17
6.4224,0.04712,-0.07679,1.12050,0.00000,0.00000,0.00000,16,7,63,13,57,-14,65,-1,ok,2,0,0.002,6,-0.20,0.47,10.07,39,0.089,8.17
6.4428,0.04712,-0.07679,1.12050,0.00000,0.00000,0.00000,14,10,63,14,54,-14,65,-1,ok,2,0,0.002,6,-0.20,0.47,10.07,39,0.101,8.17
6.4476,0.04712,-0.07679,1.12050,0.00000,0.00000,0.00000,12,13,63,15,51,-13,66,-1,ok,2,0,0.002,6,-0.20,0.47,10.07,39,0.114,8.17
6.4601,0.04712,-0.07679,1.12050,0.00000,0.00000,0.00000,14,13,64,16,49,-13,67,0,ok,2,0,0.002,6,-0.20,0.47,10.07,39,0.126,8.17
6.4828,0.04712,-0.07679,1.12050,0.00000,0.00000,0.00000,14,13,63,17,46,-12,67,0,ok,2,0,0.002,6,-0.20,0.47,10.07,39,0.139,8.17
6.4859,0.04712,-0.07679,1.12050,0.00000,0.00000,0.00000,16,12,64,17,44,-12,68,1,ok,2,0,0.002,6,-0.20,0.47,10.07,39,0.152,8.17
6.4986,0.04712,-0.07679,1.12050,0.00000,0.00000,0.00000,17,12,65,19,40,-10,69,1,ok,2,0,0.002,6,-0.20,0.47,10.07,39,0.165,8.17
6.5188,0.04712,-0.07679,1.12050,0.00000,0.00000,0.00000,18,11,65,19,38,-10,70,2,ok,2,0,0.002,6,-0.20,0.47,10.07,39,0.177,8.17
6.5235,0.04712,-0.07679,1.12050,0.00000,0.00000,0.00000,19,10,65,20,35,-8,70,2,ok,2,0,0.002,6,-0.20,0.47,10.07,39,0.190,8.17
6.5364,-0.03316,0.00873,1.14145,0.00000,0.00000,0.00000,20,10,65,21,33,-7,71,3,ok,2,0,0.002,6,-0.28,-0.90,11.86,40,0.000,8.17
6.5588,-0.03316,0.00873,1.14145,0.00000,0.00000,0.00000,22,9,66,22,31,-5,71,5,ok,2,0,0.002,6,-0.28,-0.90,11.86,40,0.013,8.17
6.5620,-0.03316,0.00873,1.14145,0.00000,0.00000,0.00000,23,8,65,23,29,-2,72,5,ok,2,0,0.002,6,-0.28,-0.90,11.86,40,0.026,8.17
6.5746,-0.03316,0.00873,1.14145,0.00000,0.00000,0.00000,25,7,65,23,27,0,72,7,ok,2,0,0.002,6,-0.28,-0.90,11.86,40,0.039,8.17
6.5948,-0.03316,0.00873,1.14145,0.00000,0.00000,0.00000,26,6,65,24,26,4,72,8,ok,2,0,0.002,6,-0.28,-0.90,11.86,40,0.051,8.17
6.5996,-0.03316,0.00873,1.14145,0.00000,0.00000,0.00000,27,6,64,25,26,6,72,9,ok,2,0,0.002,6,-0.28,-0.90,11.86,40,0.064,8.17
6.6122,-0.03316,0.00873,1.14145,0.00000,0.00000,0.00000,28,6,64,28,27,6,73,10,ok,2,0,0.002,6,-0.28,-0.90,11.86,40,0.076,8.17
6.6350,-0.03316,0.00873,1.14145,0.00000,0.00000,0.00000,30,4,63,29,28,5,73,12,ok,2,0,0.002,7,-0.28,-0.90,11.86,40,0.089,8.17
6.6383,-0.03316,0.00873,1.14145,0.00000,0.00000,0.00000,31,4,65,28,29,3,73,13,ok,2,0,0.002,7,-0.28,-0.90,11.86,40,0.102,8.17
6.6508,-0.03316,0.00873,1.14145,0.00000,0.00000,0.00000,32,3,67,25,30,3,73,15,ok,2,0,0.002,7,-0.28,-0.90,11.86,40,0.115,8.17
6.6708,-0.03316,0.00873,1.14145,0.00000,0.00000,0.00000,33,3,69,21,32,3,73,16,ok,2,0,0.002,7,-0.28,-0.90,11.86,40,0.127,8.17
6.6758,-0.03316,0.00873,1.14145,0.00000,0.00000,0.00000,35,2,71,17,33,2,73,18,ok,2,0,0.002,7,-0.28,-0.90,11.86,40,0.140,8.17
6.6884,-0.03316,0.00873,1.14145,0.00000,0.00000,0.00000,36,2,71,15,34,1,73,20,ok,2,0,0.002,7,-0.28,-0.90,11.86,40,0.152,8.17
6.7108,-0.03316,0.00873,1.14145,0.00000,0.00000,0.00000,38,1,71,14,37,1,73,20,ok,2,0,0.002,7,-0.28,-0.90,11.86,40,0.165,8.17
6.7140,-0.03316,0.00873,1.14145,0.00000,0.00000,0.00000,39,1,71,11,37,1,72,23,ok,2,0,0.002,7,-0.28,-0.90,11.86,40,0.178,8.17
6.7266,-0.03316,0.00873,1.14145,0.00000,0.00000,0.00000,40,1,71,8,39,2,72,24,ok,2,0,0.002,7,-0.28,-0.90,11.86,40,0.191,8.17
6.7468,-0.00349,0.02618,1.10654,0.00000,0.00000,0.00000,42,1,70,5,40,1,73,25,ok,2,0,0.002,7,-0.02,0.13,11.84,41,0.000,8.17
6.7515,-0.00349,0.02618,1.10654,0.00000,0.00000,0.00000,43,0,69,3,41,2,72,26,ok,2,0,0.002,7,-0.02,0.13,11.84,41,0.012,8.17
6.7641,-0.00349,0.02618,1.10654,0.00000,0.00000,0.00000,44,0,68,1,42,1,72,28,ok,2,0,0.002,7,-0.02,0.13,11.84,41,0.025,8.17
6.7868,-0.00349,0.02618,1.10654,0.00000,0.00000,0.00000,46,0,67,-1,43,1,72,29,ok,2,0,0.002,7,-0.02,0.13,11.84,41,0.038,8.17
6.7899,-0.00349,0.02618,1.10654,0.00000,0.00000,0.00000,46,0,65,-2,45,0,73,29,ok,2,0,0.002,7,-0.02,0.13,11.84,41,0.051,8.17
6.8025,-0.00349,0.02618,1.10654,0.00000,0.00000,0.00000,48,1,64,-4,46,0,74,29,ok,2,0,0.002,7,-0.02,0.13,11.84,41,0.064,8.17
6.8228,-0.00349,0.02618,1.10654,0.00000,0.00000,0.00000,49,1,63,-6,47,0,76,26,ok,2,0,0.002,7,-0.02,0.13,11.84,41,0.076,8.17
6.8275,-0.00349,0.02618,1.10654,0.00000,0.00000,0.00000,50,2,61,-7,48,0,78,21,ok,2,0,0.002,7,-0.02,0.13,11.84,41,0.089,8.17
6.8401,-0.00349,0.02618,1.10654,0.00000,0.00000,0.00000,52,1,58,-8,49,0,79,17,ok,2,0,0.002,7,-0.02,0.13,11.84,41,0.101,8.17
6.8628,-0.00349,0.02618,1.10654,0.00000,0.00000,0.00000,52,2,56,-8,50,0,81,14,ok,2,0,0.002,7,-0.02,0.13,11.84,41,0.114,8.17
6.8662,-0.00349,0.02618,1.10654,0.00000,0.00000,0.00000,52,4,54,-9,51,0,81,14,ok,2,0,0.002,7,-0.02,0.13,11.84,41,0.127,8.17
6.8786,-0.00349,0.02618,1.10654,0.00000,0.00000,0.00000,53,5,51,-9,52,1,81,11,ok,2,0,0.002,7,-0.02,0.13,11.84,41,0.140,8.17
6.8988,-0.00349,0.02618,1.10654,0.00000,0.00000,0.00000,54,4,48,-9,54,1,81,7,ok,2,0,0.002,7,-0.02,0.13,11.84,41,0.152,8.17
6.9037,-0.00349,0.02618,1.10654,0.00000,0.00000,0.00000,54,5,46,-9,55,1,80,4,ok,2,0,0.002,7,-0.02,0.13,11.84,41,0.165,8.17
6.9161,-0.00349,0.02618,1.10654,0.00000,0.00000,0.00000,55,6,43,-9,55,1,80,2,ok,2,0,0.002,7,-0.02,0.13,11.84,41,0.177,8.17
6.9388,-0.00349,0.02618,1.10654,0.00000,0.00000,0.00000,57,6,41,-9,56,2,79,-1,ok,2,0,0.002,7,-0.02,0.13,11.84,41,0.190,8.17
6.9422,-0.07330,-0.01571,1.19206,0.00000,0.00000,0.00000,57,6,38,-8,57,1,78,-3,ok,2,0,0.002,7,0.29,-1.23,9.42,42,0.000,8.17
6.9546,-0.07330,-0.01571,1.19206,0.00000,0.00000,0.00000,59,7,35,-7,58,1,77,-4,ok,2,0,0.002,7,0.29,-1.23,9.42,42,0.013,8.17
6.9748,-0.07330,-0.01571,1.19206,0.00000,0.00000,0.00000,59,8,32,-6,59,1,75,-6,ok,2,0,0.002,7,0.29,-1.23,9.42,42,0.025,8.17
6.9797,-0.07330,-0.01571,1.19206,0.00000,0.00000,0.00000,60,8,28,-5,60,2,72,-6,ok,2,0,0.002,7,0.29,-1.23,9.42,42,0.038,8.17
6.9922,-0.07330,-0.01571,1.19206,0.00000,0.00000,0.00000,61,9,26,-3,61,2,71,-8,ok,2,0,0.002,7,0.29,-1.23,9.42,42,0.050,8.17
7.0148,-0.07330,-0.01571,1.19206,0.00000,0.00000,0.00000,62,10,21,-1,62,1,70,-10,ok,2,0,0.002,7,0.29,-1.23,9.42,42,0.063,8.17
7.0180,-0.07330,-0.01571,1.19206,0.00000,0.00000,0.00000,62,10,20,0,64,-1,68,-11,ok,2,0,0.002,7,0.29,-1.23,9.42,42,0.076,8.17
7.0307,-0.07330,-0.01571,1.19206,0.00000,0.00000,0.00000,63,11,18,1,64,-1,65,-13,ok,2,0,0.002,7,0.29,-1.23,9.42,42,0.089,8.17
7.0508,-0.07330,-0.01571,1.19206,0.00000,0.00000,0.00000,64,11,16,4,65,0,64,-13,ok,2,0,0.002,7,0.29,-1.23,9.42,42,0.101,8.17
7.0556,-0.07330,-0.01571,1.19206,0.00000,0.00000,0.00000,64,12,14,7,65,0,61,-13,ok,2,0,0.002,7,0.29,-1.23,9.42,42,0.114,8.17
7.0681,-0.07330,-0.01571,1.19206,0.00000,0.00000,0.00000,64,13,12,10,66,1,59,-14,ok,2,0,0.002,7,0.29,-1.23,9.42,42,0.126,8.17
7.0908,-0.07330,-0.01571,1.19206,0.00000,0.00000,0.00000,65,14,11,13,67,1,56,-12,ok,2,0,0.002,7,0.29,-1.23,9.42,42,0.139,8.17
7.0940,-0.07330,-0.01571,1.19206,0.00000,0.00000,0.00000,65,15,12,13,67,1,53,-12,ok,2,0,0.002,7,0.29,-1.23,9.42,42,0.152,8.17
7.1065,-0.07330,-0.01571,1.19206,0.00000,0.00000,0.00000,66,16,12,13,68,1,51,-12,ok,2,0,0.002,7,0.29,-1.23,9.42,42,0.165,8.17
7.1268,-0.07330,-0.01571,1.19206,0.00000,0.00000,0.00000,66,17,14,12,68,1,47,-11,ok,2,0,0.002,7,0.29,-1.23,9.42,42,0.177,8.17
7.1315,-0.07330,-0.01571,1.19206,0.00000,0.00000,0.00000,66,18,15,11,69,2,45,-10,ok,2,0,0.002,7,0.29,-1.23,9.42,42,0.190,8.17
7.1443,-0.07330,-0.01571,1.19206,0.00000,0.00000,0.00000,67,18,15,10,69,3,42,-9,ok,2,0,0.002,7,0.29,-1.23,9.42,42,0.202,8.17
7.1668,0.02618,0.05061,1.21126,0.00000,0.00000,0.00000,67,19,17,9,69,4,40,-8,ok,2,0,0.002,7,-0.29,-0.07,8.99,43,0.000,8.17
7.1700,0.02618,0.05061,1.21126,0.00000,0.00000,0.00000,67,20,17,9,70,5,36,-7,ok,2,0,0.002,7,-0.29,-0.07,8.99,43,0.013,8.17
7.1826,0.02618,0.05061,1.21126,0.00000,0.00000,0.00000,68,21,19,8,70,6,35,-5,ok,2,0,0.002,7,-0.29,-0.07,8.99,43,0.026,8.17
7.2028,0.02618,0.05061,1.21126,0.00000,0.00000,0.00000,68,22,21,7,70,7,32,-4,ok,2,0,0.002,7,-0.29,-0.07,8.99,43,0.039,8.17
7.2076,0.02618,0.05061,1.21126,0.00000,0.00000,0.00000,68,23,22,7,70,8,30,-1,ok,2,0,0.002,7,-0.29,-0.07,8.99,43,0.051,8.17
7.2202,0.02618,0.05061,1.21126,0.00000,0.00000,0.00000,68,24,23,6,71,9,29,2,ok,2,0,0.002,7,-0.29,-0.07,8.99,43,0.064,8.17
7.2429,0.02618,0.05061,1.21126,0.00000,0.00000,0.00000,67,25,24,5,71,10,28,5,ok,2,0,0.002,7,-0.29,-0.07,8.99,43,0.076,8.17
7.2460,0.02618,0.05061,1.21126,0.00000,0.00000,0.00000,67,28,25,5,71,11,27,7,ok,2,0,0.002,7,-0.29,-0.07,8.99,43,0.089,8.17
7.2586,0.02618,0.05061,1.21126,0.00000,0.00000,0.00000,66,29,27,4,71,12,29,6,ok,2,0,0.002,7,-0.29,-0.07,8.99,43,0.102,8.17
7.2788,0.02618,0.05061,1.21126,0.00000,0.00000,0.00000,67,28,28,4,71,14,30,6,ok,2,0,0.002,7,-0.29,-0.07,8.99,43,0.115,8.17
7.2836,0.02618,0.05061,1.21126,0.00000,0.00000,0.00000,70,25,29,3,71,15,31,4,ok,2,0,0.002,7,-0.29,-0.07,8.99,43,0.127,8.17
7.2961,0.02618,0.05061,1.21126,0.00000,0.00000,0.00000,72,21,30,3,71,16,32,3,ok,2,0,0.002,7,-0.29,-0.07,8.99,43,0.140,8.17
7.3188,0.02618,0.05061,1.21126,0.00000,0.00000,0.00000,73,17,32,2,71,18,34,3,ok,2,0,0.002,7,-0.29,-0.07,8.99,43,0.152,8.17
7.3221,0.02618,0.05061,1.21126,0.00000,0.00000,0.00000,73,15,33,2,72,19,35,2,ok,2,0,0.002,7,-0.29,-0.07,8.99,43,0.165,8.17
7.3345,0.02618,0.05061,1.21126,0.00000,0.00000,0.00000,73,14,35,2,71,21,37,2,ok,2,0,0.002,7,-0.29,-0.07,8.99,43,0.178,8.17
7.3548,-0.01047,0.04189,1.32645,0.00000,0.00000,0.00000,73,11,36,2,71,23,39,2,ok,2,0,0.002,7,0.77,-0.26,9.32,44,0.000,8.17
7.3597,-0.01047,0.04189,1.32645,0.00000,0.00000,0.00000,72,7,37,2,71,24,39,2,ok,2,0,0.002,7,0.77,-0.26,9.32,44,0.012,8.17
7.3721,-0.01047,0.04189,1.32645,0.00000,0.00000,0.00000,71,5,38,2,71,26,41,2,ok,2,0,0.002,7,0.77,-0.26,9.32,44,0.025,8.17
7.3948,-0.01047,0.04189,1.32645,0.00000,0.00000,0.00000,71,1,40,2,70,28,42,2,ok,2,0,0.002,7,0.77,-0.26,9.32,44,0.038,8.17
7.3980,-0.01047,0.04189,1.32645,0.00000,0.00000,0.00000,69,-1,41,2,70,29,43,2,ok,2,0,0.002,7,0.77,-0.26,9.32,44,0.051,8.17
7.4106,-0.01047,0.04189,1.32645,0.00000,0.00000,0.00000,68,-3,43,2,70,29,44,1,ok,2,0,0.002,7,0.77,-0.26,9.32,44,0.063,8.17
7.4308,-0.01047,0.04189,1.32645,0.00000,0.00000,0.00000,66,-4,43,2,72,29,46,1,ok,2,0,0.002,7,0.77,-0.26,9.32,44,0.076,8.17
7.4356,-0.01047,0.04189,1.32645,0.00000,0.00000,0.00000,65,-6,45,3,73,26,47,1,ok,2,0,0.002,7,0.77,-0.26,9.32,44,0.088,8.17
7.4481,-0.01047,0.04189,1.32645,0.00000,0.00000,0.00000,64,-8,46,3,75,22,48,1,ok,2,0,0.002,7,0.77,-0.26,9.32,44,0.101,8.17
7.4708,-0.01047,0.04189,1.32645,0.00000,0.00000,0.00000,62,-9,48,4,77,17,49,1,ok,2,0,0.002,7,0.77,-0.26,9.32,44,0.113,8.17
7.4739,-0.01047,0.04189,1.32645,0.00000,0.00000,0.00000,59,-10,49,3,78,15,50,1,ok,2,0,0.002,7,0.77,-0.26,9.32,44,0.127,8.17
7.4865,-0.01047,0.04189,1.32645,0.00000,0.00000,0.00000,57,-11,50,3,78,14,50,1,ok,2,0,0.002,7,0.77,-0.26,9.32,44,0.139,8.17
7.5068,-0.01047,0.04189,1.32645,0.00000,0.00000,0.00000,55,-12,50,5,78,12,51,1,ok,2,0,0.002,7,0.77,-0.26,9.32,44,0.152,8.17
7.5116,-0.01047,0.04189,1.32645,0.00000,0.00000,0.00000,52,-11,51,6,78,8,52,1,ok,2,0,0.002,7,0.77,-0.26,9.32,44,0.164,8.17
7.5242,-0.01047,0.04189,1.32645,0.00000,0.00000,0.00000,49,-11,52,6,78,5,53,1,ok,2,0,0.002,7,0.77,-0.26,9.32,44,0.177,8.17
7.5468,-0.01047,0.04189,1.32645,0.00000,0.00000,0.00000,47,-11,53,6,77,3,54,0,ok,2,0,0.002,7,0.77,-0.26,9.32,44,0.189,8.17
7.5503,-0.01047,0.04189,1.32645,0.00000,0.00000,0.00000,44,-11,53,7,76,0,55,1,ok,2,0,0.002,7,0.77,-0.26,9.32,44,0.203,8.17
7.5628,0.14486,-0.02618,1.28631,0.00000,0.00000,0.00000,42,-11,55,7,76,-3,55,0,ok,2,0,0.002,7,-0.60,1.28,10.13,45,0.000,8.17
7.5828,0.14486,-0.02618,1.28631,0.00000,0.00000,0.00000,40,-10,55,7,75,-4,57,0,ok,2,0,0.002,7,-0.60,1.28,10.13,45,0.013,8.17
7.5875,0.14486,-0.02618,1.28631,0.00000,0.00000,0.00000,37,-9,57,8,73,-7,58,-1,ok,2,0,0.002,7,-0.60,1.28,10.13,45,0.025,8.17
7.6003,0.14486,-0.02618,1.28631,0.00000,0.00000,0.00000,34,-8,57,9,70,-6,58,0,ok,2,0,0.002,7,-0.60,1.28,10.13,45,0.037,8.17
7.6228,0.14486,-0.02618,1.28631,0.00000,0.00000,0.00000,31,-6,58,9,69,-8,58,0,ok,2,0,0.002,7,-0.60,1.28,10.13,45,0.050,8.17
7.6260,0.14486,-0.02618,1.28631,0.00000,0.00000,0.00000,28,-4,59,9,68,-10,60,0,ok,2,0,0.002,7,-0.60,1.28,10.13,45,0.063,8.17
7.6387,0.14486,-0.02618,1.28631,0.00000,0.00000,0.00000,24,-1,60,11,66,-12,60,0,ok,2,0,0.002,8,-0.60,1.28,10.13,45,0.076,8.17
7.6588,0.14486,-0.02618,1.28631,0.00000,0.00000,0.00000,22,-1,61,11,64,-12,61,0,ok,2,0,0.002,8,-0.60,1.28,10.13,45,0.088,8.17
7.6636,0.14486,-0.02618,1.28631,0.00000,0.00000,0.00000,20,1,61,11,62,-13,64,-2,ok,2,0,0.002,8,-0.60,1.28,10.13,45,0.101,8.17
7.6764,0.14486,-0.02618,1.28631,0.00000,0.00000,0.00000,18,3,62,12,59,-14,64,-1,ok,2,0,0.002,8,-0.60,1.28,10.13,45,0.113,8.17
7.6988,0.14486,-0.02618,1.28631,0.00000,0.00000,0.00000,16,7,62,13,57,-14,65,-1,ok,2,0,0.002,8,-0.60,1.28,10.13,45,0.126,8.17
7.7020,0.14486,-0.02618,1.28631,0.00000,0.00000,0.00000,15,10,62,14,54,-13,66,0,ok,2,0,0.002,8,-0.60,1.28,10.13,45,0.139,8.17
7.7146,0.14486,-0.02618,1.28631,0.00000,0.00000,0.00000,13,13,63,15,51,-12,66,-1,ok,2,0,0.002,8,-0.60,1.28,10.13,45,0.152,8.17
7.7348,0.14486,-0.02618,1.28631,0.00000,0.00000,0.00000,15,13,63,16,49,-12,67,0,ok,2,0,0.002,8,-0.60,1.28,10.13,45,0.165,8.17
7.7396,0.14486,-0.02618,1.28631,0.00000,0.00000,0.00000,15,13,63,17,46,-11,68,0,ok,2,0,0.002,8,-0.60,1.28,10.13,45,0.177,8.17
7.7525,0.08727,0.03665,1.28456,0.00000,0.00000,0.00000,16,12,64,17,43,-11,69,1,ok,2,0,0.002,8,1.08,0.84,9.84,46,0.000,8.17
7.7748,0.08727,0.03665,1.28456,0.00000,0.00000,0.00000,17,12,64,18,40,-9,70,1,ok,2,0,0.002,8,1.08,0.84,9.84,46,0.013,8.17
7.7780,0.08727,0.03665,1.28456,0.00000,0.00000,0.00000,18,11,65,19,38,-9,70,2,ok,2,0,0.002,8,1.08,0.84,9.84,46,0.026,8.17
7.7905,0.08727,0.03665,1.28456,0.00000,0.00000,0.00000,20,10,65,20,34,-7,70,3,ok,2,0,0.002,8,1.08,0.84,9.84,46,0.038,8.17
7.8108,0.08727,0.03665,1.28456,0.00000,0.00000,0.00000,20,10,65,21,33,-6,71,3,ok,2,0,0.002,8,1.08,0.84,9.84,46,0.051,8.17
7.8155,0.08727,0.03665,1.28456,0.00000,0.00000,0.00000,23,9,65,22,31,-4,72,5,ok,2,0,0.002,8,1.08,0.84,9.84,46,0.063,8.17
7.8281,0.08727,0.03665,1.28456,0.00000,0.00000,0.00000,24,8,65,23,28,-1,72,5,ok,2,0,0.002,8,1.08,0.84,9.84,46,0.076,8.17
7.8508,0.08727,0.03665,1.28456,0.00000,0.00000,0.00000,25,7,65,23,27,1,72,7,ok,2,0,0.002,8,1.08,0.84,9.84,46,0.088,8.17
7.8539,0.08727,0.03665,1.28456,0.00000,0.00000,0.00000,26,6,65,24,26,4,72,8,ok,2,0,0.002,8,1.08,0.84,9.84,46,0.102,8.17
7.8665,0.08727,0.03665,1.28456,0.00000,0.00000,0.00000,27,6,64,25,25,7,73,9,ok,2,0,0.002,8,1.08,0.84,9.84,46,0.114,8.17
7.8868,0.08727,0.03665,1.28456,0.00000,0.00000,0.00000,29,5,64,28,27,7,73,10,ok,2,0,0.002,8,1.08,0.84,9.84,46,0.127,8.17
7.8916,0.08727,0.03665,1.28456,0.00000,0.00000,0.00000,30,4,63,29,28,6,73,12,ok,2,0,0.002,8,1.08,0.84,9.84,46,0.139,8.17
7.9041,0.08727,0.03665,1.28456,0.00000,0.00000,0.00000,31,4,64,28,29,4,73,13,ok,2,0,0.002,8,1.08,0.84,9.84,46,0.152,8.17
7.9268,0.08727,0.03665,1.28456,0.00000,0.00000,0.00000,32,3,67,25,30,3,74,15,ok,2,0,0.002,8,1.08,0.84,9.84,46,0.164,8.17
7.9301,0.08727,0.03665,1.28456,0.00000,0.00000,0.00000,33,3,69,21,31,3,74,16,ok,2,0,0.002,8,1.08,0.84,9.84,46,0.178,8.17
7.9425,0.08727,0.03665,1.28456,0.00000,0.00000,0.00000,35,2,70,17,32,3,73,18,ok,2,0,0.002,8,1.08,0.84,9.84,46,0.190,8.17
7.9628,0.04538,0.01571,1.25838,0.00000,0.00000,0.00000,36,2,71,15,34,2,73,20,ok,2,0,0.002,8,0.53,0.49,10.28,47,0.000,8.17
7.9676,0.04538,0.01571,1.25838,0.00000,0.00000,0.00000,38,1,71,15,36,2,74,20,ok,2,0,0.002,8,0.53,0.49,10.28,47,0.012,8.17
7.9801,0.04538,0.01571,1.25838,0.00000,0.00000,0.00000,39,1,71,11,36,2,73,23,ok,2,0,0.002,8,0.53,0.49,10.28,47,0.025,8.17
8.0028,0.04538,0.01571,1.25838,0.00000,0.00000,0.00000,41,1,70,9,38,2,73,24,ok,2,0,0.002,8,0.53,0.49,10.28,47,0.038,8.17
8.0062,0.04538,0.01571,1.25838,0.00000,0.00000,0.00000,42,1,70,6,39,1,73,25,ok,2,0,0.002,8,0.53,0.49,10.28,47,0.051,8.17
8.0187,0.04538,0.01571,1.25838,0.00000,0.00000,0.00000,44,0,69,3,40,2,73,27,ok,2,0,0.002,8,0.53,0.49,10.28,47,0.064,8.17
8.0389,0.04538,0.01571,1.25838,0.00000,0.00000,0.00000,45,0,68,1,41,1,73,28,ok,2,0,0.002,8,0.53,0.49,10.28,47,0.076,8.17
8.0436,0.04538,0.01571,1.25838,0.00000,0.00000,0.00000,46,0,67,0,43,1,73,29,ok,2,0,0.002,8,0.53,0.49,10.28,47,0.089,8.17
8.0562,0.04538,0.01571,1.25838,0.00000,0.00000,0.00000,46,0,65,-1,44,0,74,29,ok,2,0,0.002,8,0.53,0.49,10.28,47,0.101,8.17
8.0788,0.04538,0.01571,1.25838,0.00000,0.00000,0.00000,48,0,64,-4,46,0,75,29,ok,2,0,0.002,8,0.53,0.49,10.28,47,0.114,8.17
8.0820,0.04538,0.01571,1.25838,0.00000,0.00000,0.00000,49,0,63,-6,47,0,77,26,ok,2,0,0.002,8,0.53,0.49,10.28,47,0.127,8.17
8.0945,0.04538,0.01571,1.25838,0.00000,0.00000,0.00000,51,2,61,-7,47,1,78,21,ok,2,0,0.002,8,0.53,0.49,10.28,47,0.140,8.17
8.1148,0.04538,0.01571,1.25838,0.00000,0.00000,0.00000,52,1,58,-8,48,1,80,17,ok,2,0,0.002,8,0.53,0.49,10.28,47,0.152,8.17
8.1197,0.04538,0.01571,1.25838,0.00000,0.00000,0.00000,52,1,56,-8,50,1,81,14,ok,2,0,0.002,8,0.53,0.49,10.28,47,0.164,8.17
8.1321,0.04538,0.01571,1.25838,0.00000,0.00000,0.00000,52,4,54,-9,51,1,81,14,ok,2,0,0.002,8,0.53,0.49,10.28,47,0.177,8.17
8.1548,0.04538,0.01571,1.25838,0.00000,0.00000,0.00000,53,4,51,-9,52,1,81,11,ok,2,0,0.002,8,0.53,0.49,10.28,47,0.190,8.17
8.1582,0.04538,0.01571,1.25838,0.00000,0.00000,0.00000,54,4,48,-9,53,1,81,7,ok,2,0,0.002,8,0.53,0.49,10.28,47,0.203,8.17
8.1709,-0.10996,-0.00873,1.34914,0.00000,0.00000,0.00000,55,5,46,-8,54,2,81,4,ok,2,0,0.002,8,0.84,-1.08,10.04,48,0.000,8.17
8.1908,-0.10996,-0.00873,1.34914,0.00000,0.00000,0.00000,55,6,43,-8,55,1,80,3,ok,2,0,0.002,8,0.84,-1.08,10.04,48,0.012,8.17
8.1956,-0.10996,-0.00873,1.34914,0.00000,0.00000,0.00000,57,6,41,-9,56,1,79,-1,ok,2,0,0.002,8,0.84,-1.08,10.04,48,0.025,8.17
8.2081,-0.10996,-0.00873,1.34914,0.00000,0.00000,0.00000,58,6,38,-8,57,0,79,-2,ok,2,0,0.002,8,0.84,-1.08,10.04,48,0.037,8.17
8.2308,-0.10996,-0.00873,1.34914,0.00000,0.00000,0.00000,59,7,35,-7,58,1,77,-4,ok,2,0,0.002,8,0.84,-1.08,10.04,48,0.050,8.17
8.2339,-0.10996,-0.00873,1.34914,0.00000,0.00000,0.00000,59,8,32,-5,58,2,76,-6,ok,2,0,0.002,8,0.84,-1.08,10.04,48,0.063,8.17
8.2468,-0.10996,-0.00873,1.34914,0.00000,0.00000,0.00000,60,8,28,-5,59,2,73,-6,ok,2,0,0.002,8,0.84,-1.08,10.04,48,0.076,8.17
8.2668,-0.10996,-0.00873,1.34914,0.00000,0.00000,0.00000,61,9,26,-3,60,2,72,-8,ok,2,0,0.002,8,0.84,-1.08,10.04,48,0.088,8.17
8.2716,-0.10996,-0.00873,1.34914,0.00000,0.00000,0.00000,62,10,21,-1,61,1,70,-10,ok,2,0,0.002,8,0.84,-1.08,10.04,48,0.101,8.17
8.2841,-0.10996,-0.00873,1.34914,0.00000,0.00000,0.00000,62,10,20,1,64,-1,68,-12,ok,2,0,0.002,8,0.84,-1.08,10.04,48,0.113,8.17
8.3068,-0.10996,-0.00873,1.34914,0.00000,0.00000,0.00000,63,11,18,2,64,0,65,-13,ok,2,0,0.002,8,0.84,-1.08,10.04,48,0.126,8.17
8.3100,-0.10996,-0.00873,1.34914,0.00000,0.00000,0.00000,64,11,16,4,65,1,64,-13,ok,2,0,0.002,8,0.84,-1.08,10.04,48,0.139,8.17
8.3225,-0.10996,-0.00873,1.34914,0.00000,0.00000,0.00000,64,12,14,7,65,0,61,-13,ok,2,0,0.002,8,0.84,-1.08,10.04,48,0.152,8.17
8.3428,-0.10996,-0.00873,1.34914,0.00000,0.00000,0.00000,64,13,12,10,66,1,59,-14,ok,2,0,0.002,8,0.84,-1.08,10.04,48,0.164,8.17
8.3475,-0.10996,-0.00873,1.34914,0.00000,0.00000,0.00000,65,14,11,13,67,1,56,-12,ok,2,0,0.002,8,0.84,-1.08,10.04,48,0.177,8.17
8.3604,-0.06283,0.07679,1.38754,0.00000,0.00000,0.00000,65,15,12,13,67,1,53,-12,ok,2,0,0.002,8,1.53,-0.61,9.77,49,0.000,8.17
8.3828,-0.06283,0.07679,1.38754,0.00000,0.00000,0.00000,66,16,12,13,68,2,51,-11,ok,2,0,0.002,8,1.53,-0.61,9.77,49,0.013,8.17
8.3860,-0.06283,0.07679,1.38754,0.00000,0.00000,0.00000,66,17,13,12,68,2,48,-11,ok,2,0,0.002,8,1.53,-0.61,9.77,49,0.026,8.17
8.3986,-0.06283,0.07679,1.38754,0.00000,0.00000,0.00000,66,18,15,11,68,3,45,-10,ok,2,0,0.002,8,1.53,-0.61,9.77,49,0.039,8.17
8.4188,-0.06283,0.07679,1.38754,0.00000,0.00000,0.00000,67,18,15,10,68,4,42,-9,ok,2,0,0.002,8,1.53,-0.61,9.77,49,0.051,8.17
8.4236,-0.06283,0.07679,1.38754,0.00000,0.00000,0.00000,68,19,17,9,69,4,40,-8,ok,2,0,0.002,8,1.53,-0.61,9.77,49,0.064,8.17
8.4361,-0.06283,0.07679,1.38754,0.00000,0.00000,0.00000,68,20,17,9,70,5,36,-6,ok,2,0,0.002,8,1.53,-0.61,9.77,49,0.076,8.17
8.4588,-0.06283,0.07679,1.38754,0.00000,0.00000,0.00000,68,21,19,8,71,6,35,-5,ok,2,0,0.002,8,1.53,-0.61,9.77,49,0.089,8.17
8.4620,-0.06283,0.07679,1.38754,0.00000,0.00000,0.00000,68,22,20,7,71,7,32,-3,ok,2,0,0.002,8,1.53,-0.61,9.77,49,0.102,8.17
8.4745,-0.06283,0.07679,1.38754,0.00000,0.00000,0.00000,68,23,22,7,70,8,30,0,ok,2,0,0.002,8,1.53,-0.61,9.77,49,0.115,8.17
8.4948,-0.06283,0.07679,1.38754,0.00000,0.00000,0.00000,68,24,23,6,71,9,29,2,ok,2,0,0.002,8,1.53,-0.61,9.77,49,0.127,8.17
8.4996,-0.06283,0.07679,1.38754,0.00000,0.00000,0.00000,67,25,24,5,71,10,28,6,ok,2,0,0.002,8,1.53,-0.61,9.77,49,0.139,8.17
8.5122,-0.06283,0.07679,1.38754,0.00000,0.00000,0.00000,67,28,25,5,71,11,27,8,ok,2,0,0.002,8,1.53,-0.61,9.77,49,0.152,8.17
8.5348,-0.06283,0.07679,1.38754,0.00000,0.00000,0.00000,66,29,27,4,71,13,29,7,ok,2,0,0.002,8,1.53,-0.61,9.77,49,0.164,8.17
8.5379,-0.06283,0.07679,1.38754,0.00000,0.00000,0.00000,67,28,28,4,71,14,30,6,ok,2,0,0.002,8,1.53,-0.61,9.77,49,0.178,8.17
8.5506,-0.06283,0.07679,1.38754,0.00000,0.00000,0.00000,69,25,29,3,72,15,31,4,ok,2,0,0.002,8,1.53,-0.61,9.77,49,0.191,8.17
8.5708,0.00698,0.04014,1.48528,0.00000,0.00000,0.00000,72,21,30,3,71,17,32,4,ok,2,0,0.002,8,0.07,0.39,10.81,50,0.000,8.17
8.5758,0.00698,0.04014,1.48528,0.00000,0.00000,0.00000,73,17,32,2,71,19,34,3,ok,2,0,0.002,8,0.07,0.39,10.81,50,0.013,8.17
8.5883,0.00698,0.04014,1.48528,0.00000,0.00000,0.00000,73,15,33,2,72,20,35,2,ok,2,0,0.002,8,0.07,0.39,10.81,50,0.025,8.17
8.6108,0.00698,0.04014,1.48528,0.00000,0.00000,0.00000,73,14,35,2,71,22,37,2,ok,2,0,0.002,8,0.07,0.39,10.81,50,0.038,8.17
8.6140,0.00698,0.04014,1.48528,0.00000,0.00000,0.00000,73,11,36,2,71,23,39,2,ok,2,0,0.002,8,0.07,0.39,10.81,50,0.051,8.17
8.6265,0.00698,0.04014,1.48528,0.00000,0.00000,0.00000,72,8,37,2,71,25,39,2,ok,2,0,0.003,8,0.07,0.39,10.81,50,0.064,8.17
8.6468,0.00698,0.04014,1.48528,0.00000,0.00000,0.00000,71,5,39,2,71,26,41,2,ok,2,0,0.003,8,0.07,0.39,10.81,50,0.076,8.17
8.6518,0.00698,0.04014,1.48528,0.00000,0.00000,0.00000,70,1,40,2,70,28,42,2,ok,2,0,0.003,9,0.07,0.39,10.81,50,0.089,8.17
8.6642,0.00698,0.04014,1.48528,0.00000,0.00000,0.00000,69,0,41,2,70,29,43,2,ok,2,0,0.003,9,0.07,0.39,10.81,50,0.101,8.17
8.6868,0.00698,0.04014,1.48528,0.00000,0.00000,0.00000,68,-3,43,2,70,29,44,1,ok,2,0,0.003,9,0.07,0.39,10.81,50,0.114,8.17
8.6900,0.00698,0.04014,1.48528,0.00000,0.00000,0.00000,66,-4,43,2,72,29,45,1,ok,2,0,0.003,9,0.07,0.39,10.81,50,0.127,8.17
8.7025,0.00698,0.04014,1.48528,0.00000,0.00000,0.00000,65,-6,45,3,73,27,47,1,ok,2,0,0.003,9,0.07,0.39,10.81,50,0.140,8.17
8.7228,0.00698,0.04014,1.48528,0.00000,0.00000,0.00000,64,-8,46,3,75,22,48,0,ok,2,0,0.003,9,0.07,0.39,10.81,50,0.152,8.17
8.7276,0.00698,0.04014,1.48528,0.00000,0.00000,0.00000,62,-9,48,4,76,18,49,1,ok,2,0,0.003,9,0.07,0.39,10.81,50,0.165,8.17
8.7402,0.00698,0.04014,1.48528,0.00000,0.00000,0.00000,60,-10,49,3,78,15,50,1,ok,2,0,0.003,9,0.07,0.39,10.81,50,0.177,8.17
8.7628,0.00698,0.04014,1.48528,0.00000,0.00000,0.00000,57,-10,50,3,78,14,50,1,ok,2,0,0.003,9,0.07,0.39,10.81,50,0.190,8.17
8.7662,0.07679,-0.02094,1.50273,0.00000,0.00000,0.00000,55,-11,50,5,78,12,51,1,ok,2,0,0.003,9,0.38,0.16,10.49,51,0.000,8.17
8.7787,0.07679,-0.02094,1.50273,0.00000,0.00000,0.00000,52,-11,51,6,78,8,53,1,ok,2,0,0.003,9,0.38,0.16,10.49,51,0.013,8.17
8.7988,0.07679,-0.02094,1.50273,0.00000,0.00000,0.00000,50,-11,52,6,78,5,54,0,ok,2,0,0.003,9,0.38,0.16,10.49,51,0.025,8.17
8.8035,0.07679,-0.02094,1.50273,0.00000,0.00000,0.00000,47,-11,53,6,77,3,55,0,ok,2,0,0.003,9,0.38,0.16,10.49,51,0.038,8.17
8.8161,0.07679,-0.02094,1.50273,0.00000,0.00000,0.00000,45,-11,53,7,76,0,55,1,ok,2,0,0.003,9,0.38,0.16,10.49,51,0.050,8.17
8.8388,0.07679,-0.02094,1.50273,0.00000,0.00000,0.00000,43,-11,55,7,76,-3,56,0,ok,2,0,0.003,9,0.38,0.16,10.49,51,0.063,8.17
8.8421,0.07679,-0.02094,1.50273,0.00000,0.00000,0.00000,40,-10,55,7,75,-4,57,1,ok,2,0,0.003,9,0.38,0.16,10.49,51,0.076,8.17
8.8548,0.07679,-0.02094,1.50273,0.00000,0.00000,0.00000,37,-9,56,8,73,-7,57,-1,ok,2,0,0.003,9,0.38,0.16,10.49,51,0.089,8.17
8.8748,0.07679,-0.02094,1.50273,0.00000,0.00000,0.00000,35,-7,57,9,70,-7,58,0,ok,2,0,0.003,9,0.38,0.16,10.49,51,0.101,8.17
8.8796,0.07679,-0.02094,1.50273,0.00000,0.00000,0.00000,31,-6,58,9,69,-9,58,0,ok,2,0,0.003,9,0.38,0.16,10.49,51,0.114,8.17
8.8922,0.07679,-0.02094,1.50273,0.00000,0.00000,0.00000,28,-4,58,10,68,-11,60,1,ok,2,0,0.003,9,0.38,0.16,10.49,51,0.126,8.17
8.9148,0.07679,-0.02094,1.50273,0.00000,0.00000,0.00000,24,-1,60,11,65,-12,61,0,ok,2,0,0.003,9,0.38,0.16,10.49,51,0.139,8.17
8.9180,0.07679,-0.02094,1.50273,0.00000,0.00000,0.00000,22,-1,61,11,63,-12,61,0,ok,2,0,0.003,9,0.38,0.16,10.49,51,0.152,8.17
8.9305,0.07679,-0.02094,1.50273,0.00000,0.00000,0.00000,21,1,61,12,62,-13,64,-2,ok,2,0,0.003,9,0.38,0.16,10.49,51,0.165,8.17
8.9508,0.07679,-0.02094,1.50273,0.00000,0.00000,0.00000,19,3,62,13,59,-14,64,-1,ok,2,0,0.003,9,0.38,0.16,10.49,51,0.177,8.17
8.9557,0.07679,-0.02094,1.50273,0.00000,0.00000,0.00000,16,7,62,13,57,-14,65,-1,ok,2,0,0.003,9,0.38,0.16,10.49,51,0.190,8.17
8.9684,0.10472,0.02094,1.52193,0.00000,0.00000,0.00000,15,10,62,15,54,-13,66,0,ok,2,0,0.003,9,0.31,1.40,9.12,52,0.000,8.17
8.9908,0.10472,0.02094,1.52193,0.00000,0.00000,0.00000,13,13,63,15,51,-12,66,-1,ok,2,0,0.003,9,0.31,1.40,9.12,52,0.013,8.17
8.9939,0.10472,0.02094,1.52193,0.00000,0.00000,0.00000,15,13,63,16,49,-12,67,0,ok,2,0,0.003,9,0.31,1.40,9.12,52,0.026,8.17
9.0065,0.10472,0.02094,1.52193,0.00000,0.00000,0.00000,15,13,63,17,46,-11,68,0,ok,2,0,0.003,9,0.31,1.40,9.12,52,0.039,8.17
9.0268,0.10472,0.02094,1.52193,0.00000,0.00000,0.00000,16,12,64,17,43,-11,69,1,ok,2,0,0.003,9,0.31,1.40,9.12,52,0.051,8.17
9.0316,0.10472,0.02094,1.52193,0.00000,0.00000,0.00000,17,12,64,18,40,-9,70,1,ok,2,0,0.003,9,0.31,1.40,9.12,52,0.064,8.17
9.0441,0.10472,0.02094,1.52193,0.00000,0.00000,0.00000,18,11,65,19,38,-9,70,2,ok,2,0,0.003,9,0.31,1.40,9.12,52,0.076,8.17
9.0668,0.10472,0.02094,1.52193,0.00000,0.00000,0.00000,20,10,65,20,34,-7,70,3,ok,2,0,0.003,9,0.31,1.40,9.12,52,0.089,8.17
9.0700,0.10472,0.02094,1.52193,0.00000,0.00000,0.00000,21,10,65,21,33,-6,71,3,ok,2,0,0.003,9,0.31,1.40,9.12,52,0.102,8.17
9.0826,0.10472,0.02094,1.52193,0.00000,0.00000,0.00000,23,9,65,22,31,-4,72,5,ok,2,0,0.003,9,0.31,1.40,9.12,52,0.115,8.17
9.1028,0.10472,0.02094,1.52193,0.00000,0.00000,0.00000,24,8,65,23,28,-1,72,5,ok,2,0,0.003,9,0.31,1.40,9.12,52,0.127,8.17
9.1076,0.10472,0.02094,1.52193,0.00000,0.00000,0.00000,25,7,65,23,27,1,72,7,ok,2,0,0.003,9,0.31,1.40,9.12,52,0.139,8.17
9.1201,0.10472,0.02094,1.52193,0.00000,0.00000,0.00000,27,6,65,25,26,5,72,8,ok,2,0,0.003,9,0.31,1.40,9.12,52,0.152,8.17
9.1428,0.10472,0.02094,1.52193,0.00000,0.00000,0.00000,28,6,64,25,25,7,73,9,ok,2,0,0.003,9,0.31,1.40,9.12,52,0.165,8.17
9.1459,0.10472,0.02094,1.52193,0.00000,0.00000,0.00000,29,6,63,28,27,7,73,10,ok,2,0,0.003,9,0.31,1.40,9.12,52,0.178,8.17
9.1588,0.07330,0.03665,1.48877,0.00000,0.00000,0.00000,30,5,63,29,28,6,73,12,ok,2,0,0.003,9,0.88,0.94,10.30,53,0.000,8.17
9.1788,0.07330,0.03665,1.48877,0.00000,0.00000,0.00000,31,4,64,28,29,4,73,13,ok,2,0,0.003,9,0.88,0.94,10.30,53,0.012,8.17
9.1835,0.07330,0.03665,1.48877,0.00000,0.00000,0.00000,33,3,67,25,30,3,74,15,ok,2,0,0.003,9,0.88,0.94,10.30,53,0.025,8.17
9.1962,0.07330,0.03665,1.48877,0.00000,0.00000,0.00000,34,3,69,21,31,3,74,16,ok,2,0,0.003,9,0.88,0.94,10.30,53,0.038,8.17
9.2188,0.07330,0.03665,1.48877,0.00000,0.00000,0.00000,35,2,70,18,32,3,73,18,ok,2,0,0.003,9,0.88,0.94,10.30,53,0.050,8.17
9.2220,0.07330,0.03665,1.48877,0.00000,0.00000,0.00000,37,2,71,15,33,2,73,20,ok,2,0,0.003,9,0.88,0.94,10.30,53,0.063,8.17
9.2347,0.07330,0.03665,1.48877,0.00000,0.00000,0.00000,38,1,71,15,36,2,74,21,ok,2,0,0.003,9,0.88,0.94,10.30,53,0.076,8.17
9.2548,0.07330,0.03665,1.48877,0.00000,0.00000,0.00000,40,1,71,11,36,2,73,23,ok,2,0,0.003,9,0.88,0.94,10.30,53,0.089,8.17
9.2598,0.07330,0.03665,1.48877,0.00000,0.00000,0.00000,41,1,70,9,38,2,73,24,ok,2,0,0.003,9,0.88,0.94,10.30,53,0.101,8.17
9.2721,0.07330,0.03665,1.48877,0.00000,0.00000,0.00000,42,1,70,6,39,2,73,25,ok,2,0,0.003,9,0.88,0.94,10.30,53,0.114,8.17
9.2948,0.07330,0.03665,1.48877,0.00000,0.00000,0.00000,44,0,69,3,40,2,73,27,ok,2,0,0.003,9,0.88,0.94,10.30,53,0.126,8.17
9.2980,0.07330,0.03665,1.48877,0.00000,0.00000,0.00000,45,0,68,1,41,2,73,28,ok,2,0,0.003,9,0.88,0.94,10.30,53,0.139,8.17
9.3107,0.07330,0.03665,1.48877,0.00000,0.00000,0.00000,47,0,67,0,43,2,73,29,ok,2,0,0.003,9,0.88,0.94,10.30,53,0.152,8.17
9.3308,0.07330,0.03665,1.48877,0.00000,0.00000,0.00000,47,0,65,-1,44,1,74,29,ok,2,0,0.003,9,0.88,0.94,10.30,53,0.165,8.17
9.3355,0.07330,0.03665,1.48877,0.00000,0.00000,0.00000,48,1,64,-4,45,1,75,29,ok,2,0,0.003,9,0.88,0.94,10.30,53,0.177,8.17
9.3482,0.07330,0.03665,1.48877,0.00000,0.00000,0.00000,50,1,63,-6,47,1,77,26,ok,2,0,0.003,9,0.88,0.94,10.30,53,0.190,8.17
9.3708,-0.09250,-0.00524,1.55160,0.00000,0.00000,0.00000,51,2,61,-7,47,1,79,21,ok,2,0,0.003,9,1.61,-1.01,10.64,54,0.000,8.17
9.3740,-0.09250,-0.00524,1.55160,0.00000,0.00000,0.00000,52,1,58,-7,48,0,80,18,ok,2,0,0.003,9,1.61,-1.01,10.64,54,0.013,8.17
9.3866,-0.09250,-0.00524,1.55160,0.00000,0.00000,0.00000,53,1,56,-8,49,0,81,15,ok,2,0,0.003,9,1.61,-1.01,10.64,54,0.026,8.17
9.4068,-0.09250,-0.00524,1.55160,0.00000,0.00000,0.00000,53,3,53,-9,51,0,82,14,ok,2,0,0.003,9,1.61,-1.01,10.64,54,0.039,8.17
9.4116,-0.09250,-0.00524,1.55160,0.00000,0.00000,0.00000,54,4,51,-8,52,0,82,11,ok,2,0,0.003,9,1.61,-1.01,10.64,54,0.051,8.17
9.4242,-0.09250,-0.00524,1.55160,0.00000,0.00000,0.00000,54,4,48,-9,53,1,81,8,ok,2,0,0.003,9,1.61,-1.01,10.64,54,0.064,8.17
9.4468,-0.09250,-0.00524,1.55160,0.00000,0.00000,0.00000,55,5,46,-8,54,1,81,4,ok,2,0,0.003,9,1.61,-1.01,10.64,54,0.076,8.17
9.4500,-0.09250,-0.00524,1.55160,0.00000,0.00000,0.00000,55,6,43,-8,55,1,80,3,ok,2,0,0.003,9,1.61,-1.01,10.64,54,0.089,8.17
9.4628,-0.09250,-0.00524,1.55160,0.00000,0.00000,0.00000,57,6,41,-9,56,2,79,-1,ok,2,0,0.003,9,1.61,-1.01,10.64,54,0.102,8.17
9.4828,-0.09250,-0.00524,1.55160,0.00000,0.00000,0.00000,57,6,38,-8,57,1,79,-3,ok,2,0,0.003,9,1.61,-1.01,10.64,54,0.114,8.17
9.4876,-0.09250,-0.00524,1.55160,0.00000,0.00000,0.00000,59,7,35,-7,58,2,77,-4,ok,2,0,0.003,9,1.61,-1.01,10.64,54,0.127,8.17
9.5001,-0.09250,-0.00524,1.55160,0.00000,0.00000,0.00000,59,8,32,-5,58,2,75,-6,ok,2,0,0.003,9,1.61,-1.01,10.64,54,0.140,8.17
9.5228,-0.09250,-0.00524,1.55160,0.00000,0.00000,0.00000,60,8,28,-5,59,2,72,-7,ok,2,0,0.003,9,1.61,-1.01,10.64,54,0.152,8.17
9.5260,-0.09250,-0.00524,1.55160,0.00000,0.00000,0.00000,61,9,26,-3,60,2,71,-8,ok,2,0,0.003,9,1.61,-1.01,10.64,54,0.165,8.17
9.5388,-0.09250,-0.00524,1.55160,0.00000,0.00000,0.00000,62,10,21,-1,61,1,70,-10,ok,2,0,0.003,9,1.61,-1.01,10.64,54,0.178,8.17
9.5589,-0.09250,-0.00524,1.55160,0.00000,0.00000,0.00000,63,10,20,0,63,-1,68,-11,ok,2,0,0.003,9,1.61,-1.01,10.64,54,0.191,8.17
9.5638,-0.03491,-0.03316,1.60047,0.00000,0.00000,0.00000,64,11,18,2,64,0,65,-13,ok,2,0,0.003,9,-0.12,-0.55,10.31,55,0.000,8.17
9.5761,-0.03491,-0.03316,1.60047,0.00000,0.00000,0.00000,64,12,16,4,65,1,64,-13,ok,2,0,0.003,9,-0.12,-0.55,10.31,55,0.013,8.17
9.5988,-0.03491,-0.03316,1.60047,0.00000,0.00000,0.00000,65,12,14,7,65,1,61,-14,ok,2,0,0.003,9,-0.12,-0.55,10.31,55,0.025,8.17
9.6020,-0.03491,-0.03316,1.60047,0.00000,0.00000,0.00000,65,14,12,11,66,1,59,-14,ok,2,0,0.003,9,-0.12,-0.55,10.31,55,0.038,8.17
9.6145,-0.03491,-0.03316,1.60047,0.00000,0.00000,0.00000,65,14,11,13,66,1,56,-12,ok,2,0,0.003,9,-0.12,-0.55,10.31,55,0.051,8.17
9.6348,-0.03491,-0.03316,1.60047,0.00000,0.00000,0.00000,66,15,12,13,67,1,53,-12,ok,2,0,0.003,9,-0.12,-0.55,10.31,55,0.063,8.17
9.6396,-0.03491,-0.03316,1.60047,0.00000,0.00000,0.00000,66,16,12,13,68,2,51,-12,ok,2,0,0.003,9,-0.12,-0.55,10.31,55,0.076,8.17
9.6522,-0.03491,-0.03316,1.60047,0.00000,0.00000,0.00000,67,17,13,12,68,2,48,-11,ok,2,0,0.003,9,-0.12,-0.55,10.31,55,0.089,8.17
9.6748,-0.03491,-0.03316,1.60047,0.00000,0.00000,0.00000,67,18,15,11,68,3,46,-10,ok,2,0,0.003,9,-0.12,-0.55,10.31,55,0.101,8.17
9.6781,-0.03491,-0.03316,1.60047,0.00000,0.00000,0.00000,68,18,15,11,68,3,42,-9,ok,2,0,0.003,10,-0.12,-0.55,10.31,55,0.114,8.17
9.6906,-0.03491,-0.03316,1.60047,0.00000,0.00000,0.00000,68,19,17,9,69,4,40,-8,ok,2,0,0.003,10,-0.12,-0.55,10.31,55,0.127,8.17
9.7108,-0.03491,-0.03316,1.60047,0.00000,0.00000,0.00000,68,20,17,9,69,5,36,-6,ok,2,0,0.003,10,-0.12,-0.55,10.31,55,0.140,8.17
9.7157,-0.03491,-0.03316,1.60047,0.00000,0.00000,0.00000,69,21,19,8,70,5,35,-5,ok,2,0,0.003,10,-0.12,-0.55,10.31,55,0.152,8.17
9.7282,-0.03491,-0.03316,1.60047,0.00000,0.00000,0.00000,69,22,21,7,70,7,32,-3,ok,2,0,0.003,10,-0.12,-0.55,10.31,55,0.165,8.17
9.7508,-0.03491,-0.03316,1.60047,0.00000,0.00000,0.00000,68,23,22,7,70,8,30,0,ok,2,0,0.003,10,-0.12,-0.55,10.31,55,0.177,8.17
9.7540,-0.03491,-0.03316,1.60047,0.00000,0.00000,0.00000,68,24,23,6,70,9,29,2,ok,2,0,0.003,10,-0.12,-0.55,10.31,55,0.190,8.17
9.7668,0.10647,-0.03316,1.62141,0.00000,0.00000,0.00000,68,25,24,6,71,9,28,6,ok,2,0,0.003,10,-0.72,1.19,10.89,56,0.000,8.17
9.7908,0.10647,-0.03316,1.62141,0.00000,0.00000,0.00000,67,28,26,5,71,11,27,7,ok,2,0,0.003,10,-0.72,1.19,10.89,56,0.013,8.17
9.7941,0.10647,-0.03316,1.62141,0.00000,0.00000,0.00000,66,29,27,4,70,13,30,6,ok,2,0,0.003,10,-0.72,1.19,10.89,56,0.027,8.17
9.8066,0.10647,-0.03316,1.62141,0.00000,0.00000,0.00000,67,28,28,4,70,14,30,6,ok,2,0,0.003,10,-0.72,1.19,10.89,56,0.040,8.17
9.8268,0.10647,-0.03316,1.62141,0.00000,0.00000,0.00000,70,25,30,3,71,15,31,4,ok,2,0,0.003,10,-0.72,1.19,10.89,56,0.053,8.17
9.8316,0.10647,-0.03316,1.62141,0.00000,0.00000,0.00000,72,21,31,3,70,16,32,3,ok,2,0,0.003,10,-0.72,1.19,10.89,56,0.065,8.17
9.8440,0.10647,-0.03316,1.62141,0.00000,0.00000,0.00000,73,17,32,3,70,18,34,3,ok,2,0,0.003,10,-0.72,1.19,10.89,56,0.078,8.17
9.8668,0.10647,-0.03316,1.62141,0.00000,0.00000,0.00000,74,15,33,2,71,19,35,2,ok,2,0,0.003,10,-0.72,1.19,10.89,56,0.090,8.17
9.8699,0.10647,-0.03316,1.62141,0.00000,0.00000,0.00000,73,14,35,2,70,21,37,1,ok,2,0,0.003,10,-0.72,1.19,10.89,56,0.103,8.17
9.8827,0.10647,-0.03316,1.62141,0.00000,0.00000,0.00000,73,11,36,2,70,22,39,1,ok,2,0,0.003,10,-0.72,1.19,10.89,56,0.116,8.17
9.9028,0.10647,-0.03316,1.62141,0.00000,0.00000,0.00000,73,8,37,2,70,24,40,2,ok,2,0,0.003,10,-0.72,1.19,10.89,56,0.129,8.17
9.9078,0.10647,-0.03316,1.62141,0.00000,0.00000,0.00000,72,5,39,2,70,26,41,2,ok,2,0,0.003,10,-0.72,1.19,10.89,56,0.141,8.17
9.9201,0.10647,-0.03316,1.62141,0.00000,0.00000,0.00000,71,1,40,2,69,28,43,2,ok,2,0,0.003,10,-0.72,1.19,10.89,56,0.154,8.17
9.9428,0.10647,-0.03316,1.62141,0.00000,0.00000,0.00000,70,-1,41,2,69,29,44,2,ok,2,0,0.003,10,-0.72,1.19,10.89,56,0.166,8.17
9.9460,0.10647,-0.03316,1.62141,0.00000,0.00000,0.00000,69,-3,43,2,70,29,45,1,ok,2,0,0.003,10,-0.72,1.19,10.89,56,0.179,8.17
9.9589,0.10647,-0.03316,1.62141,0.00000,0.00000,0.00000,66,-4,43,2,71,29,46,1,ok,2,0,0.003,10,-0.72,1.19,10.89,56,0.192,8.17
9.9788,0.05585,0.01920,1.65108,0.00000,0.00000,0.00000,66,-6,45,3,73,26,47,0,ok,2,0,0.003,10,-0.27,0.16,9.62,57,0.000,8.17
9.9836,0.05585,0.01920,1.65108,0.00000,0.00000,0.00000,65,-8,46,3,75,22,48,0,ok,2,0,0.003,10,-0.27,0.16,9.62,57,0.012,8.17
9.9960,0.05585,0.01920,1.65108,0.00000,0.00000,0.00000,62,-9,47,4,76,17,49,1,ok,2,0,0.003,10,-0.27,0.16,9.62,57,0.025,8.17
10.0188,0.05585,0.01920,1.65108,0.00000,0.00000,0.00000,60,-10,48,3,78,15,50,1,ok,2,0,0.003,10,-0.27,0.16,9.62,57,0.038,8.17
10.0304,0.05585,0.01920,1.65108,0.00000,0.00000,0.00000,58,-10,49,3,78,14,51,1,ok,2,0,0.003,10,-0.27,0.16,9.62,57,0.051,8.17
10.0346,0.05585,0.01920,1.65108,0.00000,0.00000,0.00000,55,-11,49,5,78,12,52,1,ok,2,0,0.003,10,-0.27,0.16,9.62,57,0.063,8.17
10.0549,0.05585,0.01920,1.65108,0.00000,0.00000,0.00000,53,-11,51,6,78,8,53,1,ok,2,0,0.003,10,-0.27,0.16,9.62,57,0.076,8.17
10.0596,0.05585,0.01920,1.65108,0.00000,0.00000,0.00000,50,-11,52,6,77,5,54,1,ok,2,0,0.003,10,-0.27,0.16,9.62,57,0.088,8.17
10.0723,0.05585,0.01920,1.65108,0.00000,0.00000,0.00000,48,-11,52,7,77,3,55,0,ok,2,0,0.003,10,-0.27,0.16,9.62,57,0.101,8.17
10.0948,0.05585,0.01920,1.65108,0.00000,0.00000,0.00000,45,-11,53,7,76,0,55,1,ok,2,0,0.003,10,-0.27,0.16,9.62,57,0.113,8.17
10.0980,0.05585,0.01920,1.65108,0.00000,0.00000,0.00000,43,-11,55,8,75,-2,56,0,ok,2,0,0.003,10,-0.27,0.16,9.62,57,0.127,8.17
10.1106,0.05585,0.01920,1.65108,0.00000,0.00000,0.00000,40,-10,55,8,74,-4,57,1,ok,2,0,0.003,10,-0.27,0.16,9.62,57,0.140,8.17
10.1308,0.05585,0.01920,1.65108,0.00000,0.00000,0.00000,37,-9,56,8,73,-7,58,0,ok,2,0,0.003,10,-0.27,0.16,9.62,57,0.152,8.17
10.1356,0.05585,0.01920,1.65108,0.00000,0.00000,0.00000,35,-8,57,9,70,-6,58,0,ok,2,0,0.003,10,-0.27,0.16,9.62,57,0.165,8.17
10.1481,0.05585,0.01920,1.65108,0.00000,0.00000,0.00000,31,-6,57,9,69,-9,59,0,ok,2,0,0.003,10,-0.27,0.16,9.62,57,0.177,8.17
10.1708,0.05585,0.01920,1.65108,0.00000,0.00000,0.00000,29,-4,58,10,68,-10,60,1,ok,2,0,0.003,10,-0.27,0.16,9.62,57,0.190,8.17
10.1743,0.12915,-0.01571,1.66155,0.00000,0.00000,0.00000,24,-2,59,11,65,-11,61,1,ok,2,0,0.003,10,-0.45,1.16,9.51,58,0.000,8.17
10.1867,0.12915,-0.01571,1.66155,0.00000,0.00000,0.00000,23,-1,60,11,63,-12,62,0,ok,2,0,0.003,10,-0.45,1.16,9.51,58,0.013,8.17
10.2068,0.12915,-0.01571,1.66155,0.00000,0.00000,0.00000,21,1,61,12,61,-12,64,-2,ok,2,0,0.003,10,-0.45,1.16,9.51,58,0.025,8.17
10.2116,0.12915,-0.01571,1.66155,0.00000,0.00000,0.00000,19,3,62,13,59,-13,64,-1,ok,2,0,0.003,10,-0.45,1.16,9.51,58,0.038,8.17
10.2242,0.12915,-0.01571,1.66155,0.00000,0.00000,0.00000,16,7,62,13,57,-14,65,-1,ok,2,0,0.003,10,-0.45,1.16,9.51,58,0.050,8.17
10.2468,0.12915,-0.01571,1.66155,0.00000,0.00000,0.00000,15,10,62,14,54,-13,66,0,ok,2,0,0.003,10,-0.45,1.16,9.51,58,0.063,8.17
10.2499,0.12915,-0.01571,1.66155,0.00000,0.00000,0.00000,13,13,63,15,51,-12,66,-1,ok,2,0,0.003,10,-0.45,1.16,9.51,58,0.076,8.17
10.2626,0.12915,-0.01571,1.66155,0.00000,0.00000,0.00000,15,13,63,16,49,-12,67,0,ok,2,0,0.003,10,-0.45,1.16,9.51,58,0.089,8.17
10.2828,0.12915,-0.01571,1.66155,0.00000,0.00000,0.00000,15,13,63,17,46,-11,68,0,ok,2,0,0.003,10,-0.45,1.16,9.51,58,0.101,8.17
10.2878,0.12915,-0.01571,1.66155,0.00000,0.00000,0.00000,16,12,64,17,43,-11,69,1,ok,2,0,0.003,10,-0.45,1.16,9.51,58,0.114,8.17
10.3001,0.12915,-0.01571,1.66155,0.00000,0.00000,0.00000,18,12,64,18,40,-9,70,1,ok,2,0,0.003,10,-0.45,1.16,9.51,58,0.126,8.17
10.3228,0.12915,-0.01571,1.66155,0.00000,0.00000,0.00000,18,11,65,19,37,-9,70,2,ok,2,0,0.003,10,-0.45,1.16,9.51,58,0.139,8.17
10.3259,0.12915,-0.01571,1.66155,0.00000,0.00000,0.00000,20,10,65,20,34,-7,71,3,ok,2,0,0.003,10,-0.45,1.16,9.51,58,0.152,8.17
10.3386,0.12915,-0.01571,1.66155,0.00000,0.00000,0.00000,21,10,65,21,32,-6,71,3,ok,2,0,0.003,10,-0.45,1.16,9.51,58,0.165,8.17
10.3588,0.12915,-0.01571,1.66155,0.00000,0.00000,0.00000,23,9,65,22,30,-4,72,5,ok,2,0,0.003,10,-0.45,1.16,9.51,58,0.177,8.17
10.3639,0.11519,0.07505,1.65283,0.00000,0.00000,0.00000,24,8,65,23,28,-1,73,5,ok,2,0,0.003,10,1.44,1.39,10.07,59,0.000,8.17
10.3761,0.11519,0.07505,1.65283,0.00000,0.00000,0.00000,25,7,65,23,27,1,73,7,ok,2,0,0.003,10,1.44,1.39,10.07,59,0.013,8.17
10.3988,0.11519,0.07505,1.65283,0.00000,0.00000,0.00000,27,6,65,24,26,5,73,8,ok,2,0,0.003,10,1.44,1.39,10.07,59,0.025,8.17
10.4019,0.11519,0.07505,1.65283,0.00000,0.00000,0.00000,28,6,64,25,25,7,73,9,ok,2,0,0.003,10,1.44,1.39,10.07,59,0.038,8.17
10.4146,0.11519,0.07505,1.65283,0.00000,0.00000,0.00000,29,6,63,28,27,7,73,10,ok,2,0,0.003,10,1.44,1.39,10.07,59,0.051,8.17
10.4348,0.11519,0.07505,1.65283,0.00000,0.00000,0.00000,30,5,63,29,27,6,73,12,ok,2,0,0.003,10,1.44,1.39,10.07,59,0.064,8.17
10.4398,0.11519,0.07505,1.65283,0.00000,0.00000,0.00000,32,4,64,28,29,4,73,13,ok,2,0,0.003,10,1.44,1.39,10.07,59,0.076,8.17
10.4521,0.11519,0.07505,1.65283,0.00000,0.00000,0.00000,33,3,67,25,30,4,74,15,ok,2,0,0.003,10,1.44,1.39,10.07,59,0.089,8.17
10.4748,0.11519,0.07505,1.65283,0.00000,0.00000,0.00000,34,3,69,21,31,4,74,16,ok,2,0,0.003,10,1.44,1.39,10.07,59,0.101,8.17
10.4779,0.11519,0.07505,1.65283,0.00000,0.00000,0.00000,36,2,70,18,32,3,74,18,ok,2,0,0.003,10,1.44,1.39,10.07,59,0.114,8.17
10.4906,0.11519,0.07505,1.65283,0.00000,0.00000,0.00000,37,2,70,15,33,2,74,20,ok,2,0,0.003,10,1.44,1.39,10.07,59,0.127,8.17
10.5108,0.11519,0.07505,1.65283,0.00000,0.00000,0.00000,38,1,70,15,36,3,74,21,ok,2,0,0.003,10,1.44,1.39,10.07,59,0.140,8.17
10.5156,0.11519,0.07505,1.65283,0.00000,0.00000,0.00000,40,1,70,11,36,3,73,23,ok,2,0,0.003,10,1.44,1.39,10.07,59,0.152,8.17
10.5281,0.11519,0.07505,1.65283,0.00000,0.00000,0.00000,41,1,70,9,38,3,73,24,ok,2,0,0.003,10,1.44,1.39,10.07,59,0.165,8.17
10.5508,0.11519,0.07505,1.65283,0.00000,0.00000,0.00000,43,1,69,6,39,2,74,25,ok,2,0,0.003,10,1.44,1.39,10.07,59,0.177,8.17
10.5539,0.11519,0.07505,1.65283,0.00000,0.00000,0.00000,44,0,69,3,40,3,74,27,ok,2,0,0.003,10,1.44,1.39,10.07,59,0.190,8.17
10.5670,-0.06632,-0.03142,1.62665,0.00000,0.00000,0.00000,45,0,68,1,41,2,73,28,ok,2,0,0.003,10,0.09,-0.64,9.21,60,0.000,8.17
10.5868,-0.06632,-0.03142,1.62665,0.00000,0.00000,0.00000,47,0,67,0,43,1,73,30,ok,2,0,0.003,10,0.09,-0.64,9.21,60,0.013,8.17
10.5916,-0.06632,-0.03142,1.62665,0.00000,0.00000,0.00000,47,0,65,-1,44,0,74,30,ok,2,0,0.003,10,0.09,-0.64,9.21,60,0.025,8.17
10.6041,-0.06632,-0.03142,1.62665,0.00000,0.00000,0.00000,49,0,64,-3,45,0,75,30,ok,2,0,0.003,10,0.09,-0.64,9.21,60,0.038,8.17
10.6268,-0.06632,-0.03142,1.62665,0.00000,0.00000,0.00000,50,0,63,-5,46,0,77,27,ok,2,0,0.003,10,0.09,-0.64,9.21,60,0.050,8.17
10.6300,-0.06632,-0.03142,1.62665,0.00000,0.00000,0.00000,51,1,61,-6,47,0,79,21,ok,2,0,0.003,10,0.09,-0.64,9.21,60,0.063,8.17
10.6426,-0.06632,-0.03142,1.62665,0.00000,0.00000,0.00000,52,1,59,-7,48,0,80,18,ok,2,0,0.003,10,0.09,-0.64,9.21,60,0.076,8.17
10.6628,-0.06632,-0.03142,1.62665,0.00000,0.00000,0.00000,52,1,56,-7,49,0,82,14,ok,2,0,0.003,10,0.09,-0.64,9.21,60,0.089,8.17
10.6678,-0.06632,-0.03142,1.62665,0.00000,0.00000,0.00000,52,3,54,-9,50,0,82,14,ok,2,0,0.003,10,0.09,-0.64,9.21,60,0.101,8.17
10.6801,-0.06632,-0.03142,1.62665,0.00000,0.00000,0.00000,53,4,51,-8,52,1,81,11,ok,2,0,0.003,10,0.09,-0.64,9.21,60,0.114,8.17
10.7028,-0.06632,-0.03142,1.62665,0.00000,0.00000,0.00000,54,4,48,-8,53,1,81,7,ok,2,0,0.003,11,0.09,-0.64,9.21,60,0.126,8.17
10.7062,-0.06632,-0.03142,1.62665,0.00000,0.00000,0.00000,55,5,46,-8,54,1,81,4,ok,2,0,0.003,11,0.09,-0.64,9.21,60,0.139,8.17
10.7186,-0.06632,-0.03142,1.62665,0.00000,0.00000,0.00000,55,6,43,-8,55,1,80,3,ok,2,0,0.003,11,0.09,-0.64,9.21,60,0.152,8.17
10.7388,-0.06632,-0.03142,1.62665,0.00000,0.00000,0.00000,57,6,41,-9,56,1,79,-1,ok,2,0,0.003,11,0.09,-0.64,9.21,60,0.165,8.17
10.7437,-0.06632,-0.03142,1.62665,0.00000,0.00000,0.00000,58,6,38,-8,57,1,78,-3,ok,2,0,0.003,11,0.09,-0.64,9.21,60,0.177,8.17
10.7561,-0.06632,-0.03142,1.62665,0.00000,0.00000,0.00000,59,7,35,-7,57,1,77,-4,ok,2,0,0.003,11,0.09,-0.64,9.21,60,0.190,8.17
10.7788,-0.06632,-0.03142,1.62665,0.00000,0.00000,0.00000,59,8,32,-5,58,2,75,-6,ok,2,0,0.003,11,0.09,-0.64,9.21,60,0.202,8.17
10.7822,-0.09425,0.00175,1.67552,0.00000,0.00000,0.00000,60,8,28,-4,59,2,72,-7,ok,2,0,0.003,11,0.15,-0.17,10.08,61,0.000,8.17
10.7946,-0.09425,0.00175,1.67552,0.00000,0.00000,0.00000,61,9,26,-3,60,2,71,-8,ok,2,0,0.003,11,0.15,-0.17,10.08,61,0.013,8.17
10.8148,-0.09425,0.00175,1.67552,0.00000,0.00000,0.00000,63,10,21,-1,61,1,70,-10,ok,2,0,0.003,11,0.15,-0.17,10.08,61,0.025,8.17
10.8196,-0.09425,0.00175,1.67552,0.00000,0.00000,0.00000,63,10,19,1,63,-1,68,-11,ok,2,0,0.003,11,0.15,-0.17,10.08,61,0.038,8.17
10.8323,-0.09425,0.00175,1.67552,0.00000,0.00000,0.00000,64,11,18,2,64,0,66,-12,ok,2,0,0.003,11,0.15,-0.17,10.08,61,0.050,8.17
10.8548,-0.09425,0.00175,1.67552,0.00000,0.00000,0.00000,64,12,16,4,64,1,64,-13,ok,2,0,0.003,11,0.15,-0.17,10.08,61,0.063,8.17
10.8579,-0.09425,0.00175,1.67552,0.00000,0.00000,0.00000,65,12,14,7,65,1,61,-13,ok,2,0,0.003,11,0.15,-0.17,10.08,61,0.076,8.17
10.8706,-0.09425,0.00175,1.67552,0.00000,0.00000,0.00000,65,14,12,11,65,1,59,-14,ok,2,0,0.003,11,0.15,-0.17,10.08,61,0.089,8.17
10.8908,-0.09425,0.00175,1.67552,0.00000,0.00000,0.00000,66,14,10,13,66,1,56,-12,ok,2,0,0.003,11,0.15,-0.17,10.08,61,0.101,8.17
10.8956,-0.09425,0.00175,1.67552,0.00000,0.00000,0.00000,66,15,12,13,67,1,54,-12,ok,2,0,0.003,11,0.15,-0.17,10.08,61,0.114,8.17
10.9080,-0.09425,0.00175,1.67552,0.00000,0.00000,0.00000,66,16,12,13,68,2,51,-11,ok,2,0,0.003,11,0.15,-0.17,10.08,61,0.126,8.17
10.9308,-0.09425,0.00175,1.67552,0.00000,0.00000,0.00000,67,17,13,12,68,2,48,-11,ok,2,0,0.003,11,0.15,-0.17,10.08,61,0.139,8.17
10.9339,-0.09425,0.00175,1.67552,0.00000,0.00000,0.00000,67,18,15,11,68,3,46,-10,ok,2,0,0.003,11,0.15,-0.17,10.08,61,0.152,8.17
10.9467,-0.09425,0.00175,1.67552,0.00000,0.00000,0.00000,67,18,15,11,68,3,42,-9,ok,2,0,0.003,11,0.15,-0.17,10.08,61,0.165,8.17
10.9668,-0.09425,0.00175,1.67552,0.00000,0.00000,0.00000,68,19,17,9,69,4,40,-8,ok,2,0,0.003,11,0.15,-0.17,10.08,61,0.177,8.17
10.9716,-0.09425,0.00175,1.67552,0.00000,0.00000,0.00000,68,20,17,9,69,5,36,-6,ok,2,0,0.003,11,0.15,-0.17,10.08,61,0.190,8.17
10.9843,0.04189,-0.02618,1.70344,0.00000,0.00000,0.00000,69,21,19,8,70,6,35,-5,ok,2,0,0.003,11,0.20,0.18,8.82,62,0.000,8.17
11.0068,0.04189,-0.02618,1.70344,0.00000,0.00000,0.00000,69,22,21,7,70,7,33,-3,ok,2,0,0.003,11,0.20,0.18,8.82,62,0.013,8.17
11.0099,0.04189,-0.02618,1.70344,0.00000,0.00000,0.00000,68,23,22,7,70,8,30,-1,ok,2,0,0.003,11,0.20,0.18,8.82,62,0.026,8.17
11.0226,0.04189,-0.02618,1.70344,0.00000,0.00000,0.00000,68,24,23,6,70,9,29,2,ok,2,0,0.003,11,0.20,0.18,8.82,62,0.039,8.17
11.0428,0.04189,-0.02618,1.70344,0.00000,0.00000,0.00000,68,25,25,5,71,10,28,5,ok,2,0,0.003,11,0.20,0.18,8.82,62,0.051,8.17
11.0476,0.04189,-0.02618,1.70344,0.00000,0.00000,0.00000,67,28,26,5,71,11,27,7,ok,2,0,0.003,11,0.20,0.18,8.82,62,0.063,8.17
11.0600,0.04189,-0.02618,1.70344,0.00000,0.00000,0.00000,66,29,27,4,70,13,29,6,ok,2,0,0.003,11,0.20,0.18,8.82,62,0.076,8.17
11.0828,0.04189,-0.02618,1.70344,0.00000,0.00000,0.00000,68,28,28,4,71,14,30,6,ok,2,0,0.003,11,0.20,0.18,8.82,62,0.089,8.17
11.0859,0.04189,-0.02618,1.70344,0.00000,0.00000,0.00000,70,25,29,3,71,15,31,4,ok,2,0,0.003,11,0.20,0.18,8.82,62,0.102,8.17
11.0986,0.04189,-0.02618,1.70344,0.00000,0.00000,0.00000,73,21,30,3,70,16,32,3,ok,2,0,0.003,11,0.20,0.18,8.82,62,0.114,8.17
11.1188,0.04189,-0.02618,1.70344,0.00000,0.00000,0.00000,73,17,32,2,70,18,34,3,ok,2,0,0.003,11,0.20,0.18,8.82,62,0.127,8.17
11.1236,0.04189,-0.02618,1.70344,0.00000,0.00000,0.00000,74,15,33,3,71,19,35,2,ok,2,0,0.003,11,0.20,0.18,8.82,62,0.139,8.17
11.1361,0.04189,-0.02618,1.70344,0.00000,0.00000,0.00000,73,14,35,2,70,21,37,2,ok,2,0,0.003,11,0.20,0.18,8.82,62,0.152,8.17
11.1588,0.04189,-0.02618,1.70344,0.00000,0.00000,0.00000,73,11,36,2,70,22,39,2,ok,2,0,0.003,11,0.20,0.18,8.82,62,0.164,8.17
11.1621,0.04189,-0.02618,1.70344,0.00000,0.00000,0.00000,73,7,37,3,70,24,40,2,ok,2,0,0.003,11,0.20,0.18,8.82,62,0.178,8.17
11.1746,0.04189,-0.02618,1.70344,0.00000,0.00000,0.00000,72,5,39,3,70,26,41,2,ok,2,0,0.003,11,0.20,0.18,8.82,62,0.191,8.17
11.1948,0.02443,0.06283,1.77500,0.00000,0.00000,0.00000,71,1,40,2,69,28,43,2,ok,2,0,0.003,11,-0.21,1.14,9.77,63,0.000,8.17
