# run_gait log  cmd_fwd=0.100 hz=80.0 fw_balance=off policy_yaw_sign=-1
t,roll,pitch,yaw,gx,gy,gz,j0,j1,j2,j3,j4,j5,j6,j7,guard_state,hottest_j,hottest_tier,hottest_frac,duty_s,steer_u,ax,ay,az,imu_n,imu_age_s,volt
0.0354,-0.01571,0.01745,0.00000,0.00000,0.00000,0.00000,21,-1,59,7,66,-12,61,0,ok,4,0,0.000,0,0.0000,0.15,-0.14,10.01,2,0.000,nan
0.0390,-0.01571,0.01745,0.00000,0.00000,0.00000,0.00000,19,0,61,8,64,-12,63,-1,ok,4,0,0.000,0,0.0000,0.15,-0.14,10.01,2,0.026,nan
0.0519,-0.01571,0.01745,0.00000,0.00000,0.00000,0.00000,17,2,61,9,61,-13,64,0,ok,4,0,0.000,0,0.0000,0.15,-0.14,10.01,2,0.038,8.21
0.0714,-0.01571,0.01745,0.00000,0.00000,0.00000,0.00000,15,6,62,9,59,-13,64,0,ok,4,0,0.000,0,0.0000,0.15,-0.14,10.01,2,0.051,8.21
0.0765,-0.01571,0.01745,0.00000,0.00000,0.00000,0.00000,13,9,62,11,56,-13,65,1,ok,4,0,0.000,0,0.0000,0.15,-0.14,10.01,2,0.063,8.21
0.0889,-0.01571,0.01745,0.00000,0.00000,0.00000,0.00000,11,11,63,11,53,-12,65,1,ok,4,0,0.000,0,0.0000,0.15,-0.14,10.01,2,0.076,8.21
0.1114,-0.01571,0.01745,0.00000,0.00000,0.00000,0.00000,13,12,63,12,51,-12,66,2,ok,4,0,0.000,0,0.0000,0.15,-0.14,10.01,2,0.088,8.21
0.1148,-0.01571,0.01745,0.00000,0.00000,0.00000,0.00000,13,11,63,13,48,-12,66,2,ok,4,0,0.000,0,0.0000,0.15,-0.14,10.01,2,0.102,8.21
0.1273,-0.01571,0.01745,0.00000,0.00000,0.00000,0.00000,14,10,64,14,45,-12,66,3,ok,4,0,0.000,0,0.0000,0.15,-0.14,10.01,2,0.114,8.21
0.1475,-0.01571,0.01745,0.00000,0.00000,0.00000,0.00000,15,9,64,15,42,-11,67,3,ok,4,0,0.000,0,0.0000,0.15,-0.14,10.01,2,0.127,8.21
0.1533,-0.01571,0.01745,0.00000,0.00000,0.00000,0.00000,16,9,65,15,39,-10,68,4,ok,4,0,0.000,0,0.0000,0.15,-0.14,10.01,2,0.139,8.21
0.1657,-0.01571,0.01745,0.00000,0.00000,0.00000,0.00000,18,8,65,16,36,-8,68,4,ok,4,0,0.000,0,0.0000,0.15,-0.14,10.01,2,0.152,8.21
0.1875,-0.01571,0.01745,0.00000,0.00000,0.00000,0.00000,18,7,65,17,34,-7,69,5,ok,4,0,0.000,0,0.0000,0.15,-0.14,10.01,2,0.164,8.21
0.1920,-0.01571,0.01745,0.00000,0.00000,0.00000,0.00000,21,6,66,18,32,-6,69,6,ok,4,0,0.000,0,0.0000,0.15,-0.14,10.01,2,0.178,8.21
0.2048,-0.01920,-0.12915,0.00000,0.00000,0.00000,0.00000,22,5,66,19,30,-2,70,7,ok,4,0,0.000,0,0.0000,-1.36,0.20,10.27,3,0.000,8.21
0.2275,-0.01920,-0.12915,0.00000,0.00000,0.00000,0.00000,23,5,66,21,28,0,70,8,ok,4,0,0.000,0,0.0000,-1.36,0.20,10.27,3,0.013,8.21
0.2321,-0.01920,-0.12915,0.00000,0.00000,0.00000,0.00000,24,4,66,22,27,3,70,9,ok,4,0,0.000,0,0.0000,-1.36,0.20,10.27,3,0.027,8.21
0.2439,-0.01920,-0.12915,0.00000,0.00000,0.00000,0.00000,26,4,66,23,27,6,71,9,ok,4,0,0.000,0,0.0000,-1.36,0.20,10.27,3,0.040,8.21
0.2633,-0.01920,-0.12915,0.00000,0.00000,0.00000,0.00000,27,4,65,26,29,5,71,10,ok,4,0,0.000,0,0.0000,-1.36,0.20,10.27,3,0.053,8.21
0.2684,-0.01920,-0.12915,0.00000,0.00000,0.00000,0.00000,28,3,65,28,29,5,72,10,ok,4,0,0.000,0,0.0000,-1.36,0.20,10.27,3,0.065,8.21
0.2810,-0.01920,-0.12915,0.00000,0.00000,0.00000,0.00000,29,3,66,27,30,3,72,12,ok,4,0,0.000,0,0.0000,-1.36,0.20,10.27,3,0.078,8.21
0.3033,-0.01920,-0.12915,0.00000,0.00000,0.00000,0.00000,30,2,70,24,31,3,73,13,ok,4,0,0.000,0,0.0000,-1.36,0.20,10.27,3,0.090,8.21
0.3066,-0.01920,-0.12915,0.00000,0.00000,0.00000,0.00000,31,1,72,21,32,2,73,14,ok,4,0,0.000,0,0.0000,-1.36,0.20,10.27,3,0.103,8.21
0.3192,-0.01920,-0.12915,0.00000,0.00000,0.00000,0.00000,32,0,73,17,33,2,72,16,ok,4,0,0.000,0,0.0000,-1.36,0.20,10.27,3,0.116,8.21
0.3393,-0.01920,-0.12915,0.00000,0.00000,0.00000,0.00000,33,1,74,15,34,1,72,17,ok,4,0,0.000,0,0.0000,-1.36,0.20,10.27,3,0.128,8.21
0.3444,-0.01920,-0.12915,0.00000,0.00000,0.00000,0.00000,34,0,74,15,37,1,74,19,ok,4,0,0.000,0,0.0000,-1.36,0.20,10.27,3,0.141,8.21
0.3568,-0.01920,-0.12915,0.00000,0.00000,0.00000,0.00000,36,-1,74,12,37,1,72,21,ok,4,0,0.000,0,0.0000,-1.36,0.20,10.27,3,0.153,8.21
0.3793,-0.01920,-0.12915,0.00000,0.00000,0.00000,0.00000,37,-1,73,9,38,1,72,22,ok,4,0,0.000,0,0.0000,-1.36,0.20,10.27,3,0.166,8.21
0.3827,-0.01920,-0.12915,0.00000,0.00000,0.00000,0.00000,38,-1,73,6,40,1,73,23,ok,4,0,0.000,0,0.0000,-1.36,0.20,10.27,3,0.179,8.21
0.3954,-0.01920,-0.12915,0.00000,0.00000,0.00000,0.00000,39,-2,72,4,40,1,72,25,ok,4,0,0.000,0,0.0000,-1.36,0.20,10.27,3,0.192,8.21
0.4153,-0.12217,-0.03665,0.07679,0.00000,0.00000,0.00000,40,-2,71,2,42,0,72,26,ok,4,0,0.000,0,-0.0037,-0.33,-0.87,13.89,4,0.000,8.21
0.4203,-0.12217,-0.03665,0.07679,0.00000,0.00000,0.00000,42,-2,69,0,43,-1,71,28,ok,4,0,0.000,0,-0.0075,-0.33,-0.87,13.89,4,0.012,8.21
0.4327,-0.12217,-0.03665,0.07679,0.00000,0.00000,0.00000,42,-2,67,-2,44,-2,72,28,ok,4,0,0.000,0,-0.0112,-0.33,-0.87,13.89,4,0.025,8.21
0.4553,-0.12217,-0.03665,0.07679,0.00000,0.00000,0.00000,44,-1,66,-4,46,-2,73,28,ok,4,0,0.000,0,-0.0150,-0.33,-0.87,13.89,4,0.038,8.21
0.4586,-0.12217,-0.03665,0.07679,0.00000,0.00000,0.00000,45,-1,65,-6,47,-2,75,26,ok,4,0,0.000,0,-0.0187,-0.33,-0.87,13.89,4,0.051,8.21
0.4712,-0.12217,-0.03665,0.07679,0.00000,0.00000,0.00000,47,0,63,-7,48,-2,76,20,ok,4,0,0.000,0,-0.0225,-0.33,-0.87,13.89,4,0.064,8.21
0.4913,-0.12217,-0.03665,0.07679,0.00000,0.00000,0.00000,48,0,60,-8,49,-2,78,17,ok,4,0,0.000,0,-0.0262,-0.33,-0.87,13.89,4,0.076,8.21
0.4962,-0.12217,-0.03665,0.07679,0.00000,0.00000,0.00000,49,0,57,-9,50,-1,79,14,ok,4,0,0.000,0,-0.0300,-0.33,-0.87,13.89,4,0.089,8.21
0.5088,-0.12217,-0.03665,0.07679,0.00000,0.00000,0.00000,49,2,55,-10,52,-1,79,13,ok,4,0,0.000,0,-0.0338,-0.33,-0.87,13.89,4,0.101,8.21
0.5313,-0.12217,-0.03665,0.07679,0.00000,0.00000,0.00000,51,4,52,-10,54,0,79,10,ok,4,0,0.000,1,-0.0375,-0.33,-0.87,13.89,4,0.114,8.21
0.5347,-0.12217,-0.03665,0.07679,0.00000,0.00000,0.00000,51,3,49,-10,55,0,79,7,ok,4,0,0.000,1,-0.0413,-0.33,-0.87,13.89,4,0.127,8.21
0.5472,-0.12217,-0.03665,0.07679,0.00000,0.00000,0.00000,53,5,46,-10,56,0,79,4,ok,4,0,0.000,1,-0.0450,-0.33,-0.87,13.89,4,0.140,8.21
0.5673,-0.12217,-0.03665,0.07679,0.00000,0.00000,0.00000,53,5,44,-10,57,0,78,2,ok,4,0,0.000,1,-0.0488,-0.33,-0.87,13.89,4,0.152,8.21
0.5721,-0.12217,-0.03665,0.07679,0.00000,0.00000,0.00000,55,6,41,-10,58,1,77,-1,ok,4,0,0.000,1,-0.0525,-0.33,-0.87,13.89,4,0.165,8.21
0.5851,-0.12217,-0.03665,0.07679,0.00000,0.00000,0.00000,55,6,39,-9,59,0,77,-3,ok,4,0,0.000,1,-0.0563,-0.33,-0.87,13.89,4,0.177,8.21
0.6074,-0.12217,-0.03665,0.07679,0.00000,0.00000,0.00000,57,6,36,-8,59,1,76,-4,ok,4,0,0.000,1,-0.0600,-0.33,-0.87,13.89,4,0.190,8.21
0.6110,-0.05760,0.03840,0.09774,0.00000,0.00000,0.00000,57,7,33,-7,60,1,74,-6,ok,4,0,0.000,1,-0.0638,1.25,-0.76,10.25,5,0.000,8.21
0.6232,-0.05760,0.03840,0.09774,0.00000,0.00000,0.00000,57,7,29,-6,60,1,71,-7,ok,2,0,0.000,1,-0.0675,1.25,-0.76,10.25,5,0.013,8.21
0.6433,-0.05760,0.03840,0.09774,0.00000,0.00000,0.00000,58,8,27,-4,61,1,70,-8,ok,2,0,0.000,1,-0.0713,1.25,-0.76,10.25,5,0.025,8.21
0.6484,-0.05760,0.03840,0.09774,0.00000,0.00000,0.00000,59,10,22,-2,62,1,69,-10,ok,2,0,0.000,1,-0.0750,1.25,-0.76,10.25,5,0.038,8.21
0.6608,-0.05760,0.03840,0.09774,0.00000,0.00000,0.00000,59,10,20,-1,64,-1,67,-12,ok,2,0,0.000,1,-0.0788,1.25,-0.76,10.25,5,0.050,8.21
0.6833,-0.05760,0.03840,0.09774,0.00000,0.00000,0.00000,60,10,19,0,65,0,64,-13,ok,2,0,0.000,1,-0.0825,1.25,-0.76,10.25,5,0.063,8.21
0.6866,-0.05760,0.03840,0.09774,0.00000,0.00000,0.00000,60,11,17,3,66,0,63,-13,ok,2,0,0.000,1,-0.0863,1.25,-0.76,10.25,5,0.076,8.21
0.6994,-0.05760,0.03840,0.09774,0.00000,0.00000,0.00000,61,12,15,6,67,0,60,-14,ok,2,0,0.000,1,-0.0900,1.25,-0.76,10.25,5,0.089,8.21
0.7193,-0.05760,0.03840,0.09774,0.00000,0.00000,0.00000,61,13,13,10,67,1,58,-14,ok,2,0,0.000,1,-0.0938,1.25,-0.76,10.25,5,0.101,8.21
0.7241,-0.05760,0.03840,0.09774,0.00000,0.00000,0.00000,61,14,11,12,68,1,55,-13,ok,2,0,0.000,1,-0.0975,1.25,-0.76,10.25,5,0.114,8.21
0.7367,-0.05760,0.03840,0.09774,0.00000,0.00000,0.00000,62,15,13,13,68,1,53,-13,ok,2,0,0.000,1,-0.1013,1.25,-0.76,10.25,5,0.126,8.21
0.7593,-0.05760,0.03840,0.09774,0.00000,0.00000,0.00000,62,16,12,13,69,1,50,-12,ok,2,0,0.000,1,-0.1050,1.25,-0.76,10.25,5,0.139,8.21
0.7626,-0.05760,0.03840,0.09774,0.00000,0.00000,0.00000,62,16,14,11,69,1,47,-11,ok,2,0,0.000,1,-0.1088,1.25,-0.76,10.25,5,0.152,8.21
0.7753,-0.05760,0.03840,0.09774,0.00000,0.00000,0.00000,62,18,15,10,70,2,45,-10,ok,2,0,0.000,1,-0.1125,1.25,-0.76,10.25,5,0.165,8.21
0.7953,-0.05760,0.03840,0.09774,0.00000,0.00000,0.00000,63,18,16,10,70,3,41,-9,ok,2,0,0.000,1,-0.1163,1.25,-0.76,10.25,5,0.177,8.21
0.8002,-0.05760,0.03840,0.09774,0.00000,0.00000,0.00000,64,18,17,9,70,3,39,-8,ok,2,0,0.000,1,-0.1200,1.25,-0.76,10.25,5,0.190,8.21
0.8130,-0.00698,0.00349,0.11868,0.00000,0.00000,0.00000,64,20,18,8,71,5,35,-7,ok,2,0,0.000,1,-0.1238,0.22,-0.11,11.06,6,0.000,8.21
0.8353,-0.00698,0.00349,0.11868,0.00000,0.00000,0.00000,65,20,20,7,72,5,34,-5,ok,2,0,0.000,1,-0.1275,0.22,-0.11,11.06,6,0.013,8.21
0.8386,-0.00698,0.00349,0.11868,0.00000,0.00000,0.00000,65,22,21,6,72,6,32,-4,ok,2,0,0.000,1,-0.1313,0.22,-0.11,11.06,6,0.026,8.21
0.8514,-0.00698,0.00349,0.11868,0.00000,0.00000,0.00000,64,23,23,6,71,7,30,-1,ok,2,0,0.000,1,-0.1350,0.22,-0.11,11.06,6,0.038,8.21
0.8713,-0.00698,0.00349,0.11868,0.00000,0.00000,0.00000,64,24,24,6,72,8,28,2,ok,2,0,0.000,1,-0.1388,0.22,-0.11,11.06,6,0.051,8.21
0.8761,-0.00698,0.00349,0.11868,0.00000,0.00000,0.00000,64,25,25,5,72,9,27,5,ok,2,0,0.000,1,-0.1425,0.22,-0.11,11.06,6,0.063,8.21
0.8887,-0.00698,0.00349,0.11868,0.00000,0.00000,0.00000,63,28,26,4,72,10,27,7,ok,2,0,0.000,1,-0.1463,0.22,-0.11,11.06,6,0.076,8.21
0.9113,-0.00698,0.00349,0.11868,0.00000,0.00000,0.00000,62,29,27,3,72,12,29,6,ok,2,0,0.000,1,-0.1500,0.22,-0.11,11.06,6,0.088,8.21
0.9146,-0.00698,0.00349,0.11868,0.00000,0.00000,0.00000,64,28,29,3,72,13,29,6,ok,2,0,0.000,1,-0.1538,0.22,-0.11,11.06,6,0.102,8.21
0.9272,-0.00698,0.00349,0.11868,0.00000,0.00000,0.00000,65,25,30,2,72,14,30,4,ok,2,0,0.000,1,-0.1575,0.22,-0.11,11.06,6,0.115,8.21
0.9473,-0.00698,0.00349,0.11868,0.00000,0.00000,0.00000,67,21,31,2,72,15,31,3,ok,2,0,0.000,1,-0.1613,0.22,-0.11,11.06,6,0.127,8.21
0.9522,-0.00698,0.00349,0.11868,0.00000,0.00000,0.00000,68,17,33,2,71,17,33,3,ok,2,0,0.000,1,-0.1650,0.22,-0.11,11.06,6,0.140,8.21
0.9648,-0.00698,0.00349,0.11868,0.00000,0.00000,0.00000,67,15,34,2,72,18,34,2,ok,2,0,0.000,1,-0.1688,0.22,-0.11,11.06,6,0.152,8.21
0.9873,-0.00698,0.00349,0.11868,0.00000,0.00000,0.00000,67,14,35,1,71,21,36,1,ok,2,0,0.000,1,-0.1725,0.22,-0.11,11.06,6,0.165,8.21
0.9905,-0.00698,0.00349,0.11868,0.00000,0.00000,0.00000,67,11,37,1,71,22,38,1,ok,2,0,0.000,1,-0.1763,0.22,-0.11,11.06,6,0.178,8.21
1.0032,-0.00698,0.00349,0.11868,0.00000,0.00000,0.00000,66,7,38,2,71,24,38,2,ok,2,0,0.000,1,-0.1800,0.22,-0.11,11.06,6,0.191,8.21
1.0234,-0.02967,0.02094,0.21118,0.00000,0.00000,0.00000,66,5,39,2,72,25,40,1,ok,2,0,0.000,1,-0.1838,0.18,-0.25,11.32,7,0.000,8.21
1.0282,-0.02967,0.02094,0.21118,0.00000,0.00000,0.00000,65,1,41,1,71,27,42,1,ok,2,0,0.000,1,-0.1875,0.18,-0.25,11.32,7,0.012,8.21
1.0407,-0.02967,0.02094,0.21118,0.00000,0.00000,0.00000,64,-1,42,1,71,28,42,1,ok,2,0,0.000,1,-0.1913,0.18,-0.25,11.32,7,0.025,8.21
1.0633,-0.02967,0.02094,0.21118,0.00000,0.00000,0.00000,63,-3,44,2,71,29,43,1,ok,2,0,0.000,1,-0.1950,0.18,-0.25,11.32,7,0.038,8.21
1.0667,-0.02967,0.02094,0.21118,0.00000,0.00000,0.00000,61,-4,44,1,72,28,45,1,ok,2,0,0.000,1,-0.1988,0.18,-0.25,11.32,7,0.051,8.21
1.0792,-0.02967,0.02094,0.21118,0.00000,0.00000,0.00000,60,-6,46,2,74,26,46,0,ok,2,0,0.000,1,-0.2025,0.18,-0.25,11.32,7,0.064,8.21
1.0993,-0.02967,0.02094,0.21118,0.00000,0.00000,0.00000,60,-8,47,2,76,21,47,0,ok,2,0,0.000,1,-0.2063,0.18,-0.25,11.32,7,0.076,8.21
1.1042,-0.02967,0.02094,0.21118,0.00000,0.00000,0.00000,58,-9,48,3,77,17,48,0,ok,2,0,0.000,1,-0.2100,0.18,-0.25,11.32,7,0.088,8.21
1.1167,-0.02967,0.02094,0.21118,0.00000,0.00000,0.00000,56,-10,50,3,79,14,49,0,ok,2,0,0.000,1,-0.2138,0.18,-0.25,11.32,7,0.101,8.21
1.1393,-0.02967,0.02094,0.21118,0.00000,0.00000,0.00000,54,-11,50,3,79,13,49,0,ok,2,0,0.000,1,-0.2175,0.18,-0.25,11.32,7,0.114,8.21
1.1428,-0.02967,0.02094,0.21118,0.00000,0.00000,0.00000,52,-12,50,5,79,11,51,0,ok,2,0,0.000,1,-0.2213,0.18,-0.25,11.32,7,0.127,8.21
1.1552,-0.02967,0.02094,0.21118,0.00000,0.00000,0.00000,50,-12,52,6,79,7,51,0,ok,2,0,0.000,1,-0.2250,0.18,-0.25,11.32,7,0.140,8.21
1.1753,-0.02967,0.02094,0.21118,0.00000,0.00000,0.00000,48,-11,53,5,79,4,53,0,ok,2,0,0.000,1,-0.2288,0.18,-0.25,11.32,7,0.152,8.21
1.1802,-0.02967,0.02094,0.21118,0.00000,0.00000,0.00000,46,-11,53,6,78,2,53,0,ok,2,0,0.000,1,-0.2325,0.18,-0.25,11.32,7,0.165,8.21
1.1930,-0.02967,0.02094,0.21118,0.00000,0.00000,0.00000,44,-11,54,7,77,-1,54,1,ok,2,0,0.000,1,-0.2363,0.18,-0.25,11.32,7,0.177,8.21
1.2154,-0.02967,0.02094,0.21118,0.00000,0.00000,0.00000,42,-11,56,7,76,-3,55,0,ok,2,0,0.000,1,-0.2400,0.18,-0.25,11.32,7,0.190,8.21
1.2190,0.07505,-0.02443,0.21468,0.00000,0.00000,0.00000,41,-10,56,7,75,-5,56,0,ok,2,0,0.000,1,-0.2438,-0.43,0.72,10.21,8,0.000,8.21
1.2312,0.07505,-0.02443,0.21468,0.00000,0.00000,0.00000,39,-9,57,7,74,-8,57,-1,ok,2,0,0.000,1,-0.2475,-0.43,0.72,10.21,8,0.013,8.21
1.2513,0.07505,-0.02443,0.21468,0.00000,0.00000,0.00000,37,-8,58,8,71,-7,57,0,ok,2,0,0.000,1,-0.2513,-0.43,0.72,10.21,8,0.025,8.21
1.2562,0.07505,-0.02443,0.21468,0.00000,0.00000,0.00000,34,-6,59,8,70,-9,57,0,ok,2,0,0.000,1,-0.2550,-0.43,0.72,10.21,8,0.038,8.21
1.2687,0.07505,-0.02443,0.21468,0.00000,0.00000,0.00000,32,-4,59,9,68,-11,59,0,ok,2,0,0.000,1,-0.2588,-0.43,0.72,10.21,8,0.050,8.21
1.2913,0.07505,-0.02443,0.21468,0.00000,0.00000,0.00000,29,-2,60,10,66,-12,60,0,ok,2,0,0.000,1,-0.2625,-0.43,0.72,10.21,8,0.063,8.21
1.2946,0.07505,-0.02443,0.21468,0.00000,0.00000,0.00000,28,-1,61,11,64,-13,61,0,ok,2,0,0.000,1,-0.2663,-0.43,0.72,10.21,8,0.076,8.21
1.3073,0.07505,-0.02443,0.21468,0.00000,0.00000,0.00000,27,0,62,11,62,-13,63,-3,ok,2,0,0.000,1,-0.2700,-0.43,0.72,10.21,8,0.089,8.21
1.3273,0.07505,-0.02443,0.21468,0.00000,0.00000,0.00000,26,3,62,12,59,-14,63,-2,ok,2,0,0.000,1,-0.2738,-0.43,0.72,10.21,8,0.101,8.21
1.3321,0.07505,-0.02443,0.21468,0.00000,0.00000,0.00000,24,7,63,13,58,-15,64,-2,ok,2,0,0.000,1,-0.2775,-0.43,0.72,10.21,8,0.114,8.21
1.3447,0.07505,-0.02443,0.21468,0.00000,0.00000,0.00000,23,10,63,14,55,-14,65,-1,ok,2,0,0.000,1,-0.2812,-0.43,0.72,10.21,8,0.126,8.21
1.3673,0.07505,-0.02443,0.21468,0.00000,0.00000,0.00000,22,13,64,14,52,-13,65,-1,ok,2,0,0.000,1,-0.2850,-0.43,0.72,10.21,8,0.139,8.21
1.3706,0.07505,-0.02443,0.21468,0.00000,0.00000,0.00000,24,13,64,16,50,-13,66,0,ok,2,0,0.000,1,-0.2887,-0.43,0.72,10.21,8,0.152,8.21
1.3834,0.07505,-0.02443,0.21468,0.00000,0.00000,0.00000,24,13,64,17,46,-12,67,-1,ok,2,0,0.000,1,-0.2925,-0.43,0.72,10.21,8,0.165,8.21
1.4074,0.07505,-0.02443,0.21468,0.00000,0.00000,0.00000,25,12,65,17,44,-12,68,0,ok,2,0,0.000,1,-0.2962,-0.43,0.72,10.21,8,0.177,8.21
1.4106,0.07505,-0.02443,0.21468,0.00000,0.00000,0.00000,25,12,65,18,41,-10,69,0,ok,4,0,0.000,1,-0.3000,-0.43,0.72,10.21,8,0.192,8.21
1.4236,0.07505,-0.02443,0.21468,0.00000,0.00000,0.00000,26,11,65,19,38,-10,69,1,ok,4,0,0.000,1,-0.3037,-0.43,0.72,10.21,8,0.205,8.21
1.4433,-0.04014,0.00349,0.21468,0.00000,0.00000,0.00000,28,10,66,19,35,-8,70,2,ok,4,0,0.000,1,-0.3075,-0.26,-0.39,7.88,9,0.000,8.21
1.4485,-0.04014,0.00349,0.21468,0.00000,0.00000,0.00000,28,10,66,20,33,-7,70,3,ok,4,0,0.000,1,-0.3112,-0.26,-0.39,7.88,9,0.012,8.21
1.4608,-0.04014,0.00349,0.21468,0.00000,0.00000,0.00000,30,8,66,21,31,-6,71,5,ok,4,0,0.000,1,-0.3150,-0.26,-0.39,7.88,9,0.025,8.21
1.4833,-0.04014,0.00349,0.21468,0.00000,0.00000,0.00000,31,8,66,22,29,-2,71,5,ok,4,0,0.000,1,-0.3187,-0.26,-0.39,7.88,9,0.038,8.21
1.4865,-0.04014,0.00349,0.21468,0.00000,0.00000,0.00000,32,7,65,23,28,0,71,6,ok,4,0,0.000,1,-0.3225,-0.26,-0.39,7.88,9,0.051,8.21
1.4994,-0.04014,0.00349,0.21468,0.00000,0.00000,0.00000,32,6,65,24,27,3,71,7,ok,4,0,0.000,1,-0.3262,-0.26,-0.39,7.88,9,0.063,8.21
1.5193,-0.04014,0.00349,0.21468,0.00000,0.00000,0.00000,34,6,65,25,26,6,72,8,ok,4,0,0.000,1,-0.3300,-0.26,-0.39,7.88,9,0.076,8.21
1.5242,-0.04014,0.00349,0.21468,0.00000,0.00000,0.00000,35,5,64,28,28,5,72,9,ok,4,0,0.000,1,-0.3337,-0.26,-0.39,7.88,9,0.088,8.21
1.5367,-0.04014,0.00349,0.21468,0.00000,0.00000,0.00000,35,4,64,29,29,5,72,11,ok,4,0,0.000,1,-0.3375,-0.26,-0.39,7.88,9,0.101,8.21
1.5593,-0.04014,0.00349,0.21468,0.00000,0.00000,0.00000,36,4,65,28,30,3,72,12,ok,4,0,0.000,2,-0.3412,-0.26,-0.39,7.88,9,0.113,8.21
1.5625,-0.04014,0.00349,0.21468,0.00000,0.00000,0.00000,37,3,68,25,31,2,73,14,ok,4,0,0.000,2,-0.3450,-0.26,-0.39,7.88,9,0.127,8.21
1.5752,-0.04014,0.00349,0.21468,0.00000,0.00000,0.00000,38,2,70,21,32,2,73,15,ok,4,0,0.000,2,-0.3487,-0.26,-0.39,7.88,9,0.139,8.21
1.5953,-0.04014,0.00349,0.21468,0.00000,0.00000,0.00000,39,2,71,17,33,2,72,17,ok,4,0,0.000,2,-0.3525,-0.26,-0.39,7.88,9,0.152,8.21
1.6017,-0.04014,0.00349,0.21468,0.00000,0.00000,0.00000,40,2,72,15,35,1,72,19,ok,4,0,0.000,2,-0.3562,-0.26,-0.39,7.88,9,0.165,8.21
1.6127,-0.04014,0.00349,0.21468,0.00000,0.00000,0.00000,41,1,71,14,37,1,73,20,ok,4,0,0.000,2,-0.3600,-0.26,-0.39,7.88,9,0.177,8.21
1.6354,-0.04014,0.00349,0.21468,0.00000,0.00000,0.00000,42,1,71,11,37,1,72,22,ok,4,0,0.000,2,-0.3637,-0.26,-0.39,7.88,9,0.189,8.21
1.6388,-0.09948,-0.06981,0.23562,0.00000,0.00000,0.00000,43,1,71,8,39,1,72,23,ok,4,0,0.000,2,-0.3675,-0.91,-1.60,10.76,10,0.000,8.21
1.6512,-0.09948,-0.06981,0.23562,0.00000,0.00000,0.00000,44,1,71,5,40,0,72,25,ok,4,0,0.000,2,-0.3712,-0.91,-1.60,10.76,10,0.013,8.21
1.6713,-0.09948,-0.06981,0.23562,0.00000,0.00000,0.00000,45,0,70,3,41,1,72,26,ok,4,0,0.000,2,-0.3750,-0.91,-1.60,10.76,10,0.025,8.21
1.6762,-0.09948,-0.06981,0.23562,0.00000,0.00000,0.00000,46,0,69,1,42,0,72,28,ok,4,0,0.000,2,-0.3787,-0.91,-1.60,10.76,10,0.038,8.21
1.6887,-0.09948,-0.06981,0.23562,0.00000,0.00000,0.00000,46,0,68,-1,44,0,71,29,ok,4,0,0.001,2,-0.3825,-0.91,-1.60,10.76,10,0.050,8.21
1.7113,-0.09948,-0.06981,0.23562,0.00000,0.00000,0.00000,47,0,66,-2,45,-1,73,29,ok,4,0,0.001,2,-0.3862,-0.91,-1.60,10.76,10,0.063,8.21
1.7147,-0.09948,-0.06981,0.23562,0.00000,0.00000,0.00000,48,0,65,-4,46,-1,74,28,ok,4,0,0.001,2,-0.3900,-0.91,-1.60,10.76,10,0.076,8.21
1.7272,-0.09948,-0.06981,0.23562,0.00000,0.00000,0.00000,48,0,64,-6,48,-1,75,26,ok,4,0,0.001,2,-0.3937,-0.91,-1.60,10.76,10,0.089,8.21
1.7473,-0.09948,-0.06981,0.23562,0.00000,0.00000,0.00000,49,1,62,-7,48,-1,77,20,ok,4,0,0.001,2,-0.3975,-0.91,-1.60,10.76,10,0.101,8.21
1.7522,-0.09948,-0.06981,0.23562,0.00000,0.00000,0.00000,50,1,59,-8,49,-1,78,17,ok,4,0,0.001,2,-0.4012,-0.91,-1.60,10.76,10,0.114,8.21
1.7647,-0.09948,-0.06981,0.23562,0.00000,0.00000,0.00000,50,1,57,-8,51,-1,80,13,ok,4,0,0.001,2,-0.4050,-0.91,-1.60,10.76,10,0.126,8.21
1.7873,-0.09948,-0.06981,0.23562,0.00000,0.00000,0.00000,50,4,55,-9,52,-1,80,13,ok,4,0,0.001,2,-0.4087,-0.91,-1.60,10.76,10,0.139,8.21
1.7907,-0.09948,-0.06981,0.23562,0.00000,0.00000,0.00000,51,5,52,-9,53,-1,80,10,ok,4,0,0.001,2,-0.4125,-0.91,-1.60,10.76,10,0.152,8.21
1.8032,-0.09948,-0.06981,0.23562,0.00000,0.00000,0.00000,51,4,49,-9,54,-1,80,7,ok,4,0,0.001,2,-0.4162,-0.91,-1.60,10.76,10,0.165,8.21
1.8234,-0.09948,-0.06981,0.23562,0.00000,0.00000,0.00000,52,5,46,-9,55,0,79,3,ok,2,0,0.001,2,-0.4200,-0.91,-1.60,10.76,10,0.177,8.21
1.8285,-0.09076,-0.05061,0.26180,0.00000,0.00000,0.00000,52,6,44,-9,56,0,79,2,ok,2,0,0.001,2,-0.4237,0.22,-0.81,10.25,11,0.000,8.21
1.8409,-0.09076,-0.05061,0.26180,0.00000,0.00000,0.00000,53,6,41,-9,57,0,78,-2,ok,2,0,0.001,2,-0.4275,0.22,-0.81,10.25,11,0.013,8.21
1.8633,-0.09076,-0.05061,0.26180,0.00000,0.00000,0.00000,53,6,39,-8,58,0,77,-4,ok,2,0,0.001,2,-0.4312,0.22,-0.81,10.25,11,0.025,8.21
1.8665,-0.09076,-0.05061,0.26180,0.00000,0.00000,0.00000,54,7,36,-7,58,0,76,-5,ok,2,0,0.001,2,-0.4350,0.22,-0.81,10.25,11,0.038,8.21
1.8792,-0.09076,-0.05061,0.26180,0.00000,0.00000,0.00000,54,8,33,-6,59,1,74,-7,ok,2,0,0.001,2,-0.4387,0.22,-0.81,10.25,11,0.051,8.21
1.8993,-0.09076,-0.05061,0.26180,0.00000,0.00000,0.00000,54,8,29,-5,60,1,71,-7,ok,2,0,0.001,2,-0.4425,0.22,-0.81,10.25,11,0.064,8.21
1.9042,-0.09076,-0.05061,0.26180,0.00000,0.00000,0.00000,55,9,26,-3,61,1,70,-9,ok,2,0,0.001,2,-0.4462,0.22,-0.81,10.25,11,0.076,8.21
1.9167,-0.09076,-0.05061,0.26180,0.00000,0.00000,0.00000,56,10,22,-1,62,0,69,-11,ok,2,0,0.001,2,-0.4500,0.22,-0.81,10.25,11,0.088,8.21
1.9393,-0.09076,-0.05061,0.26180,0.00000,0.00000,0.00000,56,10,20,0,64,-2,67,-12,ok,2,0,0.001,2,-0.4537,0.22,-0.81,10.25,11,0.101,8.21
1.9425,-0.09076,-0.05061,0.26180,0.00000,0.00000,0.00000,57,11,18,1,64,-1,64,-13,ok,2,0,0.001,2,-0.4575,0.22,-0.81,10.25,11,0.114,8.21
1.9553,-0.09076,-0.05061,0.26180,0.00000,0.00000,0.00000,56,12,16,3,65,-1,63,-14,ok,2,0,0.001,2,-0.4612,0.22,-0.81,10.25,11,0.127,8.21
1.9753,-0.09076,-0.05061,0.26180,0.00000,0.00000,0.00000,57,12,15,7,66,-1,60,-14,ok,2,0,0.001,2,-0.4650,0.22,-0.81,10.25,11,0.140,8.21
1.9804,-0.09076,-0.05061,0.26180,0.00000,0.00000,0.00000,57,14,13,10,66,0,58,-15,ok,2,0,0.001,2,-0.4687,0.22,-0.81,10.25,11,0.152,8.21
1.9927,-0.09076,-0.05061,0.26180,0.00000,0.00000,0.00000,57,14,11,12,67,0,55,-13,ok,2,0,0.001,2,-0.4725,0.22,-0.81,10.25,11,0.165,8.21
2.0154,-0.09076,-0.05061,0.26180,0.00000,0.00000,0.00000,57,15,13,13,67,0,52,-13,ok,2,0,0.001,2,-0.4762,0.22,-0.81,10.25,11,0.177,8.21
2.0186,-0.09076,-0.05061,0.26180,0.00000,0.00000,0.00000,57,16,13,12,68,0,50,-12,ok,2,0,0.001,2,-0.4800,0.22,-0.81,10.25,11,0.190,8.21
2.0315,-0.09076,-0.05061,0.26180,0.00000,0.00000,0.00000,58,17,14,11,69,0,47,-11,ok,2,0,0.001,2,-0.4837,0.22,-0.81,10.25,11,0.203,8.21
2.0513,-0.00349,0.00349,0.25133,0.00000,0.00000,0.00000,58,17,15,11,69,1,45,-11,ok,2,0,0.001,2,-0.4875,0.11,0.31,10.02,12,0.000,8.21
2.0563,-0.00349,0.00349,0.25133,0.00000,0.00000,0.00000,58,18,16,10,69,2,41,-10,ok,2,0,0.001,2,-0.4912,0.11,0.31,10.02,12,0.012,8.21
2.0687,-0.00349,0.00349,0.25133,0.00000,0.00000,0.00000,58,18,17,9,70,3,39,-9,ok,2,0,0.001,2,-0.4950,0.11,0.31,10.02,12,0.025,8.21
2.0913,-0.00349,0.00349,0.25133,0.00000,0.00000,0.00000,58,20,18,8,70,4,35,-7,ok,2,0,0.001,2,-0.4987,0.11,0.31,10.02,12,0.038,8.21
2.0946,-0.00349,0.00349,0.25133,0.00000,0.00000,0.00000,58,21,20,7,71,5,34,-6,ok,2,0,0.001,2,-0.5025,0.11,0.31,10.02,12,0.051,8.21
2.1073,-0.00349,0.00349,0.25133,0.00000,0.00000,0.00000,58,22,21,7,71,6,32,-4,ok,2,0,0.001,2,-0.5062,0.11,0.31,10.02,12,0.064,8.21
2.1273,-0.00349,0.00349,0.25133,0.00000,0.00000,0.00000,58,23,22,6,71,7,29,-1,ok,2,0,0.001,2,-0.5100,0.11,0.31,10.02,12,0.076,8.21
2.1322,-0.00349,0.00349,0.25133,0.00000,0.00000,0.00000,58,24,23,5,71,8,28,1,ok,2,0,0.001,2,-0.5137,0.11,0.31,10.02,12,0.089,8.21
2.1447,-0.00349,0.00349,0.25133,0.00000,0.00000,0.00000,58,25,25,5,72,9,27,5,ok,2,0,0.001,2,-0.5175,0.11,0.31,10.02,12,0.101,8.21
2.1673,-0.00349,0.00349,0.25133,0.00000,0.00000,0.00000,57,28,26,4,71,10,26,7,ok,2,0,0.001,2,-0.5212,0.11,0.31,10.02,12,0.114,8.21
2.1706,-0.00349,0.00349,0.25133,0.00000,0.00000,0.00000,57,29,27,3,71,11,29,6,ok,2,0,0.001,2,-0.5250,0.11,0.31,10.02,12,0.127,8.21
2.1832,-0.00349,0.00349,0.25133,0.00000,0.00000,0.00000,58,28,28,3,71,13,29,5,ok,2,0,0.001,2,-0.5287,0.11,0.31,10.02,12,0.139,8.21
2.2033,-0.00349,0.00349,0.25133,0.00000,0.00000,0.00000,58,25,30,3,72,14,30,3,ok,2,0,0.001,2,-0.5325,0.11,0.31,10.02,12,0.152,8.21
2.2082,-0.00349,0.00349,0.25133,0.00000,0.00000,0.00000,59,21,31,2,71,15,31,3,ok,2,0,0.001,2,-0.5362,0.11,0.31,10.02,12,0.164,8.21
2.2207,-0.00349,0.00349,0.25133,0.00000,0.00000,0.00000,60,17,33,2,71,17,33,3,ok,2,0,0.001,2,-0.5400,0.11,0.31,10.02,12,0.177,8.21
2.2434,-0.00349,0.00349,0.25133,0.00000,0.00000,0.00000,60,15,34,2,72,18,34,2,ok,2,0,0.001,2,-0.5437,0.11,0.31,10.02,12,0.189,8.21
2.2468,-0.10996,0.01920,0.30369,0.00000,0.00000,0.00000,60,14,35,1,71,20,36,1,ok,2,0,0.001,2,-0.5475,-0.39,-1.53,9.78,13,0.000,8.21
2.2592,-0.10996,0.01920,0.30369,0.00000,0.00000,0.00000,59,11,36,2,71,21,38,1,ok,2,0,0.001,2,-0.5512,-0.39,-1.53,9.78,13,0.013,8.21
2.2793,-0.10996,0.01920,0.30369,0.00000,0.00000,0.00000,59,7,38,2,71,23,39,2,ok,2,0,0.001,2,-0.5550,-0.39,-1.53,9.78,13,0.025,8.21
2.2842,-0.10996,0.01920,0.30369,0.00000,0.00000,0.00000,59,4,39,2,71,25,40,2,ok,2,0,0.001,2,-0.5587,-0.39,-1.53,9.78,13,0.038,8.21
2.2967,-0.10996,0.01920,0.30369,0.00000,0.00000,0.00000,58,1,41,2,71,27,42,2,ok,2,0,0.001,2,-0.5625,-0.39,-1.53,9.78,13,0.050,8.21
2.3193,-0.10996,0.01920,0.30369,0.00000,0.00000,0.00000,58,-1,42,1,71,28,42,2,ok,2,0,0.001,2,-0.5662,-0.39,-1.53,9.78,13,0.063,8.21
2.3227,-0.10996,0.01920,0.30369,0.00000,0.00000,0.00000,57,-3,44,2,71,28,43,1,ok,2,0,0.001,2,-0.5700,-0.39,-1.53,9.78,13,0.076,8.21
2.3352,-0.10996,0.01920,0.30369,0.00000,0.00000,0.00000,56,-4,44,2,72,28,45,1,ok,2,0,0.001,2,-0.5737,-0.39,-1.53,9.78,13,0.089,8.21
2.3553,-0.10996,0.01920,0.30369,0.00000,0.00000,0.00000,55,-6,46,2,74,25,46,0,ok,2,0,0.001,2,-0.5775,-0.39,-1.53,9.78,13,0.101,8.21
2.3602,-0.10996,0.01920,0.30369,0.00000,0.00000,0.00000,55,-9,47,2,76,21,47,0,ok,2,0,0.001,2,-0.5812,-0.39,-1.53,9.78,13,0.114,8.21
2.3727,-0.10996,0.01920,0.30369,0.00000,0.00000,0.00000,54,-9,48,3,77,16,48,0,ok,2,0,0.001,2,-0.5850,-0.39,-1.53,9.78,13,0.126,8.21
2.3953,-0.10996,0.01920,0.30369,0.00000,0.00000,0.00000,53,-11,49,3,79,14,48,0,ok,2,0,0.001,2,-0.5887,-0.39,-1.53,9.78,13,0.139,8.21
2.3985,-0.10996,0.01920,0.30369,0.00000,0.00000,0.00000,52,-11,50,3,79,13,49,1,ok,2,0,0.001,2,-0.5925,-0.39,-1.53,9.78,13,0.152,8.21
2.4113,-0.10996,0.01920,0.30369,0.00000,0.00000,0.00000,51,-12,50,5,79,11,50,1,ok,2,0,0.001,2,-0.5962,-0.39,-1.53,9.78,13,0.165,8.21
2.4313,-0.10996,0.01920,0.30369,0.00000,0.00000,0.00000,50,-12,52,6,79,7,51,0,ok,2,0,0.001,2,-0.6000,-0.39,-1.53,9.78,13,0.177,8.21
2.4365,-0.01571,-0.02967,0.30194,0.00000,0.00000,0.00000,49,-12,53,5,79,4,52,0,ok,2,0,0.001,2,-0.6000,-0.14,-0.72,9.68,14,0.000,8.21
2.4487,-0.01571,-0.02967,0.30194,0.00000,0.00000,0.00000,48,-11,54,6,78,2,53,0,ok,2,0,0.001,2,-0.6000,-0.14,-0.72,9.68,14,0.013,8.21
2.4714,-0.01571,-0.02967,0.30194,0.00000,0.00000,0.00000,47,-11,54,7,77,-1,54,0,ok,2,0,0.001,2,-0.6000,-0.14,-0.72,9.68,14,0.025,8.21
2.4747,-0.01571,-0.02967,0.30194,0.00000,0.00000,0.00000,46,-11,56,7,76,-4,54,-1,ok,2,0,0.001,2,-0.6000,-0.14,-0.72,9.68,14,0.038,8.21
2.4873,-0.01571,-0.02967,0.30194,0.00000,0.00000,0.00000,45,-10,56,7,75,-5,56,0,ok,2,0,0.001,2,-0.6000,-0.14,-0.72,9.68,14,0.051,8.21
2.5073,-0.01571,-0.02967,0.30194,0.00000,0.00000,0.00000,44,-9,57,7,74,-8,56,-1,ok,2,0,0.001,2,-0.6000,-0.14,-0.72,9.68,14,0.064,8.21
2.5123,-0.01571,-0.02967,0.30194,0.00000,0.00000,0.00000,43,-8,58,8,71,-8,57,0,ok,2,0,0.001,2,-0.6000,-0.14,-0.72,9.68,14,0.076,8.21
2.5247,-0.01571,-0.02967,0.30194,0.00000,0.00000,0.00000,42,-6,58,8,70,-10,57,0,ok,2,0,0.001,2,-0.6000,-0.14,-0.72,9.68,14,0.089,8.21
2.5473,-0.01571,-0.02967,0.30194,0.00000,0.00000,0.00000,40,-4,59,9,69,-12,59,0,ok,2,0,0.001,2,-0.6000,-0.14,-0.72,9.68,14,0.101,8.21
2.5505,-0.01571,-0.02967,0.30194,0.00000,0.00000,0.00000,39,-2,60,10,66,-13,59,0,ok,2,0,0.001,3,-0.6000,-0.14,-0.72,9.68,14,0.114,8.21
2.5633,-0.01571,-0.02967,0.30194,0.00000,0.00000,0.00000,38,-1,61,11,64,-14,60,0,ok,2,0,0.001,3,-0.6000,-0.14,-0.72,9.68,14,0.127,8.21
2.5833,-0.01571,-0.02967,0.30194,0.00000,0.00000,0.00000,38,1,62,11,62,-14,63,-3,ok,2,0,0.001,3,-0.6000,-0.14,-0.72,9.68,14,0.139,8.21
2.5882,-0.01571,-0.02967,0.30194,0.00000,0.00000,0.00000,37,3,63,12,59,-15,63,-1,ok,2,0,0.001,3,-0.6000,-0.14,-0.72,9.68,14,0.152,8.21
2.6007,-0.01571,-0.02967,0.30194,0.00000,0.00000,0.00000,36,6,63,13,58,-15,64,-1,ok,2,0,0.001,3,-0.6000,-0.14,-0.72,9.68,14,0.165,8.21
2.6233,-0.01571,-0.02967,0.30194,0.00000,0.00000,0.00000,35,10,63,14,55,-14,65,-1,ok,2,0,0.001,3,-0.6000,-0.14,-0.72,9.68,14,0.177,8.21
2.6267,-0.01571,-0.02967,0.30194,0.00000,0.00000,0.00000,34,12,64,15,52,-13,65,-1,ok,2,0,0.001,3,-0.6000,-0.14,-0.72,9.68,14,0.190,8.21
2.6395,0.02967,-0.00524,0.29845,0.00000,0.00000,0.00000,35,13,64,16,50,-13,66,0,ok,2,0,0.001,3,-0.6000,-0.05,0.17,9.41,15,0.000,8.21
2.6593,0.02967,-0.00524,0.29845,0.00000,0.00000,0.00000,35,13,64,17,47,-12,67,-1,ok,2,0,0.001,3,-0.6000,-0.05,0.17,9.41,15,0.013,8.21
2.6642,0.02967,-0.00524,0.29845,0.00000,0.00000,0.00000,36,12,65,17,44,-12,68,0,ok,2,0,0.001,3,-0.6000,-0.05,0.17,9.41,15,0.025,8.21
2.6767,0.02967,-0.00524,0.29845,0.00000,0.00000,0.00000,36,12,65,18,41,-10,69,0,ok,2,0,0.001,3,-0.6000,-0.05,0.17,9.41,15,0.038,8.21
2.6993,0.02967,-0.00524,0.29845,0.00000,0.00000,0.00000,36,11,65,19,38,-10,69,1,ok,2,0,0.001,3,-0.6000,-0.05,0.17,9.41,15,0.050,8.21
2.7027,0.02967,-0.00524,0.29845,0.00000,0.00000,0.00000,37,10,66,19,35,-8,69,2,ok,2,0,0.001,3,-0.6000,-0.05,0.17,9.41,15,0.063,8.21
2.7152,0.02967,-0.00524,0.29845,0.00000,0.00000,0.00000,37,10,66,20,33,-7,70,3,ok,2,0,0.001,3,-0.6000,-0.05,0.17,9.41,15,0.076,8.21
2.7353,0.02967,-0.00524,0.29845,0.00000,0.00000,0.00000,38,8,66,21,32,-5,70,4,ok,2,0,0.001,3,-0.6000,-0.05,0.17,9.41,15,0.089,8.21
2.7403,0.02967,-0.00524,0.29845,0.00000,0.00000,0.00000,39,8,66,22,29,-2,71,5,ok,2,0,0.001,3,-0.6000,-0.05,0.17,9.41,15,0.101,8.21
2.7528,0.02967,-0.00524,0.29845,0.00000,0.00000,0.00000,39,7,65,23,28,0,71,6,ok,2,0,0.001,3,-0.6000,-0.05,0.17,9.41,15,0.114,8.21
2.7753,0.02967,-0.00524,0.29845,0.00000,0.00000,0.00000,40,6,65,24,27,3,71,7,ok,2,0,0.001,3,-0.6000,-0.05,0.17,9.41,15,0.126,8.21
2.7785,0.02967,-0.00524,0.29845,0.00000,0.00000,0.00000,40,6,65,25,26,6,72,8,ok,2,0,0.001,3,-0.6000,-0.05,0.17,9.41,15,0.139,8.21
2.7912,0.02967,-0.00524,0.29845,0.00000,0.00000,0.00000,41,5,64,28,28,6,72,9,ok,2,0,0.001,3,-0.6000,-0.05,0.17,9.41,15,0.152,8.21
2.8113,0.02967,-0.00524,0.29845,0.00000,0.00000,0.00000,41,4,64,29,29,5,72,11,ok,2,0,0.001,3,-0.6000,-0.05,0.17,9.41,15,0.165,8.21
2.8162,0.02967,-0.00524,0.29845,0.00000,0.00000,0.00000,42,4,65,27,30,3,72,12,ok,2,0,0.001,3,-0.6000,-0.05,0.17,9.41,15,0.177,8.21
2.8286,0.02967,-0.00524,0.29845,0.00000,0.00000,0.00000,42,3,68,24,31,2,73,14,ok,2,0,0.001,3,-0.6000,-0.05,0.17,9.41,15,0.189,8.21
2.8514,0.02967,-0.00524,0.29845,0.00000,0.00000,0.00000,43,3,70,21,32,2,73,15,ok,2,0,0.001,3,-0.6000,-0.05,0.17,9.41,15,0.202,8.21
2.8548,-0.04712,-0.04014,0.28623,0.00000,0.00000,0.00000,43,2,71,17,33,2,72,17,ok,2,0,0.001,3,-0.5962,-1.14,-0.54,9.39,16,0.000,8.21
2.8675,-0.04712,-0.04014,0.28623,0.00000,0.00000,0.00000,43,2,71,15,34,0,72,19,ok,2,0,0.001,3,-0.5925,-1.14,-0.54,9.39,16,0.013,8.21
2.8873,-0.04712,-0.04014,0.28623,0.00000,0.00000,0.00000,44,1,71,14,37,1,73,20,ok,2,0,0.001,3,-0.5887,-1.14,-0.54,9.39,16,0.025,8.21
2.8922,-0.04712,-0.04014,0.28623,0.00000,0.00000,0.00000,45,1,71,11,37,1,72,22,ok,2,0,0.001,3,-0.5850,-1.14,-0.54,9.39,16,0.038,8.21
2.9047,-0.04712,-0.04014,0.28623,0.00000,0.00000,0.00000,45,1,71,8,39,1,72,24,ok,2,0,0.001,3,-0.5812,-1.14,-0.54,9.39,16,0.050,8.21
2.9273,-0.04712,-0.04014,0.28623,0.00000,0.00000,0.00000,46,1,71,5,40,0,72,25,ok,2,0,0.001,3,-0.5775,-1.14,-0.54,9.39,16,0.063,8.21
2.9305,-0.04712,-0.04014,0.28623,0.00000,0.00000,0.00000,47,0,70,3,41,1,72,26,ok,2,0,0.001,3,-0.5737,-1.14,-0.54,9.39,16,0.076,8.21
2.9432,-0.04712,-0.04014,0.28623,0.00000,0.00000,0.00000,47,0,69,1,42,0,72,28,ok,2,0,0.001,3,-0.5700,-1.14,-0.54,9.39,16,0.089,8.21
2.9633,-0.04712,-0.04014,0.28623,0.00000,0.00000,0.00000,48,0,68,-1,44,0,72,29,ok,4,0,0.001,3,-0.5662,-1.14,-0.54,9.39,16,0.101,8.21
2.9682,-0.04712,-0.04014,0.28623,0.00000,0.00000,0.00000,48,0,66,-2,45,-1,73,29,ok,2,0,0.001,3,-0.5625,-1.14,-0.54,9.39,16,0.114,8.21
2.9807,-0.04712,-0.04014,0.28623,0.00000,0.00000,0.00000,48,0,65,-4,46,-1,74,28,ok,2,0,0.001,3,-0.5587,-1.14,-0.54,9.39,16,0.126,8.21
3.0033,-0.04712,-0.04014,0.28623,0.00000,0.00000,0.00000,49,0,64,-6,48,-1,75,26,ok,2,0,0.001,3,-0.5550,-1.14,-0.54,9.39,16,0.139,8.21
3.0066,-0.04712,-0.04014,0.28623,0.00000,0.00000,0.00000,50,2,62,-7,48,-1,77,20,ok,2,0,0.001,3,-0.5512,-1.14,-0.54,9.39,16,0.152,8.21
3.0192,-0.04712,-0.04014,0.28623,0.00000,0.00000,0.00000,50,1,59,-8,49,-1,78,17,ok,2,0,0.001,3,-0.5475,-1.14,-0.54,9.39,16,0.165,8.21
3.0394,-0.04712,-0.04014,0.28623,0.00000,0.00000,0.00000,50,1,57,-8,50,-1,80,14,ok,2,0,0.001,3,-0.5437,-1.14,-0.54,9.39,16,0.177,8.21
3.0445,-0.13265,-0.01920,0.31241,0.00000,0.00000,0.00000,50,3,54,-9,52,-1,80,13,ok,2,0,0.001,3,-0.5475,-0.26,-0.87,11.93,17,0.000,8.21
3.0567,-0.13265,-0.01920,0.31241,0.00000,0.00000,0.00000,51,4,51,-9,53,-1,80,10,ok,2,0,0.001,3,-0.5512,-0.26,-0.87,11.93,17,0.013,8.21
3.0793,-0.13265,-0.01920,0.31241,0.00000,0.00000,0.00000,51,4,49,-9,54,-1,80,7,ok,2,0,0.001,3,-0.5550,-0.26,-0.87,11.93,17,0.025,8.21
3.0826,-0.13265,-0.01920,0.31241,0.00000,0.00000,0.00000,51,5,46,-9,55,0,79,4,ok,2,0,0.001,3,-0.5587,-0.26,-0.87,11.93,17,0.038,8.21
3.0952,-0.13265,-0.01920,0.31241,0.00000,0.00000,0.00000,51,6,43,-9,56,0,79,2,ok,2,0,0.001,3,-0.5625,-0.26,-0.87,11.93,17,0.051,8.21
3.1153,-0.13265,-0.01920,0.31241,0.00000,0.00000,0.00000,52,6,41,-9,57,1,78,-2,ok,2,0,0.001,3,-0.5662,-0.26,-0.87,11.93,17,0.063,8.21
3.1202,-0.13265,-0.01920,0.31241,0.00000,0.00000,0.00000,53,6,39,-8,58,0,78,-3,ok,2,0,0.001,3,-0.5700,-0.26,-0.87,11.93,17,0.076,8.21
3.1327,-0.13265,-0.01920,0.31241,0.00000,0.00000,0.00000,53,7,36,-7,58,0,76,-5,ok,2,0,0.001,3,-0.5737,-0.26,-0.87,11.93,17,0.088,8.21
3.1553,-0.13265,-0.01920,0.31241,0.00000,0.00000,0.00000,53,8,33,-6,59,1,74,-7,ok,2,0,0.001,3,-0.5775,-0.26,-0.87,11.93,17,0.101,8.21
3.1585,-0.13265,-0.01920,0.31241,0.00000,0.00000,0.00000,53,8,29,-5,60,1,71,-7,ok,2,0,0.001,3,-0.5812,-0.26,-0.87,11.93,17,0.114,8.21
3.1712,-0.13265,-0.01920,0.31241,0.00000,0.00000,0.00000,54,9,26,-3,61,1,70,-9,ok,2,0,0.001,3,-0.5850,-0.26,-0.87,11.93,17,0.127,8.21
3.1913,-0.13265,-0.01920,0.31241,0.00000,0.00000,0.00000,55,10,22,-1,62,0,69,-11,ok,2,0,0.001,3,-0.5887,-0.26,-0.87,11.93,17,0.140,8.21
3.1963,-0.13265,-0.01920,0.31241,0.00000,0.00000,0.00000,54,10,20,0,64,-2,67,-12,ok,2,0,0.001,3,-0.5925,-0.26,-0.87,11.93,17,0.152,8.21
3.2089,-0.13265,-0.01920,0.31241,0.00000,0.00000,0.00000,55,11,18,1,65,-1,64,-13,ok,2,0,0.001,3,-0.5962,-0.26,-0.87,11.93,17,0.165,8.21
3.2313,-0.13265,-0.01920,0.31241,0.00000,0.00000,0.00000,55,11,16,3,66,0,63,-13,ok,2,0,0.001,3,-0.6000,-0.26,-0.87,11.93,17,0.177,8.21
3.2345,-0.13265,-0.01920,0.31241,0.00000,0.00000,0.00000,55,12,15,7,66,-1,60,-14,ok,2,0,0.001,3,-0.6000,-0.26,-0.87,11.93,17,0.190,8.21
3.2476,-0.13265,-0.01920,0.31241,0.00000,0.00000,0.00000,55,13,13,10,66,0,58,-14,ok,2,0,0.001,3,-0.6000,-0.26,-0.87,11.93,17,0.203,8.21
3.2673,-0.03665,-0.01047,0.24435,0.00000,0.00000,0.00000,56,14,11,12,67,0,55,-13,ok,2,0,0.001,3,-0.5962,-0.12,-0.08,10.29,18,0.000,8.21
3.2722,-0.03665,-0.01047,0.24435,0.00000,0.00000,0.00000,56,15,13,13,68,0,52,-13,ok,2,0,0.001,3,-0.5925,-0.12,-0.08,10.29,18,0.012,8.21
3.2847,-0.03665,-0.01047,0.24435,0.00000,0.00000,0.00000,56,16,13,12,68,1,50,-12,ok,2,0,0.001,3,-0.5887,-0.12,-0.08,10.29,18,0.025,8.21
3.3073,-0.03665,-0.01047,0.24435,0.00000,0.00000,0.00000,56,17,14,11,69,1,47,-11,ok,2,0,0.001,3,-0.5850,-0.12,-0.08,10.29,18,0.038,8.21
3.3105,-0.03665,-0.01047,0.24435,0.00000,0.00000,0.00000,56,17,15,10,69,2,45,-11,ok,2,0,0.001,3,-0.5812,-0.12,-0.08,10.29,18,0.051,8.21
3.3232,-0.03665,-0.01047,0.24435,0.00000,0.00000,0.00000,56,18,16,10,69,2,41,-10,ok,2,0,0.001,3,-0.5775,-0.12,-0.08,10.29,18,0.064,8.21
3.3433,-0.03665,-0.01047,0.24435,0.00000,0.00000,0.00000,57,19,17,9,70,3,39,-9,ok,2,0,0.001,3,-0.5737,-0.12,-0.08,10.29,18,0.076,8.21
3.3482,-0.03665,-0.01047,0.24435,0.00000,0.00000,0.00000,57,20,18,8,70,4,35,-7,ok,2,0,0.001,3,-0.5700,-0.12,-0.08,10.29,18,0.088,8.21
3.3607,-0.03665,-0.01047,0.24435,0.00000,0.00000,0.00000,57,21,20,7,71,4,34,-6,ok,2,0,0.001,3,-0.5662,-0.12,-0.08,10.29,18,0.101,8.21
3.3833,-0.03665,-0.01047,0.24435,0.00000,0.00000,0.00000,57,22,21,6,71,6,32,-4,ok,2,0,0.001,3,-0.5625,-0.12,-0.08,10.29,18,0.113,8.21
3.3867,-0.03665,-0.01047,0.24435,0.00000,0.00000,0.00000,58,23,22,6,71,7,29,-1,ok,2,0,0.001,3,-0.5587,-0.12,-0.08,10.29,18,0.127,8.21
3.3993,-0.03665,-0.01047,0.24435,0.00000,0.00000,0.00000,58,24,23,6,71,8,28,2,ok,2,0,0.001,3,-0.5550,-0.12,-0.08,10.29,18,0.140,8.21
3.4193,-0.03665,-0.01047,0.24435,0.00000,0.00000,0.00000,57,25,25,5,71,9,27,5,ok,2,0,0.001,3,-0.5512,-0.12,-0.08,10.29,18,0.152,8.21
3.4242,-0.03665,-0.01047,0.24435,0.00000,0.00000,0.00000,57,28,26,5,71,10,27,7,ok,2,0,0.001,3,-0.5475,-0.12,-0.08,10.29,18,0.164,8.21
3.4369,-0.03665,-0.01047,0.24435,0.00000,0.00000,0.00000,56,29,27,4,71,11,29,6,ok,2,0,0.001,3,-0.5437,-0.12,-0.08,10.29,18,0.177,8.21
3.4593,-0.03665,-0.01047,0.24435,0.00000,0.00000,0.00000,57,28,28,3,72,13,29,6,ok,2,0,0.001,3,-0.5400,-0.12,-0.08,10.29,18,0.189,8.21
3.4628,-0.05411,-0.00873,0.24260,0.00000,0.00000,0.00000,58,25,30,3,72,14,30,3,ok,2,0,0.001,3,-0.5362,1.60,-0.28,12.64,19,0.000,8.21
3.4753,-0.05411,-0.00873,0.24260,0.00000,0.00000,0.00000,59,21,31,2,71,15,31,3,ok,2,0,0.001,3,-0.5325,1.60,-0.28,12.64,19,0.013,8.21
3.4953,-0.05411,-0.00873,0.24260,0.00000,0.00000,0.00000,60,17,33,2,71,17,33,3,ok,2,0,0.001,3,-0.5287,1.60,-0.28,12.64,19,0.025,8.21
3.5002,-0.05411,-0.00873,0.24260,0.00000,0.00000,0.00000,60,15,34,2,72,18,34,2,ok,2,0,0.001,3,-0.5250,1.60,-0.28,12.64,19,0.038,8.21
3.5127,-0.05411,-0.00873,0.24260,0.00000,0.00000,0.00000,60,14,35,1,71,20,36,1,ok,2,0,0.001,3,-0.5212,1.60,-0.28,12.64,19,0.050,8.21
3.5353,-0.05411,-0.00873,0.24260,0.00000,0.00000,0.00000,60,11,37,1,71,21,38,1,ok,2,0,0.001,3,-0.5175,1.60,-0.28,12.64,19,0.063,8.21
3.5386,-0.05411,-0.00873,0.24260,0.00000,0.00000,0.00000,60,7,38,2,71,23,38,2,ok,2,0,0.001,3,-0.5137,1.60,-0.28,12.64,19,0.076,8.21
3.5515,-0.05411,-0.00873,0.24260,0.00000,0.00000,0.00000,59,5,39,2,72,25,40,1,ok,2,0,0.001,3,-0.5100,1.60,-0.28,12.64,19,0.089,8.21
3.5713,-0.05411,-0.00873,0.24260,0.00000,0.00000,0.00000,59,1,41,2,71,27,41,1,ok,2,0,0.001,4,-0.5062,1.60,-0.28,12.64,19,0.101,8.21
3.5763,-0.05411,-0.00873,0.24260,0.00000,0.00000,0.00000,58,-1,42,1,71,28,42,1,ok,2,0,0.001,4,-0.5025,1.60,-0.28,12.64,19,0.114,8.21
3.5887,-0.05411,-0.00873,0.24260,0.00000,0.00000,0.00000,58,-3,44,2,71,28,43,1,ok,2,0,0.001,4,-0.4987,1.60,-0.28,12.64,19,0.126,8.21
3.6113,-0.05411,-0.00873,0.24260,0.00000,0.00000,0.00000,57,-4,44,2,72,28,44,1,ok,2,0,0.001,4,-0.4950,1.60,-0.28,12.64,19,0.139,8.21
3.6146,-0.05411,-0.00873,0.24260,0.00000,0.00000,0.00000,57,-6,46,2,74,25,46,0,ok,2,0,0.001,4,-0.4912,1.60,-0.28,12.64,19,0.152,8.21
3.6277,-0.05411,-0.00873,0.24260,0.00000,0.00000,0.00000,56,-8,47,2,76,21,47,0,ok,2,0,0.001,4,-0.4875,1.60,-0.28,12.64,19,0.165,8.21
3.6473,-0.05411,-0.00873,0.24260,0.00000,0.00000,0.00000,55,-9,48,3,77,16,48,0,ok,2,0,0.001,4,-0.4837,1.60,-0.28,12.64,19,0.177,8.21
3.6525,-0.09774,-0.03142,0.27576,0.00000,0.00000,0.00000,54,-10,50,3,79,13,48,0,ok,2,0,0.001,4,-0.4875,1.02,-0.31,8.90,20,0.000,8.21
3.6647,-0.09774,-0.03142,0.27576,0.00000,0.00000,0.00000,53,-11,50,3,79,13,49,0,ok,2,0,0.001,4,-0.4912,1.02,-0.31,8.90,20,0.013,8.21
3.6873,-0.09774,-0.03142,0.27576,0.00000,0.00000,0.00000,52,-12,50,5,79,10,50,0,ok,2,0,0.001,4,-0.4950,1.02,-0.31,8.90,20,0.025,8.21
3.6905,-0.09774,-0.03142,0.27576,0.00000,0.00000,0.00000,50,-12,52,6,79,7,51,0,ok,2,0,0.001,4,-0.4980,1.02,-0.31,8.90,20,0.038,8.21
3.7032,-0.09774,-0.03142,0.27576,0.00000,0.00000,0.00000,49,-12,53,5,79,4,52,0,ok,2,0,0.001,4,-0.4992,1.02,-0.31,8.90,20,0.051,8.21
3.7233,-0.09774,-0.03142,0.27576,0.00000,0.00000,0.00000,48,-11,54,6,78,2,53,0,ok,2,0,0.001,4,-0.5004,1.02,-0.31,8.90,20,0.064,8.21
3.7284,-0.09774,-0.03142,0.27576,0.00000,0.00000,0.00000,47,-11,54,7,77,-2,54,1,ok,2,0,0.001,4,-0.5017,1.02,-0.31,8.90,20,0.076,8.21
3.7407,-0.09774,-0.03142,0.27576,0.00000,0.00000,0.00000,45,-11,56,7,76,-4,54,0,ok,2,0,0.001,4,-0.5029,1.02,-0.31,8.90,20,0.088,8.21
3.7634,-0.09774,-0.03142,0.27576,0.00000,0.00000,0.00000,44,-10,56,7,75,-5,56,0,ok,2,0,0.001,4,-0.5041,1.02,-0.31,8.90,20,0.101,8.21
3.7666,-0.09774,-0.03142,0.27576,0.00000,0.00000,0.00000,43,-9,57,8,74,-8,56,-1,ok,2,0,0.001,4,-0.5053,1.02,-0.31,8.90,20,0.114,8.21
3.7795,-0.09774,-0.03142,0.27576,0.00000,0.00000,0.00000,41,-8,58,8,71,-8,57,0,ok,2,0,0.001,4,-0.5066,1.02,-0.31,8.90,20,0.127,8.21
3.7993,-0.09774,-0.03142,0.27576,0.00000,0.00000,0.00000,40,-6,59,9,70,-10,57,0,ok,2,0,0.001,4,-0.5078,1.02,-0.31,8.90,20,0.140,8.21
3.8042,-0.09774,-0.03142,0.27576,0.00000,0.00000,0.00000,38,-4,59,9,69,-12,58,0,ok,2,0,0.001,4,-0.5090,1.02,-0.31,8.90,20,0.152,8.21
3.8167,-0.09774,-0.03142,0.27576,0.00000,0.00000,0.00000,36,-2,60,11,66,-13,59,0,ok,2,0,0.001,4,-0.5102,1.02,-0.31,8.90,20,0.165,8.21
3.8393,-0.09774,-0.03142,0.27576,0.00000,0.00000,0.00000,35,-1,61,11,64,-14,60,0,ok,2,0,0.001,4,-0.5115,1.02,-0.31,8.90,20,0.177,8.21
3.8425,-0.09774,-0.03142,0.27576,0.00000,0.00000,0.00000,34,0,62,11,62,-14,62,-3,ok,2,0,0.001,4,-0.5127,1.02,-0.31,8.90,20,0.190,8.21
3.8555,0.04363,0.01396,0.28623,0.00000,0.00000,0.00000,34,3,63,12,60,-15,63,-1,ok,2,0,0.001,4,-0.5164,0.12,0.54,9.36,21,0.000,8.21
3.8753,0.04363,0.01396,0.28623,0.00000,0.00000,0.00000,33,6,63,13,58,-15,64,-2,ok,2,0,0.001,4,-0.5202,0.12,0.54,9.36,21,0.013,8.21
3.8802,0.04363,0.01396,0.28623,0.00000,0.00000,0.00000,32,10,63,14,55,-14,64,-1,ok,2,0,0.001,4,-0.5239,0.12,0.54,9.36,21,0.025,8.21
3.8927,0.04363,0.01396,0.28623,0.00000,0.00000,0.00000,31,12,64,15,52,-13,65,-2,ok,2,0,0.001,4,-0.5277,0.12,0.54,9.36,21,0.037,8.21
3.9153,0.04363,0.01396,0.28623,0.00000,0.00000,0.00000,32,13,64,15,50,-13,66,-1,ok,2,0,0.001,4,-0.5314,0.12,0.54,9.36,21,0.050,8.21
3.9185,0.04363,0.01396,0.28623,0.00000,0.00000,0.00000,32,13,64,17,47,-12,66,-1,ok,2,0,0.001,4,-0.5352,0.12,0.54,9.36,21,0.063,8.21
3.9314,0.04363,0.01396,0.28623,0.00000,0.00000,0.00000,33,12,65,17,44,-12,67,0,ok,2,0,0.001,4,-0.5389,0.12,0.54,9.36,21,0.076,8.21
3.9513,0.04363,0.01396,0.28623,0.00000,0.00000,0.00000,34,12,65,18,41,-10,68,0,ok,2,0,0.001,4,-0.5427,0.12,0.54,9.36,21,0.089,8.21
3.9562,0.04363,0.01396,0.28623,0.00000,0.00000,0.00000,35,11,65,18,39,-10,69,2,ok,2,0,0.001,4,-0.5464,0.12,0.54,9.36,21,0.101,8.21
3.9689,0.04363,0.01396,0.28623,0.00000,0.00000,0.00000,36,10,65,19,35,-8,69,2,ok,2,0,0.001,4,-0.5502,0.12,0.54,9.36,21,0.114,8.21
3.9913,0.04363,0.01396,0.28623,0.00000,0.00000,0.00000,36,10,65,20,33,-7,70,3,ok,2,0,0.001,4,-0.5539,0.12,0.54,9.36,21,0.126,8.21
3.9946,0.04363,0.01396,0.28623,0.00000,0.00000,0.00000,37,9,66,21,32,-5,70,4,ok,2,0,0.001,4,-0.5577,0.12,0.54,9.36,21,0.139,8.21
4.0072,0.04363,0.01396,0.28623,0.00000,0.00000,0.00000,38,8,66,22,29,-2,72,5,ok,2,0,0.001,4,-0.5614,0.12,0.54,9.36,21,0.152,8.21
4.0273,0.04363,0.01396,0.28623,0.00000,0.00000,0.00000,38,7,65,23,28,0,71,6,ok,2,0,0.001,4,-0.5652,0.12,0.54,9.36,21,0.165,8.21
4.0322,0.04363,0.01396,0.28623,0.00000,0.00000,0.00000,39,6,65,24,27,4,71,7,ok,2,0,0.001,4,-0.5689,0.12,0.54,9.36,21,0.177,8.21
4.0447,0.04363,0.01396,0.28623,0.00000,0.00000,0.00000,40,6,65,25,26,6,72,8,ok,2,0,0.001,4,-0.5727,0.12,0.54,9.36,21,0.189,8.21
4.0673,0.00349,0.01920,0.26005,0.00000,0.00000,0.00000,40,6,64,28,28,6,72,9,ok,2,0,0.001,4,-0.5689,0.73,0.59,9.35,22,0.000,8.21
4.0705,0.00349,0.01920,0.26005,0.00000,0.00000,0.00000,40,4,64,29,29,5,72,11,ok,2,0,0.001,4,-0.5652,0.73,0.59,9.35,22,0.013,8.21
4.0833,0.00349,0.01920,0.26005,0.00000,0.00000,0.00000,41,4,65,27,30,3,72,12,ok,2,0,0.001,4,-0.5614,0.73,0.59,9.35,22,0.026,8.21
4.1033,0.00349,0.01920,0.26005,0.00000,0.00000,0.00000,42,3,68,24,31,2,73,14,ok,2,0,0.001,4,-0.5577,0.73,0.59,9.35,22,0.039,8.21
4.1084,0.00349,0.01920,0.26005,0.00000,0.00000,0.00000,42,3,70,21,32,2,73,16,ok,2,0,0.001,4,-0.5539,0.73,0.59,9.35,22,0.051,8.21
4.1207,0.00349,0.01920,0.26005,0.00000,0.00000,0.00000,42,2,71,17,33,2,72,17,ok,2,0,0.001,4,-0.5502,0.73,0.59,9.35,22,0.064,8.21
4.1433,0.00349,0.01920,0.26005,0.00000,0.00000,0.00000,43,2,71,15,34,1,72,19,ok,2,0,0.001,4,-0.5464,0.73,0.59,9.35,22,0.076,8.21
4.1467,0.00349,0.01920,0.26005,0.00000,0.00000,0.00000,44,1,71,14,37,1,73,20,ok,2,0,0.001,4,-0.5427,0.73,0.59,9.35,22,0.089,8.21
4.1592,0.00349,0.01920,0.26005,0.00000,0.00000,0.00000,44,1,71,11,37,1,72,22,ok,2,0,0.001,4,-0.5389,0.73,0.59,9.35,22,0.102,8.21
4.1793,0.00349,0.01920,0.26005,0.00000,0.00000,0.00000,45,1,71,8,39,1,72,23,ok,2,0,0.001,4,-0.5352,0.73,0.59,9.35,22,0.115,8.21
4.1842,0.00349,0.01920,0.26005,0.00000,0.00000,0.00000,45,1,70,5,40,1,72,24,ok,2,0,0.001,4,-0.5314,0.73,0.59,9.35,22,0.127,8.21
4.1967,0.00349,0.01920,0.26005,0.00000,0.00000,0.00000,46,0,70,3,41,1,72,26,ok,2,0,0.001,4,-0.5277,0.73,0.59,9.35,22,0.140,8.21
4.2193,0.00349,0.01920,0.26005,0.00000,0.00000,0.00000,47,0,69,1,43,1,72,28,ok,2,0,0.001,4,-0.5239,0.73,0.59,9.35,22,0.152,8.21
4.2225,0.00349,0.01920,0.26005,0.00000,0.00000,0.00000,48,0,68,-1,44,1,71,29,ok,2,0,0.001,4,-0.5202,0.73,0.59,9.35,22,0.165,8.21
4.2352,0.00349,0.01920,0.26005,0.00000,0.00000,0.00000,48,0,65,-2,45,0,73,29,ok,2,0,0.001,4,-0.5164,0.73,0.59,9.35,22,0.178,8.21
4.2553,0.00349,0.01920,0.26005,0.00000,0.00000,0.00000,48,1,64,-4,47,0,74,28,ok,2,0,0.001,4,-0.5127,0.73,0.59,9.35,22,0.191,8.21
4.2605,-0.14312,-0.01745,0.23911,0.00000,0.00000,0.00000,49,1,63,-6,48,0,76,26,ok,2,0,0.001,4,-0.5089,-0.23,-2.46,10.28,23,0.000,8.21
4.2727,-0.14312,-0.01745,0.23911,0.00000,0.00000,0.00000,50,1,61,-7,48,-1,77,21,ok,2,0,0.001,4,-0.5052,-0.23,-2.46,10.28,23,0.013,8.21
4.2953,-0.14312,-0.01745,0.23911,0.00000,0.00000,0.00000,50,1,59,-8,49,-1,79,17,ok,2,0,0.001,4,-0.5014,-0.23,-2.46,10.28,23,0.025,8.21
4.2987,-0.14312,-0.01745,0.23911,0.00000,0.00000,0.00000,51,1,56,-8,51,-1,80,14,ok,2,0,0.001,4,-0.4977,-0.23,-2.46,10.28,23,0.038,8.21
4.3112,-0.14312,-0.01745,0.23911,0.00000,0.00000,0.00000,51,3,54,-9,52,-1,81,14,ok,2,0,0.001,4,-0.4939,-0.23,-2.46,10.28,23,0.051,8.21
4.3313,-0.14312,-0.01745,0.23911,0.00000,0.00000,0.00000,51,4,51,-9,53,0,80,11,ok,2,0,0.001,4,-0.4902,-0.23,-2.46,10.28,23,0.064,8.21
4.3365,-0.14312,-0.01745,0.23911,0.00000,0.00000,0.00000,51,4,49,-9,54,0,80,7,ok,2,0,0.001,4,-0.4864,-0.23,-2.46,10.28,23,0.076,8.21
4.3487,-0.14312,-0.01745,0.23911,0.00000,0.00000,0.00000,52,5,46,-9,55,1,80,4,ok,2,0,0.001,4,-0.4827,-0.23,-2.46,10.28,23,0.089,8.21
4.3713,-0.14312,-0.01745,0.23911,0.00000,0.00000,0.00000,52,5,44,-9,56,0,79,2,ok,2,0,0.001,4,-0.4789,-0.23,-2.46,10.28,23,0.101,8.21
4.3745,-0.14312,-0.01745,0.23911,0.00000,0.00000,0.00000,53,6,42,-9,57,1,78,-2,ok,2,0,0.001,4,-0.4752,-0.23,-2.46,10.28,23,0.114,8.21
4.3872,-0.14312,-0.01745,0.23911,0.00000,0.00000,0.00000,53,6,39,-8,58,0,78,-3,ok,2,0,0.001,4,-0.4714,-0.23,-2.46,10.28,23,0.127,8.21
4.4073,-0.14312,-0.01745,0.23911,0.00000,0.00000,0.00000,54,7,36,-7,59,0,76,-5,ok,2,0,0.001,4,-0.4677,-0.23,-2.46,10.28,23,0.139,8.21
4.4124,-0.14312,-0.01745,0.23911,0.00000,0.00000,0.00000,54,8,33,-6,59,1,74,-7,ok,2,0,0.001,4,-0.4639,-0.23,-2.46,10.28,23,0.152,8.21
4.4247,-0.14312,-0.01745,0.23911,0.00000,0.00000,0.00000,54,8,29,-5,60,1,71,-7,ok,2,0,0.001,4,-0.4602,-0.23,-2.46,10.28,23,0.165,8.21
4.4473,-0.14312,-0.01745,0.23911,0.00000,0.00000,0.00000,55,9,26,-3,61,1,70,-9,ok,2,0,0.001,4,-0.4564,-0.23,-2.46,10.28,23,0.177,8.21
4.4506,-0.14312,-0.01745,0.23911,0.00000,0.00000,0.00000,55,10,22,-1,62,0,69,-11,ok,2,0,0.001,4,-0.4527,-0.23,-2.46,10.28,23,0.190,8.21
4.4633,-0.14312,-0.01745,0.23911,0.00000,0.00000,0.00000,56,10,20,0,64,-2,67,-12,ok,2,0,0.001,4,-0.4489,-0.23,-2.46,10.28,23,0.203,8.21
4.4833,-0.05934,-0.00000,0.17453,0.00000,0.00000,0.00000,57,11,19,1,65,-1,64,-13,ok,2,0,0.001,4,-0.4339,-0.22,-0.00,10.15,24,0.000,8.21
4.4885,-0.05934,-0.00000,0.17453,0.00000,0.00000,0.00000,57,11,17,3,65,0,63,-14,ok,2,0,0.001,4,-0.4189,-0.22,-0.00,10.15,24,0.012,8.21
4.5007,-0.05934,-0.00000,0.17453,0.00000,0.00000,0.00000,57,12,15,7,66,0,60,-14,ok,2,0,0.001,4,-0.4039,-0.22,-0.00,10.15,24,0.025,8.21
4.5233,-0.05934,-0.00000,0.17453,0.00000,0.00000,0.00000,57,13,13,10,66,0,58,-15,ok,2,0,0.001,4,-0.3889,-0.22,-0.00,10.15,24,0.038,8.21
4.5265,-0.05934,-0.00000,0.17453,0.00000,0.00000,0.00000,58,14,11,12,67,0,55,-13,ok,2,0,0.001,4,-0.3739,-0.22,-0.00,10.15,24,0.051,8.21
4.5395,-0.05934,-0.00000,0.17453,0.00000,0.00000,0.00000,58,15,13,13,68,0,52,-13,ok,2,0,0.001,4,-0.3589,-0.22,-0.00,10.15,24,0.064,8.21
4.5593,-0.05934,-0.00000,0.17453,0.00000,0.00000,0.00000,59,16,13,12,69,1,50,-12,ok,2,0,0.001,4,-0.3439,-0.22,-0.00,10.15,24,0.076,8.21
4.5642,-0.05934,-0.00000,0.17453,0.00000,0.00000,0.00000,60,17,14,11,69,1,47,-11,ok,2,0,0.001,4,-0.3289,-0.22,-0.00,10.15,24,0.088,8.21
4.5767,-0.05934,-0.00000,0.17453,0.00000,0.00000,0.00000,60,18,15,10,69,2,45,-11,ok,2,0,0.001,5,-0.3139,-0.22,-0.00,10.15,24,0.101,8.21
4.5993,-0.05934,-0.00000,0.17453,0.00000,0.00000,0.00000,61,18,16,10,69,2,41,-9,ok,2,0,0.001,5,-0.2989,-0.22,-0.00,10.15,24,0.114,8.21
4.6025,-0.05934,-0.00000,0.17453,0.00000,0.00000,0.00000,61,18,17,9,70,3,39,-9,ok,2,0,0.001,5,-0.2839,-0.22,-0.00,10.15,24,0.127,8.21
4.6154,-0.05934,-0.00000,0.17453,0.00000,0.00000,0.00000,62,20,18,8,70,4,35,-7,ok,2,0,0.001,5,-0.2689,-0.22,-0.00,10.15,24,0.140,8.21
4.6353,-0.05934,-0.00000,0.17453,0.00000,0.00000,0.00000,63,21,20,8,71,5,34,-6,ok,2,0,0.001,5,-0.2539,-0.22,-0.00,10.15,24,0.152,8.21
4.6402,-0.05934,-0.00000,0.17453,0.00000,0.00000,0.00000,63,22,21,7,71,6,32,-4,ok,2,0,0.001,5,-0.2389,-0.22,-0.00,10.15,24,0.165,8.21
4.6528,-0.05934,-0.00000,0.17453,0.00000,0.00000,0.00000,62,23,22,6,71,7,30,-1,ok,2,0,0.001,5,-0.2239,-0.22,-0.00,10.15,24,0.177,8.21
4.6754,-0.05934,-0.00000,0.17453,0.00000,0.00000,0.00000,63,24,24,6,71,8,28,1,ok,2,0,0.001,5,-0.2089,-0.22,-0.00,10.15,24,0.190,8.21
4.6788,0.08727,-0.11868,0.15882,0.00000,0.00000,0.00000,62,25,25,5,72,9,27,5,ok,2,0,0.001,5,-0.1939,-0.26,0.56,10.87,25,0.000,8.21
4.6914,0.08727,-0.11868,0.15882,0.00000,0.00000,0.00000,62,28,26,5,72,10,27,7,ok,2,0,0.001,5,-0.1902,-0.26,0.56,10.87,25,0.013,8.21
4.7113,0.08727,-0.11868,0.15882,0.00000,0.00000,0.00000,61,29,28,4,71,12,29,5,ok,2,0,0.001,5,-0.1864,-0.26,0.56,10.87,25,0.025,8.21
4.7162,0.08727,-0.11868,0.15882,0.00000,0.00000,0.00000,62,28,29,3,71,13,29,5,ok,2,0,0.001,5,-0.1827,-0.26,0.56,10.87,25,0.038,8.21
4.7287,0.08727,-0.11868,0.15882,0.00000,0.00000,0.00000,64,25,31,3,72,14,30,3,ok,2,0,0.001,5,-0.1789,-0.26,0.56,10.87,25,0.050,8.21
4.7513,0.08727,-0.11868,0.15882,0.00000,0.00000,0.00000,66,21,32,2,71,15,31,2,ok,2,0,0.001,5,-0.1752,-0.26,0.56,10.87,25,0.063,8.21
4.7545,0.08727,-0.11868,0.15882,0.00000,0.00000,0.00000,67,17,33,2,71,17,33,2,ok,2,0,0.001,5,-0.1714,-0.26,0.56,10.87,25,0.076,8.21
4.7674,0.08727,-0.11868,0.15882,0.00000,0.00000,0.00000,67,15,34,2,72,18,34,1,ok,2,0,0.001,5,-0.1677,-0.26,0.56,10.87,25,0.089,8.21
4.7873,0.08727,-0.11868,0.15882,0.00000,0.00000,0.00000,68,14,36,1,71,20,36,0,ok,2,0,0.001,5,-0.1639,-0.26,0.56,10.87,25,0.101,8.21
4.7922,0.08727,-0.11868,0.15882,0.00000,0.00000,0.00000,68,11,37,1,71,21,38,0,ok,2,0,0.001,5,-0.1602,-0.26,0.56,10.87,25,0.114,8.21
4.8047,0.08727,-0.11868,0.15882,0.00000,0.00000,0.00000,67,8,38,2,71,22,39,1,ok,2,0,0.001,5,-0.1564,-0.26,0.56,10.87,25,0.126,8.21
4.8273,0.08727,-0.11868,0.15882,0.00000,0.00000,0.00000,67,5,40,2,71,24,40,1,ok,2,0,0.001,5,-0.1527,-0.26,0.56,10.87,25,0.139,8.21
4.8305,0.08727,-0.11868,0.15882,0.00000,0.00000,0.00000,66,1,41,2,70,26,42,1,ok,2,0,0.001,5,-0.1489,-0.26,0.56,10.87,25,0.152,8.21
4.8434,0.08727,-0.11868,0.15882,0.00000,0.00000,0.00000,65,-1,42,1,70,27,43,1,ok,2,0,0.001,5,-0.1452,-0.26,0.56,10.87,25,0.165,8.21
4.8634,0.08727,-0.11868,0.15882,0.00000,0.00000,0.00000,64,-3,44,2,70,28,44,0,ok,2,0,0.001,5,-0.1414,-0.26,0.56,10.87,25,0.177,8.21
4.8685,0.02094,-0.02094,0.15882,0.00000,0.00000,0.00000,62,-4,44,2,72,28,45,0,ok,2,0,0.001,5,-0.1377,1.35,0.51,10.22,26,0.000,8.21
4.8807,0.02094,-0.02094,0.15882,0.00000,0.00000,0.00000,61,-6,46,2,73,25,46,0,ok,2,0,0.001,5,-0.1339,1.35,0.51,10.22,26,0.013,8.21
4.9033,0.02094,-0.02094,0.15882,0.00000,0.00000,0.00000,60,-8,47,2,75,21,47,0,ok,2,0,0.001,5,-0.1302,1.35,0.51,10.22,26,0.025,8.21
4.9065,0.02094,-0.02094,0.15882,0.00000,0.00000,0.00000,59,-9,48,3,77,16,48,0,ok,2,0,0.001,5,-0.1264,1.35,0.51,10.22,26,0.038,8.21
4.9195,0.02094,-0.02094,0.15882,0.00000,0.00000,0.00000,57,-10,49,3,78,13,49,0,ok,2,0,0.001,5,-0.1227,1.35,0.51,10.22,26,0.051,8.21
4.9393,0.02094,-0.02094,0.15882,0.00000,0.00000,0.00000,54,-11,50,3,78,13,50,0,ok,2,0,0.001,5,-0.1189,1.35,0.51,10.22,26,0.064,8.21
4.9442,0.02094,-0.02094,0.15882,0.00000,0.00000,0.00000,53,-12,50,5,78,10,51,0,ok,2,0,0.001,5,-0.1152,1.35,0.51,10.22,26,0.076,8.21
4.9567,0.02094,-0.02094,0.15882,0.00000,0.00000,0.00000,50,-11,52,6,79,7,52,0,ok,2,0,0.001,5,-0.1114,1.35,0.51,10.22,26,0.089,8.21
4.9793,0.02094,-0.02094,0.15882,0.00000,0.00000,0.00000,48,-11,53,5,78,4,53,0,ok,2,0,0.001,5,-0.1077,1.35,0.51,10.22,26,0.101,8.21
4.9825,0.02094,-0.02094,0.15882,0.00000,0.00000,0.00000,46,-11,53,6,77,2,54,0,ok,2,0,0.001,5,-0.1039,1.35,0.51,10.22,26,0.114,8.21
4.9952,0.02094,-0.02094,0.15882,0.00000,0.00000,0.00000,44,-11,54,7,77,-1,54,0,ok,2,0,0.001,5,-0.1002,1.35,0.51,10.22,26,0.127,8.21
5.0153,0.02094,-0.02094,0.15882,0.00000,0.00000,0.00000,41,-11,56,7,76,-4,55,-1,ok,2,0,0.001,5,-0.0964,1.35,0.51,10.22,26,0.140,8.21
5.0272,0.02094,-0.02094,0.15882,0.00000,0.00000,0.00000,39,-10,56,7,75,-5,56,0,ok,2,0,0.001,5,-0.0927,1.35,0.51,10.22,26,0.152,8.21
5.0327,0.02094,-0.02094,0.15882,0.00000,0.00000,0.00000,36,-9,57,7,73,-8,56,-1,ok,2,0,0.001,5,-0.0889,1.35,0.51,10.22,26,0.165,8.21
5.0553,0.02094,-0.02094,0.15882,0.00000,0.00000,0.00000,34,-8,58,8,71,-8,57,0,ok,2,0,0.001,5,-0.0852,1.35,0.51,10.22,26,0.177,8.21
5.0585,0.02094,-0.02094,0.15882,0.00000,0.00000,0.00000,31,-6,58,8,69,-10,57,0,ok,2,0,0.001,5,-0.0814,1.35,0.51,10.22,26,0.190,8.21
5.0715,0.03316,0.00000,0.17104,0.00000,0.00000,0.00000,28,-4,59,9,68,-12,59,0,ok,2,0,0.001,5,-0.0777,0.11,0.34,9.18,27,0.000,8.21
5.0913,0.03316,0.00000,0.17104,0.00000,0.00000,0.00000,24,-2,60,11,66,-13,60,0,ok,2,0,0.001,5,-0.0739,0.11,0.34,9.18,27,0.013,8.21
5.0963,0.03316,0.00000,0.17104,0.00000,0.00000,0.00000,22,-1,61,11,64,-13,61,0,ok,2,0,0.001,5,-0.0702,0.11,0.34,9.18,27,0.025,8.21
5.1087,0.03316,0.00000,0.17104,0.00000,0.00000,0.00000,20,0,62,11,62,-14,63,-3,ok,2,0,0.001,5,-0.0664,0.11,0.34,9.18,27,0.037,8.21
5.1313,0.03316,0.00000,0.17104,0.00000,0.00000,0.00000,18,3,62,12,59,-14,63,-2,ok,2,0,0.001,5,-0.0627,0.11,0.34,9.18,27,0.050,8.21
5.1345,0.03316,0.00000,0.17104,0.00000,0.00000,0.00000,16,7,63,13,58,-15,64,-2,ok,2,0,0.001,5,-0.0589,0.11,0.34,9.18,27,0.063,8.21
5.1472,0.03316,0.00000,0.17104,0.00000,0.00000,0.00000,14,10,63,14,55,-14,65,-1,ok,2,0,0.001,5,-0.0552,0.11,0.34,9.18,27,0.076,8.21
5.1673,0.03316,0.00000,0.17104,0.00000,0.00000,0.00000,13,12,64,15,52,-13,65,-1,ok,2,0,0.001,5,-0.0514,0.11,0.34,9.18,27,0.089,8.21
5.1725,0.03316,0.00000,0.17104,0.00000,0.00000,0.00000,14,13,64,15,50,-13,66,0,ok,2,0,0.001,5,-0.0477,0.11,0.34,9.18,27,0.101,8.21
5.1847,0.03316,0.00000,0.17104,0.00000,0.00000,0.00000,14,13,64,17,47,-12,67,-1,ok,2,0,0.001,5,-0.0439,0.11,0.34,9.18,27,0.114,8.21
5.2073,0.03316,0.00000,0.17104,0.00000,0.00000,0.00000,15,12,65,17,44,-12,68,0,ok,2,0,0.001,5,-0.0402,0.11,0.34,9.18,27,0.126,8.21
5.2106,0.03316,0.00000,0.17104,0.00000,0.00000,0.00000,16,11,65,18,41,-10,69,0,ok,2,0,0.001,5,-0.0364,0.11,0.34,9.18,27,0.139,8.21
5.2233,0.03316,0.00000,0.17104,0.00000,0.00000,0.00000,17,11,65,18,38,-10,69,1,ok,2,0,0.001,5,-0.0327,0.11,0.34,9.18,27,0.152,8.21
5.2433,0.03316,0.00000,0.17104,0.00000,0.00000,0.00000,19,10,66,19,35,-8,69,2,ok,2,0,0.001,5,-0.0289,0.11,0.34,9.18,27,0.165,8.21
5.2482,0.03316,0.00000,0.17104,0.00000,0.00000,0.00000,19,10,66,20,33,-7,70,3,ok,2,0,0.001,5,-0.0252,0.11,0.34,9.18,27,0.177,8.21
5.2609,0.03316,0.00000,0.17104,0.00000,0.00000,0.00000,21,8,66,21,32,-5,71,4,ok,2,0,0.001,5,-0.0214,0.11,0.34,9.18,27,0.190,8.21
5.2833,0.00000,0.04189,0.17104,0.00000,0.00000,0.00000,22,7,66,22,29,-2,71,4,ok,2,0,0.001,5,-0.0177,0.43,0.12,8.31,28,0.000,8.21
5.2865,0.00000,0.04189,0.17104,0.00000,0.00000,0.00000,23,7,65,23,28,0,71,6,ok,2,0,0.001,5,-0.0139,0.43,0.12,8.31,28,0.013,8.21
5.2993,0.00000,0.04189,0.17104,0.00000,0.00000,0.00000,24,6,65,24,27,4,71,7,ok,2,0,0.001,5,-0.0102,0.43,0.12,8.31,28,0.026,8.21
5.3193,0.00000,0.04189,0.17104,0.00000,0.00000,0.00000,25,6,65,25,26,6,72,8,ok,2,0,0.001,5,-0.0064,0.43,0.12,8.31,28,0.038,8.21
5.3243,0.00000,0.04189,0.17104,0.00000,0.00000,0.00000,27,5,64,27,28,6,72,9,ok,2,0,0.001,5,-0.0027,0.43,0.12,8.31,28,0.051,8.21
5.3367,0.00000,0.04189,0.17104,0.00000,0.00000,0.00000,28,4,64,29,29,5,72,11,ok,2,0,0.001,5,0.0011,0.43,0.12,8.31,28,0.063,8.21
5.3593,0.00000,0.04189,0.17104,0.00000,0.00000,0.00000,29,4,65,27,30,3,72,12,ok,2,0,0.001,5,0.0048,0.43,0.12,8.31,28,0.076,8.21
5.3627,0.00000,0.04189,0.17104,0.00000,0.00000,0.00000,30,3,68,24,31,2,73,14,ok,2,0,0.002,5,0.0086,0.43,0.12,8.31,28,0.089,8.21
5.3752,0.00000,0.04189,0.17104,0.00000,0.00000,0.00000,31,3,70,21,32,2,73,15,ok,2,0,0.002,5,0.0123,0.43,0.12,8.31,28,0.102,8.21
5.3953,0.00000,0.04189,0.17104,0.00000,0.00000,0.00000,33,2,71,17,33,2,72,17,ok,2,0,0.002,5,0.0161,0.43,0.12,8.31,28,0.114,8.21
5.4002,0.00000,0.04189,0.17104,0.00000,0.00000,0.00000,34,2,71,15,34,1,72,19,ok,2,0,0.002,5,0.0198,0.43,0.12,8.31,28,0.127,8.21
5.4128,0.00000,0.04189,0.17104,0.00000,0.00000,0.00000,36,1,71,14,37,1,73,20,ok,2,0,0.002,5,0.0236,0.43,0.12,8.31,28,0.139,8.21
5.4354,0.00000,0.04189,0.17104,0.00000,0.00000,0.00000,37,1,71,11,37,1,72,22,ok,2,0,0.002,5,0.0273,0.43,0.12,8.31,28,0.152,8.21
5.4386,0.00000,0.04189,0.17104,0.00000,0.00000,0.00000,39,1,71,8,39,2,72,23,ok,2,0,0.002,5,0.0311,0.43,0.12,8.31,28,0.165,8.21
5.4515,0.00000,0.04189,0.17104,0.00000,0.00000,0.00000,40,1,70,5,40,1,72,24,ok,2,0,0.002,5,0.0348,0.43,0.12,8.31,28,0.178,8.21
5.4713,0.00000,0.04189,0.17104,0.00000,0.00000,0.00000,41,0,70,3,41,2,72,26,ok,2,0,0.002,5,0.0386,0.43,0.12,8.31,28,0.190,8.21
5.4765,-0.00873,-0.05061,0.09948,0.00000,0.00000,0.00000,43,0,69,1,43,1,72,28,ok,2,0,0.002,5,0.0423,-0.34,-1.43,10.86,29,0.000,8.21
5.4887,-0.00873,-0.05061,0.09948,0.00000,0.00000,0.00000,44,0,68,-1,44,0,72,29,ok,2,0,0.002,5,0.0461,-0.34,-1.43,10.86,29,0.013,8.21
5.5113,-0.00873,-0.05061,0.09948,0.00000,0.00000,0.00000,44,0,66,-2,45,-1,73,29,ok,2,0,0.002,5,0.0498,-0.34,-1.43,10.86,29,0.025,8.21
5.5148,-0.00873,-0.05061,0.09948,0.00000,0.00000,0.00000,46,0,65,-4,46,-1,74,28,ok,2,0,0.002,5,0.0536,-0.34,-1.43,10.86,29,0.038,8.21
5.5272,-0.00873,-0.05061,0.09948,0.00000,0.00000,0.00000,47,0,64,-6,48,-1,76,26,ok,2,0,0.002,5,0.0573,-0.34,-1.43,10.86,29,0.051,8.21
5.5473,-0.00873,-0.05061,0.09948,0.00000,0.00000,0.00000,49,1,62,-7,48,0,78,20,ok,2,0,0.002,5,0.0611,-0.34,-1.43,10.86,29,0.064,8.21
5.5523,-0.00873,-0.05061,0.09948,0.00000,0.00000,0.00000,50,1,59,-8,49,0,79,17,ok,2,0,0.002,5,0.0648,-0.34,-1.43,10.86,29,0.076,8.21
5.5647,-0.00873,-0.05061,0.09948,0.00000,0.00000,0.00000,50,1,57,-9,51,-1,80,13,ok,2,0,0.002,5,0.0686,-0.34,-1.43,10.86,29,0.089,8.21
5.5873,-0.00873,-0.05061,0.09948,0.00000,0.00000,0.00000,50,3,55,-10,52,-1,80,13,ok,2,0,0.002,5,0.0723,-0.34,-1.43,10.86,29,0.101,8.21
5.5907,-0.00873,-0.05061,0.09948,0.00000,0.00000,0.00000,51,4,52,-9,53,0,80,10,ok,2,0,0.002,6,0.0761,-0.34,-1.43,10.86,29,0.114,8.21
5.6032,-0.00873,-0.05061,0.09948,0.00000,0.00000,0.00000,52,4,49,-9,54,0,80,7,ok,2,0,0.002,6,0.0798,-0.34,-1.43,10.86,29,0.127,8.21
5.6233,-0.00873,-0.05061,0.09948,0.00000,0.00000,0.00000,53,5,47,-9,55,0,80,3,ok,2,0,0.002,6,0.0836,-0.34,-1.43,10.86,29,0.139,8.21
5.6282,-0.00873,-0.05061,0.09948,0.00000,0.00000,0.00000,53,6,44,-9,56,0,79,2,ok,2,0,0.002,6,0.0873,-0.34,-1.43,10.86,29,0.152,8.21
5.6408,-0.00873,-0.05061,0.09948,0.00000,0.00000,0.00000,55,6,41,-9,57,1,78,-2,ok,2,0,0.002,6,0.0911,-0.34,-1.43,10.86,29,0.164,8.21
5.6633,-0.00873,-0.05061,0.09948,0.00000,0.00000,0.00000,55,6,39,-8,58,0,78,-4,ok,2,0,0.002,6,0.0948,-0.34,-1.43,10.86,29,0.177,8.21
5.6665,-0.00873,-0.05061,0.09948,0.00000,0.00000,0.00000,58,7,36,-7,58,0,76,-5,ok,2,0,0.002,6,0.0986,-0.34,-1.43,10.86,29,0.190,8.21
5.6795,-0.11694,-0.07330,0.17453,0.00000,0.00000,0.00000,58,8,33,-6,59,1,74,-7,ok,2,0,0.002,6,0.0948,-0.39,-1.54,10.63,30,0.000,8.21
5.6993,-0.11694,-0.07330,0.17453,0.00000,0.00000,0.00000,59,8,29,-5,60,0,72,-7,ok,2,0,0.002,6,0.0911,-0.39,-1.54,10.63,30,0.013,8.21
5.7042,-0.11694,-0.07330,0.17453,0.00000,0.00000,0.00000,60,9,26,-3,61,0,70,-9,ok,2,0,0.002,6,0.0873,-0.39,-1.54,10.63,30,0.025,8.21
5.7167,-0.11694,-0.07330,0.17453,0.00000,0.00000,0.00000,62,10,22,-1,62,0,69,-11,ok,2,0,0.002,6,0.0836,-0.39,-1.54,10.63,30,0.038,8.21
5.7393,-0.11694,-0.07330,0.17453,0.00000,0.00000,0.00000,62,10,20,0,64,-2,67,-12,ok,2,0,0.002,6,0.0798,-0.39,-1.54,10.63,30,0.050,8.21
5.7426,-0.11694,-0.07330,0.17453,0.00000,0.00000,0.00000,63,11,19,1,64,-2,65,-13,ok,2,0,0.002,6,0.0761,-0.39,-1.54,10.63,30,0.063,8.21
5.7552,-0.11694,-0.07330,0.17453,0.00000,0.00000,0.00000,63,11,17,4,65,-1,63,-14,ok,2,0,0.002,6,0.0723,-0.39,-1.54,10.63,30,0.076,8.21
5.7753,-0.11694,-0.07330,0.17453,0.00000,0.00000,0.00000,64,12,15,7,66,-1,60,-14,ok,2,0,0.002,6,0.0686,-0.39,-1.54,10.63,30,0.089,8.21
5.7804,-0.11694,-0.07330,0.17453,0.00000,0.00000,0.00000,64,13,13,10,66,0,58,-15,ok,2,0,0.002,6,0.0648,-0.39,-1.54,10.63,30,0.101,8.21
5.7927,-0.11694,-0.07330,0.17453,0.00000,0.00000,0.00000,64,14,11,12,67,0,55,-13,ok,2,0,0.002,6,0.0611,-0.39,-1.54,10.63,30,0.114,8.21
5.8153,-0.11694,-0.07330,0.17453,0.00000,0.00000,0.00000,65,15,13,13,67,0,52,-13,ok,2,0,0.002,6,0.0573,-0.39,-1.54,10.63,30,0.126,8.21
5.8185,-0.11694,-0.07330,0.17453,0.00000,0.00000,0.00000,65,16,13,13,68,0,50,-12,ok,2,0,0.002,6,0.0536,-0.39,-1.54,10.63,30,0.139,8.21
5.8312,-0.11694,-0.07330,0.17453,0.00000,0.00000,0.00000,66,17,14,11,69,0,47,-11,ok,2,0,0.002,6,0.0498,-0.39,-1.54,10.63,30,0.152,8.21
5.8513,-0.11694,-0.07330,0.17453,0.00000,0.00000,0.00000,66,18,15,11,69,1,45,-11,ok,2,0,0.002,6,0.0461,-0.39,-1.54,10.63,30,0.165,8.21
5.8562,-0.11694,-0.07330,0.17453,0.00000,0.00000,0.00000,66,18,16,10,69,2,41,-10,ok,2,0,0.002,6,0.0423,-0.39,-1.54,10.63,30,0.177,8.21
5.8687,-0.11694,-0.07330,0.17453,0.00000,0.00000,0.00000,67,19,18,9,70,3,39,-9,ok,2,0,0.002,6,0.0386,-0.39,-1.54,10.63,30,0.189,8.21
5.8914,-0.02443,0.02443,0.17628,0.00000,0.00000,0.00000,67,20,18,9,70,4,35,-7,ok,2,0,0.002,6,0.0348,0.82,-1.22,10.07,31,0.000,8.21
5.8946,-0.02443,0.02443,0.17628,0.00000,0.00000,0.00000,68,21,20,8,71,4,34,-6,ok,2,0,0.002,6,0.0311,0.82,-1.22,10.07,31,0.014,8.21
5.9073,-0.02443,0.02443,0.17628,0.00000,0.00000,0.00000,66,22,21,7,71,6,31,-4,ok,2,0,0.002,6,0.0273,0.82,-1.22,10.07,31,0.026,8.21
5.9273,-0.02443,0.02443,0.17628,0.00000,0.00000,0.00000,66,23,23,6,71,7,29,-1,ok,2,0,0.002,6,0.0236,0.82,-1.22,10.07,31,0.039,8.21
5.9323,-0.02443,0.02443,0.17628,0.00000,0.00000,0.00000,66,24,24,6,71,8,28,1,ok,2,0,0.002,6,0.0198,0.82,-1.22,10.07,31,0.051,8.21
5.9447,-0.02443,0.02443,0.17628,0.00000,0.00000,0.00000,65,25,25,5,71,9,27,5,ok,2,0,0.002,6,0.0161,0.82,-1.22,10.07,31,0.064,8.21
5.9673,-0.02443,0.02443,0.17628,0.00000,0.00000,0.00000,65,28,26,5,72,10,26,7,ok,2,0,0.002,6,0.0123,0.82,-1.22,10.07,31,0.076,8.21
5.9705,-0.02443,0.02443,0.17628,0.00000,0.00000,0.00000,64,29,27,3,71,12,28,6,ok,2,0,0.002,6,0.0086,0.82,-1.22,10.07,31,0.089,8.21
5.9832,-0.02443,0.02443,0.17628,0.00000,0.00000,0.00000,65,28,28,3,72,13,29,5,ok,2,0,0.002,6,0.0048,0.82,-1.22,10.07,31,0.102,8.21
6.0033,-0.02443,0.02443,0.17628,0.00000,0.00000,0.00000,68,25,30,2,72,14,30,3,ok,2,0,0.002,6,0.0011,0.82,-1.22,10.07,31,0.115,8.21
6.0082,-0.02443,0.02443,0.17628,0.00000,0.00000,0.00000,70,21,31,2,71,15,31,3,ok,2,0,0.002,6,-0.0027,0.82,-1.22,10.07,31,0.127,8.21
6.0206,-0.02443,0.02443,0.17628,0.00000,0.00000,0.00000,71,17,33,2,71,18,33,3,ok,2,0,0.002,6,-0.0064,0.82,-1.22,10.07,31,0.140,8.21
6.0433,-0.02443,0.02443,0.17628,0.00000,0.00000,0.00000,71,15,34,2,72,18,34,2,ok,2,0,0.002,6,-0.0102,0.82,-1.22,10.07,31,0.152,8.21
6.0467,-0.02443,0.02443,0.17628,0.00000,0.00000,0.00000,71,14,35,1,71,21,36,1,ok,2,0,0.002,6,-0.0139,0.82,-1.22,10.07,31,0.165,8.21
6.0592,-0.02443,0.02443,0.17628,0.00000,0.00000,0.00000,71,11,36,1,71,22,38,1,ok,2,0,0.002,6,-0.0177,0.82,-1.22,10.07,31,0.178,8.21
6.0793,-0.02443,0.02443,0.17628,0.00000,0.00000,0.00000,70,7,38,2,71,24,39,2,ok,2,0,0.002,6,-0.0214,0.82,-1.22,10.07,31,0.191,8.21
6.0845,0.05585,-0.02269,0.28972,0.00000,0.00000,0.00000,69,5,39,2,72,25,40,1,ok,2,0,0.002,6,-0.0252,0.63,0.34,11.48,32,0.000,8.21
6.0967,0.05585,-0.02269,0.28972,0.00000,0.00000,0.00000,68,1,41,1,71,27,42,1,ok,2,0,0.002,6,-0.0289,0.63,0.34,11.48,32,0.013,8.21
6.1193,0.05585,-0.02269,0.28972,0.00000,0.00000,0.00000,66,-1,42,1,71,28,42,1,ok,2,0,0.002,6,-0.0327,0.63,0.34,11.48,32,0.025,8.21
6.1227,0.05585,-0.02269,0.28972,0.00000,0.00000,0.00000,65,-3,44,1,71,29,44,0,ok,2,0,0.002,6,-0.0364,0.63,0.34,11.48,32,0.038,8.21
6.1353,0.05585,-0.02269,0.28972,0.00000,0.00000,0.00000,63,-4,44,2,72,28,45,0,ok,2,0,0.002,6,-0.0402,0.63,0.34,11.48,32,0.051,8.21
6.1553,0.05585,-0.02269,0.28972,0.00000,0.00000,0.00000,62,-6,46,2,74,26,46,0,ok,2,0,0.002,6,-0.0439,0.63,0.34,11.48,32,0.064,8.21
6.1602,0.05585,-0.02269,0.28972,0.00000,0.00000,0.00000,61,-8,47,2,76,21,47,0,ok,2,0,0.002,6,-0.0477,0.63,0.34,11.48,32,0.076,8.21
6.1727,0.05585,-0.02269,0.28972,0.00000,0.00000,0.00000,59,-9,48,3,77,16,48,0,ok,2,0,0.002,6,-0.0514,0.63,0.34,11.48,32,0.089,8.21
6.1953,0.05585,-0.02269,0.28972,0.00000,0.00000,0.00000,58,-10,49,3,79,14,49,0,ok,2,0,0.002,6,-0.0552,0.63,0.34,11.48,32,0.101,8.21
6.1986,0.05585,-0.02269,0.28972,0.00000,0.00000,0.00000,55,-11,50,3,79,13,50,0,ok,2,0,0.002,6,-0.0589,0.63,0.34,11.48,32,0.114,8.21
6.2114,0.05585,-0.02269,0.28972,0.00000,0.00000,0.00000,53,-12,50,5,79,11,51,0,ok,2,0,0.002,6,-0.0627,0.63,0.34,11.48,32,0.127,8.21
6.2313,0.05585,-0.02269,0.28972,0.00000,0.00000,0.00000,51,-11,52,6,79,7,52,0,ok,2,0,0.002,6,-0.0664,0.63,0.34,11.48,32,0.140,8.21
6.2363,0.05585,-0.02269,0.28972,0.00000,0.00000,0.00000,48,-11,53,5,78,4,53,0,ok,2,0,0.002,6,-0.0702,0.63,0.34,11.48,32,0.152,8.21
6.2487,0.05585,-0.02269,0.28972,0.00000,0.00000,0.00000,46,-11,54,6,77,2,54,0,ok,2,0,0.002,6,-0.0739,0.63,0.34,11.48,32,0.165,8.21
6.2713,0.05585,-0.02269,0.28972,0.00000,0.00000,0.00000,44,-11,54,7,77,-1,54,0,ok,2,0,0.002,6,-0.0777,0.63,0.34,11.48,32,0.177,8.21
6.2747,0.05585,-0.02269,0.28972,0.00000,0.00000,0.00000,42,-11,56,7,76,-4,55,-1,ok,2,0,0.002,6,-0.0814,0.63,0.34,11.48,32,0.190,8.21
6.2875,0.05585,-0.02269,0.28972,0.00000,0.00000,0.00000,40,-10,56,7,75,-5,56,0,ok,2,0,0.002,6,-0.0852,0.63,0.34,11.48,32,0.203,8.21
6.3073,0.05411,-0.05411,0.27751,0.00000,0.00000,0.00000,36,-9,57,7,73,-8,57,-1,ok,2,0,0.002,6,-0.0889,-0.60,0.99,9.77,33,0.000,8.21
6.3122,0.05411,-0.05411,0.27751,0.00000,0.00000,0.00000,35,-8,58,8,71,-8,57,0,ok,2,0,0.002,6,-0.0927,-0.60,0.99,9.77,33,0.012,8.21
6.3247,0.05411,-0.05411,0.27751,0.00000,0.00000,0.00000,31,-6,58,8,69,-10,58,0,ok,2,0,0.002,6,-0.0964,-0.60,0.99,9.77,33,0.025,8.21
6.3473,0.05411,-0.05411,0.27751,0.00000,0.00000,0.00000,28,-4,59,9,68,-12,59,0,ok,2,0,0.002,6,-0.1002,-0.60,0.99,9.77,33,0.038,8.21
6.3505,0.05411,-0.05411,0.27751,0.00000,0.00000,0.00000,25,-2,60,11,66,-13,60,0,ok,2,0,0.002,6,-0.1039,-0.60,0.99,9.77,33,0.051,8.21
6.3633,0.05411,-0.05411,0.27751,0.00000,0.00000,0.00000,23,-1,61,11,64,-13,61,0,ok,2,0,0.002,6,-0.1077,-0.60,0.99,9.77,33,0.064,8.21
6.3833,0.05411,-0.05411,0.27751,0.00000,0.00000,0.00000,22,1,62,11,62,-14,63,-3,ok,2,0,0.002,6,-0.1114,-0.60,0.99,9.77,33,0.076,8.21
6.3882,0.05411,-0.05411,0.27751,0.00000,0.00000,0.00000,21,3,62,12,59,-15,63,-2,ok,2,0,0.002,6,-0.1152,-0.60,0.99,9.77,33,0.088,8.21
6.4007,0.05411,-0.05411,0.27751,0.00000,0.00000,0.00000,18,7,63,13,58,-15,64,-2,ok,2,0,0.002,6,-0.1189,-0.60,0.99,9.77,33,0.101,8.21
6.4233,0.05411,-0.05411,0.27751,0.00000,0.00000,0.00000,18,10,63,14,55,-14,65,-1,ok,2,0,0.002,6,-0.1227,-0.60,0.99,9.77,33,0.113,8.21
6.4267,0.05411,-0.05411,0.27751,0.00000,0.00000,0.00000,16,13,64,15,52,-13,65,-1,ok,2,0,0.002,6,-0.1264,-0.60,0.99,9.77,33,0.127,8.21
6.4392,0.05411,-0.05411,0.27751,0.00000,0.00000,0.00000,18,13,64,16,49,-13,66,0,ok,2,0,0.002,6,-0.1302,-0.60,0.99,9.77,33,0.139,8.21
6.4593,0.05411,-0.05411,0.27751,0.00000,0.00000,0.00000,18,13,64,17,46,-12,67,-1,ok,2,0,0.002,6,-0.1339,-0.60,0.99,9.77,33,0.152,8.21
6.4642,0.05411,-0.05411,0.27751,0.00000,0.00000,0.00000,19,12,65,17,44,-12,68,0,ok,2,0,0.002,6,-0.1377,-0.60,0.99,9.77,33,0.164,8.21
6.4767,0.05411,-0.05411,0.27751,0.00000,0.00000,0.00000,20,12,65,18,41,-11,69,0,ok,2,0,0.002,6,-0.1414,-0.60,0.99,9.77,33,0.177,8.21
6.5000,0.05411,-0.05411,0.27751,0.00000,0.00000,0.00000,21,11,65,19,38,-10,69,1,ok,2,0,0.002,6,-0.1452,-0.60,0.99,9.77,33,0.190,8.21
6.5038,-0.01920,0.01920,0.29322,0.00000,0.00000,0.00000,23,10,66,19,35,-8,69,2,ok,2,0,0.002,6,-0.1489,-0.09,-0.64,8.50,34,0.000,8.21
6.5164,-0.01920,0.01920,0.29322,0.00000,0.00000,0.00000,23,10,66,21,33,-7,70,3,ok,2,0,0.002,6,-0.1527,-0.09,-0.64,8.50,34,0.013,8.21
6.5393,-0.01920,0.01920,0.29322,0.00000,0.00000,0.00000,26,8,66,21,31,-6,70,5,ok,2,0,0.002,6,-0.1564,-0.09,-0.64,8.50,34,0.025,8.21
6.5426,-0.01920,0.01920,0.29322,0.00000,0.00000,0.00000,26,8,66,22,29,-2,71,5,ok,2,0,0.002,6,-0.1602,-0.09,-0.64,8.50,34,0.039,8.21
6.5552,-0.01920,0.01920,0.29322,0.00000,0.00000,0.00000,27,7,65,23,28,0,71,6,ok,2,0,0.002,6,-0.1639,-0.09,-0.64,8.50,34,0.052,8.21
6.5753,-0.01920,0.01920,0.29322,0.00000,0.00000,0.00000,29,6,65,24,27,3,71,7,ok,2,0,0.002,6,-0.1677,-0.09,-0.64,8.50,34,0.064,8.21
6.5804,-0.01920,0.01920,0.29322,0.00000,0.00000,0.00000,30,6,65,25,26,6,72,8,ok,2,0,0.002,6,-0.1714,-0.09,-0.64,8.50,34,0.077,8.21
6.5929,-0.01920,0.01920,0.29322,0.00000,0.00000,0.00000,31,5,64,28,28,5,72,9,ok,2,0,0.002,6,-0.1752,-0.09,-0.64,8.50,34,0.089,8.21
6.6153,-0.01920,0.01920,0.29322,0.00000,0.00000,0.00000,32,4,64,29,29,5,72,11,ok,2,0,0.002,7,-0.1789,-0.09,-0.64,8.50,34,0.102,8.21
6.6187,-0.01920,0.01920,0.29322,0.00000,0.00000,0.00000,33,4,65,27,30,3,72,12,ok,2,0,0.002,7,-0.1827,-0.09,-0.64,8.50,34,0.115,8.21
6.6312,-0.01920,0.01920,0.29322,0.00000,0.00000,0.00000,34,3,68,25,31,2,73,14,ok,2,0,0.002,7,-0.1864,-0.09,-0.64,8.50,34,0.128,8.21
6.6513,-0.01920,0.01920,0.29322,0.00000,0.00000,0.00000,35,2,70,21,32,2,73,15,ok,2,0,0.002,7,-0.1902,-0.09,-0.64,8.50,34,0.140,8.21
6.6562,-0.01920,0.01920,0.29322,0.00000,0.00000,0.00000,36,2,71,17,33,2,72,17,ok,2,0,0.002,7,-0.1939,-0.09,-0.64,8.50,34,0.153,8.21
6.6687,-0.01920,0.01920,0.29322,0.00000,0.00000,0.00000,37,2,71,15,34,1,72,19,ok,2,0,0.002,7,-0.1977,-0.09,-0.64,8.50,34,0.165,8.21
6.6914,-0.01920,0.01920,0.29322,0.00000,0.00000,0.00000,39,1,71,14,37,1,73,20,ok,2,0,0.002,7,-0.2014,-0.09,-0.64,8.50,34,0.178,8.21
6.6949,-0.05061,-0.01571,0.29322,0.00000,0.00000,0.00000,40,1,71,11,37,1,72,22,ok,2,0,0.002,7,-0.2052,-0.67,0.47,9.72,35,0.000,8.21
6.7072,-0.05061,-0.01571,0.29322,0.00000,0.00000,0.00000,41,1,71,8,39,1,72,23,ok,2,0,0.002,7,-0.2089,-0.67,0.47,9.72,35,0.013,8.21
6.7273,-0.05061,-0.01571,0.29322,0.00000,0.00000,0.00000,42,1,70,5,40,1,72,25,ok,2,0,0.002,7,-0.2127,-0.67,0.47,9.72,35,0.025,8.21
6.7322,-0.05061,-0.01571,0.29322,0.00000,0.00000,0.00000,44,0,70,3,41,1,72,26,ok,2,0,0.002,7,-0.2164,-0.67,0.47,9.72,35,0.038,8.21
6.7448,-0.05061,-0.01571,0.29322,0.00000,0.00000,0.00000,45,0,69,1,42,0,72,28,ok,2,0,0.002,7,-0.2202,-0.67,0.47,9.72,35,0.050,8.21
6.7673,-0.05061,-0.01571,0.29322,0.00000,0.00000,0.00000,46,0,68,-1,44,0,72,29,ok,2,0,0.002,7,-0.2239,-0.67,0.47,9.72,35,0.063,8.21
6.7705,-0.05061,-0.01571,0.29322,0.00000,0.00000,0.00000,46,0,66,-2,45,-1,73,29,ok,2,0,0.002,7,-0.2277,-0.67,0.47,9.72,35,0.076,8.21
6.7831,-0.05061,-0.01571,0.29322,0.00000,0.00000,0.00000,47,0,65,-4,46,0,74,28,ok,2,0,0.002,7,-0.2314,-0.67,0.47,9.72,35,0.089,8.21
6.8033,-0.05061,-0.01571,0.29322,0.00000,0.00000,0.00000,48,0,64,-6,48,0,76,26,ok,2,0,0.002,7,-0.2352,-0.67,0.47,9.72,35,0.101,8.21
6.8081,-0.05061,-0.01571,0.29322,0.00000,0.00000,0.00000,49,1,61,-7,48,0,77,20,ok,2,0,0.002,7,-0.2389,-0.67,0.47,9.72,35,0.114,8.21
6.8207,-0.05061,-0.01571,0.29322,0.00000,0.00000,0.00000,50,1,59,-8,49,0,79,17,ok,2,0,0.002,7,-0.2427,-0.67,0.47,9.72,35,0.126,8.21
6.8433,-0.05061,-0.01571,0.29322,0.00000,0.00000,0.00000,50,1,57,-9,51,0,80,14,ok,2,0,0.002,7,-0.2464,-0.67,0.47,9.72,35,0.139,8.21
6.8465,-0.05061,-0.01571,0.29322,0.00000,0.00000,0.00000,50,4,54,-10,52,0,80,13,ok,2,0,0.002,7,-0.2502,-0.67,0.47,9.72,35,0.152,8.21
6.8593,-0.05061,-0.01571,0.29322,0.00000,0.00000,0.00000,51,5,51,-9,53,0,80,10,ok,2,0,0.002,7,-0.2539,-0.67,0.47,9.72,35,0.165,8.21
6.8793,-0.05061,-0.01571,0.29322,0.00000,0.00000,0.00000,51,4,49,-9,54,0,80,7,ok,2,0,0.002,7,-0.2577,-0.67,0.47,9.72,35,0.177,8.21
6.8842,-0.05061,-0.01571,0.29322,0.00000,0.00000,0.00000,52,5,46,-9,55,1,80,4,ok,2,0,0.002,7,-0.2614,-0.67,0.47,9.72,35,0.190,8.21
6.8969,-0.05061,-0.01571,0.29322,0.00000,0.00000,0.00000,52,6,43,-9,56,0,79,2,ok,2,0,0.002,7,-0.2652,-0.67,0.47,9.72,35,0.202,8.21
6.9194,-0.11170,-0.02094,0.33510,0.00000,0.00000,0.00000,54,6,41,-9,57,1,78,-2,ok,2,0,0.002,7,-0.2689,-0.48,-0.86,10.61,36,0.000,8.21
6.9226,-0.11170,-0.02094,0.33510,0.00000,0.00000,0.00000,54,6,39,-8,58,0,78,-3,ok,2,0,0.002,7,-0.2727,-0.48,-0.86,10.61,36,0.013,8.21
6.9352,-0.11170,-0.02094,0.33510,0.00000,0.00000,0.00000,55,7,36,-7,58,0,76,-5,ok,2,0,0.002,7,-0.2764,-0.48,-0.86,10.61,36,0.026,8.21
6.9553,-0.11170,-0.02094,0.33510,0.00000,0.00000,0.00000,55,8,33,-6,59,1,74,-7,ok,2,0,0.002,7,-0.2802,-0.48,-0.86,10.61,36,0.039,8.21
6.9602,-0.11170,-0.02094,0.33510,0.00000,0.00000,0.00000,56,8,29,-5,60,1,72,-7,ok,2,0,0.002,7,-0.2839,-0.48,-0.86,10.61,36,0.051,8.21
6.9727,-0.11170,-0.02094,0.33510,0.00000,0.00000,0.00000,56,9,26,-3,61,1,70,-9,ok,2,0,0.002,7,-0.2877,-0.48,-0.86,10.61,36,0.064,8.21
6.9953,-0.11170,-0.02094,0.33510,0.00000,0.00000,0.00000,58,10,22,-1,62,0,69,-11,ok,2,0,0.002,7,-0.2914,-0.48,-0.86,10.61,36,0.076,8.21
6.9985,-0.11170,-0.02094,0.33510,0.00000,0.00000,0.00000,58,10,20,0,64,-2,67,-12,ok,2,0,0.002,7,-0.2952,-0.48,-0.86,10.61,36,0.089,8.21
7.0114,-0.11170,-0.02094,0.33510,0.00000,0.00000,0.00000,58,11,18,1,64,-1,65,-13,ok,2,0,0.002,7,-0.2989,-0.48,-0.86,10.61,36,0.102,8.21
7.0313,-0.11170,-0.02094,0.33510,0.00000,0.00000,0.00000,58,11,16,3,65,0,63,-14,ok,2,0,0.002,7,-0.3027,-0.48,-0.86,10.61,36,0.115,8.21
7.0362,-0.11170,-0.02094,0.33510,0.00000,0.00000,0.00000,59,12,15,7,66,0,60,-14,ok,2,0,0.002,7,-0.3064,-0.48,-0.86,10.61,36,0.127,8.21
7.0487,-0.11170,-0.02094,0.33510,0.00000,0.00000,0.00000,59,13,13,10,66,0,58,-15,ok,2,0,0.002,7,-0.3102,-0.48,-0.86,10.61,36,0.140,8.21
7.0713,-0.11170,-0.02094,0.33510,0.00000,0.00000,0.00000,60,14,11,12,67,0,55,-13,ok,2,0,0.002,7,-0.3139,-0.48,-0.86,10.61,36,0.152,8.21
7.0748,-0.11170,-0.02094,0.33510,0.00000,0.00000,0.00000,60,15,13,13,67,0,53,-12,ok,2,0,0.002,7,-0.3177,-0.48,-0.86,10.61,36,0.165,8.21
7.0872,-0.11170,-0.02094,0.33510,0.00000,0.00000,0.00000,59,16,13,12,68,0,50,-12,ok,2,0,0.002,7,-0.3214,-0.48,-0.86,10.61,36,0.178,8.21
7.1073,-0.11170,-0.02094,0.33510,0.00000,0.00000,0.00000,60,17,14,11,69,1,47,-11,ok,2,0,0.002,7,-0.3252,-0.48,-0.86,10.61,36,0.191,8.21
7.1125,0.00873,-0.02269,0.30892,0.00000,0.00000,0.00000,60,17,15,11,69,2,45,-11,ok,2,0,0.002,7,-0.3289,0.90,-0.13,10.73,37,0.000,8.21
7.1248,0.00873,-0.02269,0.30892,0.00000,0.00000,0.00000,61,18,16,10,69,2,41,-10,ok,2,0,0.002,7,-0.3327,0.90,-0.13,10.73,37,0.013,8.21
7.1473,0.00873,-0.02269,0.30892,0.00000,0.00000,0.00000,61,18,18,9,70,3,39,-9,ok,2,0,0.002,7,-0.3364,0.90,-0.13,10.73,37,0.025,8.21
7.1506,0.00873,-0.02269,0.30892,0.00000,0.00000,0.00000,61,20,18,8,70,4,35,-7,ok,2,0,0.002,7,-0.3402,0.90,-0.13,10.73,37,0.038,8.21
7.1631,0.00873,-0.02269,0.30892,0.00000,0.00000,0.00000,61,21,20,7,71,5,34,-6,ok,2,0,0.002,7,-0.3439,0.90,-0.13,10.73,37,0.051,8.21
7.1833,0.00873,-0.02269,0.30892,0.00000,0.00000,0.00000,61,22,21,7,71,6,32,-4,ok,2,0,0.002,7,-0.3477,0.90,-0.13,10.73,37,0.063,8.21
7.1883,0.00873,-0.02269,0.30892,0.00000,0.00000,0.00000,60,23,22,6,71,7,29,-1,ok,2,0,0.002,7,-0.3514,0.90,-0.13,10.73,37,0.076,8.21
7.2008,0.00873,-0.02269,0.30892,0.00000,0.00000,0.00000,60,24,23,6,71,8,28,1,ok,2,0,0.002,7,-0.3552,0.90,-0.13,10.73,37,0.088,8.21
7.2233,0.00873,-0.02269,0.30892,0.00000,0.00000,0.00000,60,25,25,5,71,9,27,5,ok,2,0,0.002,7,-0.3589,0.90,-0.13,10.73,37,0.101,8.21
7.2266,0.00873,-0.02269,0.30892,0.00000,0.00000,0.00000,60,28,26,5,71,10,27,7,ok,2,0,0.002,7,-0.3627,0.90,-0.13,10.73,37,0.114,8.21
7.2393,0.00873,-0.02269,0.30892,0.00000,0.00000,0.00000,59,29,27,3,71,11,29,6,ok,2,0,0.002,7,-0.3664,0.90,-0.13,10.73,37,0.127,8.21
7.2593,0.00873,-0.02269,0.30892,0.00000,0.00000,0.00000,60,28,28,3,71,13,29,5,ok,2,0,0.002,7,-0.3702,0.90,-0.13,10.73,37,0.139,8.21
7.2641,0.00873,-0.02269,0.30892,0.00000,0.00000,0.00000,61,25,30,3,72,14,30,3,ok,2,0,0.002,7,-0.3739,0.90,-0.13,10.73,37,0.152,8.21
7.2767,0.00873,-0.02269,0.30892,0.00000,0.00000,0.00000,62,21,31,2,71,15,32,3,ok,2,0,0.002,7,-0.3777,0.90,-0.13,10.73,37,0.164,8.21
7.2993,0.00873,-0.02269,0.30892,0.00000,0.00000,0.00000,63,17,33,2,71,17,33,3,ok,2,0,0.002,7,-0.3814,0.90,-0.13,10.73,37,0.177,8.21
7.3028,0.00873,-0.02269,0.30892,0.00000,0.00000,0.00000,64,15,34,2,72,18,34,2,ok,2,0,0.002,7,-0.3852,0.90,-0.13,10.73,37,0.190,8.21
7.3154,-0.04363,0.00349,0.36477,0.00000,0.00000,0.00000,63,14,35,1,71,20,36,1,ok,2,0,0.002,7,-0.3889,0.88,-2.07,10.52,38,0.000,8.21
7.3353,-0.04363,0.00349,0.36477,0.00000,0.00000,0.00000,63,11,36,2,71,22,38,1,ok,2,0,0.002,7,-0.3927,0.88,-2.07,10.52,38,0.013,8.21
7.3402,-0.04363,0.00349,0.36477,0.00000,0.00000,0.00000,62,7,38,2,71,23,39,2,ok,2,0,0.002,7,-0.3964,0.88,-2.07,10.52,38,0.025,8.21
7.3527,-0.04363,0.00349,0.36477,0.00000,0.00000,0.00000,62,5,39,2,71,25,40,1,ok,2,0,0.002,7,-0.4002,0.88,-2.07,10.52,38,0.038,8.21
7.3753,-0.04363,0.00349,0.36477,0.00000,0.00000,0.00000,61,1,41,2,70,27,42,2,ok,2,0,0.002,7,-0.4039,0.88,-2.07,10.52,38,0.050,8.21
7.3787,-0.04363,0.00349,0.36477,0.00000,0.00000,0.00000,61,-1,42,1,70,28,43,1,ok,2,0,0.002,7,-0.4077,0.88,-2.07,10.52,38,0.063,8.21
7.3912,-0.04363,0.00349,0.36477,0.00000,0.00000,0.00000,59,-3,44,2,71,28,44,1,ok,2,0,0.002,7,-0.4114,0.88,-2.07,10.52,38,0.076,8.21
7.4113,-0.04363,0.00349,0.36477,0.00000,0.00000,0.00000,58,-4,44,2,72,28,45,1,ok,2,0,0.002,7,-0.4152,0.88,-2.07,10.52,38,0.088,8.21
7.4161,-0.04363,0.00349,0.36477,0.00000,0.00000,0.00000,58,-6,45,2,74,26,46,0,ok,2,0,0.002,7,-0.4189,0.88,-2.07,10.52,38,0.101,8.21
7.4287,-0.04363,0.00349,0.36477,0.00000,0.00000,0.00000,57,-8,47,2,76,21,47,0,ok,2,0,0.002,7,-0.4227,0.88,-2.07,10.52,38,0.113,8.21
7.4513,-0.04363,0.00349,0.36477,0.00000,0.00000,0.00000,56,-9,48,3,77,17,48,0,ok,2,0,0.002,7,-0.4264,0.88,-2.07,10.52,38,0.126,8.21
7.4547,-0.04363,0.00349,0.36477,0.00000,0.00000,0.00000,55,-10,49,3,79,14,49,0,ok,2,0,0.002,7,-0.4302,0.88,-2.07,10.52,38,0.140,8.21
7.4673,-0.04363,0.00349,0.36477,0.00000,0.00000,0.00000,53,-11,50,3,79,13,49,0,ok,2,0,0.002,7,-0.4339,0.88,-2.07,10.52,38,0.152,8.21
7.4873,-0.04363,0.00349,0.36477,0.00000,0.00000,0.00000,52,-12,50,5,79,11,51,0,ok,2,0,0.002,7,-0.4377,0.88,-2.07,10.52,38,0.165,8.21
7.4923,-0.04363,0.00349,0.36477,0.00000,0.00000,0.00000,50,-12,52,6,79,7,52,0,ok,2,0,0.002,7,-0.4414,0.88,-2.07,10.52,38,0.177,8.21
7.5049,-0.04363,0.00349,0.36477,0.00000,0.00000,0.00000,49,-12,53,5,78,4,53,0,ok,2,0,0.002,7,-0.4452,0.88,-2.07,10.52,38,0.190,8.21
7.5273,-0.00175,0.01396,0.37176,0.00000,0.00000,0.00000,48,-11,53,6,77,2,54,0,ok,2,0,0.002,7,-0.4489,-1.35,-0.16,8.60,39,0.000,8.21
7.5308,-0.00175,0.01396,0.37176,0.00000,0.00000,0.00000,46,-11,54,7,77,-1,54,1,ok,2,0,0.002,7,-0.4527,-1.35,-0.16,8.60,39,0.013,8.21
7.5432,-0.00175,0.01396,0.37176,0.00000,0.00000,0.00000,45,-11,56,7,76,-3,55,-1,ok,2,0,0.002,7,-0.4564,-1.35,-0.16,8.60,39,0.026,8.21
7.5633,-0.00175,0.01396,0.37176,0.00000,0.00000,0.00000,44,-10,56,7,75,-5,56,0,ok,2,0,0.002,7,-0.4602,-1.35,-0.16,8.60,39,0.038,8.21
7.5683,-0.00175,0.01396,0.37176,0.00000,0.00000,0.00000,42,-9,57,7,73,-8,57,-1,ok,2,0,0.002,7,-0.4639,-1.35,-0.16,8.60,39,0.051,8.21
7.5807,-0.00175,0.01396,0.37176,0.00000,0.00000,0.00000,41,-8,58,8,71,-7,57,0,ok,2,0,0.002,7,-0.4677,-1.35,-0.16,8.60,39,0.063,8.21
7.6033,-0.00175,0.01396,0.37176,0.00000,0.00000,0.00000,39,-6,58,8,70,-10,57,0,ok,2,0,0.002,7,-0.4714,-1.35,-0.16,8.60,39,0.076,8.21
7.6066,-0.00175,0.01396,0.37176,0.00000,0.00000,0.00000,37,-4,59,9,68,-11,59,0,ok,2,0,0.002,7,-0.4752,-1.35,-0.16,8.60,39,0.089,8.21
7.6191,-0.00175,0.01396,0.37176,0.00000,0.00000,0.00000,35,-2,60,11,66,-12,60,0,ok,2,0,0.002,8,-0.4789,-1.35,-0.16,8.60,39,0.102,8.21
7.6393,-0.00175,0.01396,0.37176,0.00000,0.00000,0.00000,34,-1,61,11,64,-13,61,0,ok,2,0,0.002,8,-0.4827,-1.35,-0.16,8.60,39,0.114,8.21
7.6441,-0.00175,0.01396,0.37176,0.00000,0.00000,0.00000,34,0,62,11,62,-13,63,-3,ok,2,0,0.002,8,-0.4864,-1.35,-0.16,8.60,39,0.127,8.21
7.6567,-0.00175,0.01396,0.37176,0.00000,0.00000,0.00000,33,3,62,12,59,-14,63,-1,ok,2,0,0.002,8,-0.4902,-1.35,-0.16,8.60,39,0.139,8.21
7.6793,-0.00175,0.01396,0.37176,0.00000,0.00000,0.00000,32,6,63,13,58,-15,64,-1,ok,2,0,0.002,8,-0.4939,-1.35,-0.16,8.60,39,0.152,8.21
7.6830,-0.00175,0.01396,0.37176,0.00000,0.00000,0.00000,31,10,63,14,55,-14,65,-1,ok,2,0,0.002,8,-0.4977,-1.35,-0.16,8.60,39,0.165,8.21
7.6952,-0.00175,0.01396,0.37176,0.00000,0.00000,0.00000,31,12,64,15,52,-13,65,-1,ok,2,0,0.002,8,-0.5014,-1.35,-0.16,8.60,39,0.178,8.21
7.7153,-0.00175,0.01396,0.37176,0.00000,0.00000,0.00000,32,13,64,16,50,-13,66,0,ok,2,0,0.002,8,-0.5052,-1.35,-0.16,8.60,39,0.190,8.21
7.7205,0.02793,-0.03316,0.39968,0.00000,0.00000,0.00000,32,13,64,17,47,-12,67,0,ok,2,0,0.002,8,-0.5089,-0.99,0.59,10.06,40,0.000,8.21
7.7327,0.02793,-0.03316,0.39968,0.00000,0.00000,0.00000,32,12,65,17,44,-12,68,0,ok,2,0,0.002,8,-0.5127,-0.99,0.59,10.06,40,0.013,8.21
7.7553,0.02793,-0.03316,0.39968,0.00000,0.00000,0.00000,33,11,65,18,41,-10,69,0,ok,2,0,0.002,8,-0.5164,-0.99,0.59,10.06,40,0.025,8.21
7.7588,0.02793,-0.03316,0.39968,0.00000,0.00000,0.00000,34,11,65,19,38,-10,69,2,ok,2,0,0.002,8,-0.5202,-0.99,0.59,10.06,40,0.038,8.21
7.7712,0.02793,-0.03316,0.39968,0.00000,0.00000,0.00000,35,10,66,19,35,-8,69,2,ok,2,0,0.002,8,-0.5239,-0.99,0.59,10.06,40,0.051,8.21
7.7913,0.02793,-0.03316,0.39968,0.00000,0.00000,0.00000,35,10,66,21,33,-7,70,3,ok,2,0,0.002,8,-0.5277,-0.99,0.59,10.06,40,0.064,8.21
7.7961,0.02793,-0.03316,0.39968,0.00000,0.00000,0.00000,36,8,66,21,31,-5,71,4,ok,2,0,0.002,8,-0.5314,-0.99,0.59,10.06,40,0.076,8.21
7.8087,0.02793,-0.03316,0.39968,0.00000,0.00000,0.00000,37,8,66,22,29,-2,71,5,ok,2,0,0.002,8,-0.5352,-0.99,0.59,10.06,40,0.089,8.21
7.8313,0.02793,-0.03316,0.39968,0.00000,0.00000,0.00000,38,7,66,23,28,0,71,6,ok,2,0,0.002,8,-0.5389,-0.99,0.59,10.06,40,0.101,8.21
7.8346,0.02793,-0.03316,0.39968,0.00000,0.00000,0.00000,39,6,66,24,27,3,71,7,ok,2,0,0.002,8,-0.5427,-0.99,0.59,10.06,40,0.114,8.21
7.8472,0.02793,-0.03316,0.39968,0.00000,0.00000,0.00000,39,6,65,25,26,6,72,8,ok,2,0,0.002,8,-0.5464,-0.99,0.59,10.06,40,0.127,8.21
7.8673,0.02793,-0.03316,0.39968,0.00000,0.00000,0.00000,40,5,64,28,28,5,72,9,ok,2,0,0.002,8,-0.5502,-0.99,0.59,10.06,40,0.140,8.21
7.8721,0.02793,-0.03316,0.39968,0.00000,0.00000,0.00000,40,4,64,29,28,5,72,11,ok,2,0,0.002,8,-0.5539,-0.99,0.59,10.06,40,0.152,8.21
7.8848,0.02793,-0.03316,0.39968,0.00000,0.00000,0.00000,41,4,65,28,29,3,72,12,ok,2,0,0.002,8,-0.5577,-0.99,0.59,10.06,40,0.164,8.21
7.9113,0.02793,-0.03316,0.39968,0.00000,0.00000,0.00000,42,3,68,25,30,2,73,14,ok,2,0,0.002,8,-0.5614,-0.99,0.59,10.06,40,0.177,8.21
7.9148,-0.01571,-0.03491,0.33859,0.00000,0.00000,0.00000,42,3,70,21,32,2,73,15,ok,2,0,0.002,8,-0.5577,-0.22,0.37,10.80,41,0.000,8.21
7.9272,-0.01571,-0.03491,0.33859,0.00000,0.00000,0.00000,42,2,71,17,33,2,72,17,ok,2,0,0.002,8,-0.5539,-0.22,0.37,10.80,41,0.013,8.21
7.9473,-0.01571,-0.03491,0.33859,0.00000,0.00000,0.00000,43,2,72,15,34,0,72,19,ok,2,0,0.002,8,-0.5502,-0.22,0.37,10.80,41,0.025,8.21
7.9523,-0.01571,-0.03491,0.33859,0.00000,0.00000,0.00000,44,1,71,14,37,1,73,20,ok,2,0,0.002,8,-0.5464,-0.22,0.37,10.80,41,0.038,8.21
7.9647,-0.01571,-0.03491,0.33859,0.00000,0.00000,0.00000,44,1,71,11,37,1,72,22,ok,2,0,0.002,8,-0.5427,-0.22,0.37,10.80,41,0.050,8.21
7.9873,-0.01571,-0.03491,0.33859,0.00000,0.00000,0.00000,45,1,71,8,39,1,72,23,ok,2,0,0.002,8,-0.5389,-0.22,0.37,10.80,41,0.063,8.21
7.9906,-0.01571,-0.03491,0.33859,0.00000,0.00000,0.00000,45,1,70,5,40,1,72,24,ok,2,0,0.002,8,-0.5352,-0.22,0.37,10.80,41,0.076,8.21
8.0031,-0.01571,-0.03491,0.33859,0.00000,0.00000,0.00000,46,0,70,3,41,1,72,26,ok,2,0,0.002,8,-0.5314,-0.22,0.37,10.80,41,0.089,8.21
8.0233,-0.01571,-0.03491,0.33859,0.00000,0.00000,0.00000,47,0,69,1,42,0,72,27,ok,2,0,0.002,8,-0.5277,-0.22,0.37,10.80,41,0.101,8.21
8.0282,-0.01571,-0.03491,0.33859,0.00000,0.00000,0.00000,48,0,68,-1,44,0,72,29,ok,2,0,0.002,8,-0.5239,-0.22,0.37,10.80,41,0.114,8.21
8.0407,-0.01571,-0.03491,0.33859,0.00000,0.00000,0.00000,48,0,66,-2,45,-1,73,29,ok,2,0,0.002,8,-0.5236,-0.22,0.37,10.80,41,0.126,8.21
8.0634,-0.01571,-0.03491,0.33859,0.00000,0.00000,0.00000,48,0,65,-4,46,-1,74,28,ok,2,0,0.002,8,-0.5253,-0.22,0.37,10.80,41,0.139,8.21
8.0668,-0.01571,-0.03491,0.33859,0.00000,0.00000,0.00000,49,1,64,-6,47,-1,76,26,ok,2,0,0.002,8,-0.5270,-0.22,0.37,10.80,41,0.152,8.21
8.0792,-0.01571,-0.03491,0.33859,0.00000,0.00000,0.00000,50,2,61,-7,48,0,77,20,ok,2,0,0.002,8,-0.5287,-0.22,0.37,10.80,41,0.165,8.21
8.0993,-0.01571,-0.03491,0.33859,0.00000,0.00000,0.00000,50,1,59,-8,49,-1,79,17,ok,2,0,0.002,8,-0.5303,-0.22,0.37,10.80,41,0.177,8.21
8.1042,-0.01571,-0.03491,0.33859,0.00000,0.00000,0.00000,50,1,57,-8,50,0,80,13,ok,2,0,0.002,8,-0.5320,-0.22,0.37,10.80,41,0.190,8.21
8.1170,-0.01571,-0.03491,0.33859,0.00000,0.00000,0.00000,50,3,54,-9,52,0,80,13,ok,2,0,0.002,8,-0.5337,-0.22,0.37,10.80,41,0.202,8.21
8.1393,-0.16930,0.02793,0.36652,0.00000,0.00000,0.00000,51,4,51,-9,53,0,80,10,ok,2,0,0.002,8,-0.5374,0.20,-1.51,10.42,42,0.000,8.21
8.1428,-0.16930,0.02793,0.36652,0.00000,0.00000,0.00000,51,4,49,-9,54,-1,80,7,ok,2,0,0.002,8,-0.5412,0.20,-1.51,10.42,42,0.013,8.21
8.1552,-0.16930,0.02793,0.36652,0.00000,0.00000,0.00000,51,5,46,-9,55,0,80,4,ok,2,0,0.002,8,-0.5449,0.20,-1.51,10.42,42,0.026,8.21
8.1753,-0.16930,0.02793,0.36652,0.00000,0.00000,0.00000,52,6,43,-9,56,0,79,3,ok,2,0,0.002,8,-0.5487,0.20,-1.51,10.42,42,0.038,8.21
8.1802,-0.16930,0.02793,0.36652,0.00000,0.00000,0.00000,53,6,41,-9,57,1,78,-1,ok,2,0,0.002,8,-0.5524,0.20,-1.51,10.42,42,0.051,8.21
8.1929,-0.16930,0.02793,0.36652,0.00000,0.00000,0.00000,53,6,39,-8,58,0,78,-3,ok,2,0,0.002,8,-0.5562,0.20,-1.51,10.42,42,0.063,8.21
8.2153,-0.16930,0.02793,0.36652,0.00000,0.00000,0.00000,53,7,35,-7,58,1,76,-5,ok,2,0,0.002,8,-0.5599,0.20,-1.51,10.42,42,0.076,8.21
8.2185,-0.16930,0.02793,0.36652,0.00000,0.00000,0.00000,53,8,33,-6,59,1,75,-7,ok,2,0,0.002,8,-0.5637,0.20,-1.51,10.42,42,0.089,8.21
8.2312,-0.16930,0.02793,0.36652,0.00000,0.00000,0.00000,53,8,29,-5,60,1,72,-7,ok,2,0,0.002,8,-0.5674,0.20,-1.51,10.42,42,0.102,8.21
8.2513,-0.16930,0.02793,0.36652,0.00000,0.00000,0.00000,54,8,26,-3,61,1,70,-9,ok,2,0,0.002,8,-0.5712,0.20,-1.51,10.42,42,0.114,8.21
8.2561,-0.16930,0.02793,0.36652,0.00000,0.00000,0.00000,54,10,22,-1,62,0,69,-11,ok,2,0,0.002,8,-0.5749,0.20,-1.51,10.42,42,0.127,8.21
8.2687,-0.16930,0.02793,0.36652,0.00000,0.00000,0.00000,55,10,20,0,64,-2,67,-12,ok,2,0,0.002,8,-0.5787,0.20,-1.51,10.42,42,0.139,8.21
8.2913,-0.16930,0.02793,0.36652,0.00000,0.00000,0.00000,55,11,18,1,65,-1,64,-13,ok,2,0,0.002,8,-0.5824,0.20,-1.51,10.42,42,0.152,8.21
8.2946,-0.16930,0.02793,0.36652,0.00000,0.00000,0.00000,55,11,16,3,66,0,63,-13,ok,2,0,0.002,8,-0.5862,0.20,-1.51,10.42,42,0.165,8.21
8.3071,-0.16930,0.02793,0.36652,0.00000,0.00000,0.00000,55,12,14,7,66,0,60,-14,ok,2,0,0.002,8,-0.5899,0.20,-1.51,10.42,42,0.178,8.21
8.3273,-0.04538,0.01571,0.30369,0.00000,0.00000,0.00000,56,13,13,10,67,0,58,-14,ok,2,0,0.002,8,-0.5749,0.15,0.28,9.31,43,0.000,8.21
8.3321,-0.04538,0.01571,0.30369,0.00000,0.00000,0.00000,56,14,11,12,67,0,55,-13,ok,2,0,0.002,8,-0.5599,0.15,0.28,9.31,43,0.012,8.21
8.3447,-0.04538,0.01571,0.30369,0.00000,0.00000,0.00000,56,15,13,13,68,1,53,-13,ok,2,0,0.002,8,-0.5449,0.15,0.28,9.31,43,0.025,8.21
8.3674,-0.04538,0.01571,0.30369,0.00000,0.00000,0.00000,57,16,13,12,68,1,50,-12,ok,2,0,0.002,8,-0.5299,0.15,0.28,9.31,43,0.038,8.21
8.3706,-0.04538,0.01571,0.30369,0.00000,0.00000,0.00000,57,17,14,11,69,1,47,-11,ok,2,0,0.002,8,-0.5149,0.15,0.28,9.31,43,0.051,8.21
8.3833,-0.04538,0.01571,0.30369,0.00000,0.00000,0.00000,58,18,15,10,69,2,45,-11,ok,2,0,0.002,8,-0.4999,0.15,0.28,9.31,43,0.064,8.21
8.4033,-0.04538,0.01571,0.30369,0.00000,0.00000,0.00000,58,18,16,10,69,3,41,-9,ok,2,0,0.002,8,-0.4849,0.15,0.28,9.31,43,0.076,8.21
8.4082,-0.04538,0.01571,0.30369,0.00000,0.00000,0.00000,58,18,17,9,70,3,39,-9,ok,2,0,0.002,8,-0.4699,0.15,0.28,9.31,43,0.089,8.21
8.4207,-0.04538,0.01571,0.30369,0.00000,0.00000,0.00000,59,20,18,8,70,4,35,-7,ok,2,0,0.002,8,-0.4549,0.15,0.28,9.31,43,0.101,8.21
8.4433,-0.04538,0.01571,0.30369,0.00000,0.00000,0.00000,60,21,20,7,71,5,34,-5,ok,2,0,0.002,8,-0.4399,0.15,0.28,9.31,43,0.114,8.21
8.4468,-0.04538,0.01571,0.30369,0.00000,0.00000,0.00000,60,22,21,6,71,6,32,-4,ok,2,0,0.002,8,-0.4249,0.15,0.28,9.31,43,0.127,8.21
8.4591,-0.04538,0.01571,0.30369,0.00000,0.00000,0.00000,60,23,22,6,71,7,30,-1,ok,2,0,0.002,8,-0.4099,0.15,0.28,9.31,43,0.140,8.21
8.4793,-0.04538,0.01571,0.30369,0.00000,0.00000,0.00000,60,24,23,6,71,8,28,2,ok,2,0,0.002,8,-0.3949,0.15,0.28,9.31,43,0.152,8.21
8.4841,-0.04538,0.01571,0.30369,0.00000,0.00000,0.00000,60,25,25,5,72,9,27,5,ok,2,0,0.002,8,-0.3799,0.15,0.28,9.31,43,0.165,8.21
8.4967,-0.04538,0.01571,0.30369,0.00000,0.00000,0.00000,60,28,26,5,72,10,27,7,ok,2,0,0.002,8,-0.3649,0.15,0.28,9.31,43,0.177,8.21
8.5193,-0.04538,0.01571,0.30369,0.00000,0.00000,0.00000,59,29,27,4,71,12,29,6,ok,2,0,0.002,8,-0.3499,0.15,0.28,9.31,43,0.190,8.21
8.5227,-0.04538,0.01571,0.30369,0.00000,0.00000,0.00000,61,28,28,3,72,13,29,6,ok,2,0,0.002,8,-0.3349,0.15,0.28,9.31,43,0.203,8.21
8.5354,-0.10123,0.00175,0.32812,0.00000,0.00000,0.00000,62,24,30,3,72,14,30,4,ok,2,0,0.002,8,-0.3312,-0.63,-1.47,8.80,44,0.000,8.21
8.5553,-0.10123,0.00175,0.32812,0.00000,0.00000,0.00000,63,21,31,2,71,15,31,3,ok,2,0,0.002,8,-0.3274,-0.63,-1.47,8.80,44,0.013,8.21
8.5602,-0.10123,0.00175,0.32812,0.00000,0.00000,0.00000,64,17,33,2,71,17,33,3,ok,2,0,0.002,8,-0.3237,-0.63,-1.47,8.80,44,0.025,8.21
8.5727,-0.10123,0.00175,0.32812,0.00000,0.00000,0.00000,65,15,34,2,72,18,34,2,ok,2,0,0.002,8,-0.3199,-0.63,-1.47,8.80,44,0.038,8.21
8.5953,-0.10123,0.00175,0.32812,0.00000,0.00000,0.00000,64,14,35,1,71,20,36,1,ok,2,0,0.002,8,-0.3162,-0.63,-1.47,8.80,44,0.050,8.21
8.5986,-0.10123,0.00175,0.32812,0.00000,0.00000,0.00000,64,11,37,1,71,21,38,1,ok,2,0,0.002,8,-0.3124,-0.63,-1.47,8.80,44,0.063,8.21
8.6113,-0.10123,0.00175,0.32812,0.00000,0.00000,0.00000,64,7,38,2,71,23,38,2,ok,2,0,0.002,8,-0.3087,-0.63,-1.47,8.80,44,0.076,8.21
8.6313,-0.10123,0.00175,0.32812,0.00000,0.00000,0.00000,64,5,39,2,72,25,40,1,ok,2,0,0.002,8,-0.3049,-0.63,-1.47,8.80,44,0.089,8.21
8.6362,-0.10123,0.00175,0.32812,0.00000,0.00000,0.00000,63,1,41,2,71,27,41,2,ok,2,0,0.002,9,-0.3012,-0.63,-1.47,8.80,44,0.101,8.21
8.6487,-0.10123,0.00175,0.32812,0.00000,0.00000,0.00000,62,-1,42,1,71,28,42,1,ok,2,0,0.002,9,-0.2974,-0.63,-1.47,8.80,44,0.114,8.21
8.6713,-0.10123,0.00175,0.32812,0.00000,0.00000,0.00000,61,-3,44,2,71,28,43,1,ok,2,0,0.002,9,-0.2937,-0.63,-1.47,8.80,44,0.126,8.21
8.6746,-0.10123,0.00175,0.32812,0.00000,0.00000,0.00000,60,-4,44,2,73,28,44,1,ok,2,0,0.002,9,-0.2899,-0.63,-1.47,8.80,44,0.139,8.21
8.6874,-0.10123,0.00175,0.32812,0.00000,0.00000,0.00000,59,-6,46,2,74,25,46,0,ok,2,0,0.002,9,-0.2862,-0.63,-1.47,8.80,44,0.152,8.21
8.7073,-0.10123,0.00175,0.32812,0.00000,0.00000,0.00000,59,-8,47,2,76,21,47,0,ok,2,0,0.002,9,-0.2824,-0.63,-1.47,8.80,44,0.165,8.21
8.7122,-0.10123,0.00175,0.32812,0.00000,0.00000,0.00000,57,-9,48,3,77,16,48,0,ok,2,0,0.002,9,-0.2787,-0.63,-1.47,8.80,44,0.177,8.21
8.7250,-0.10123,0.00175,0.32812,0.00000,0.00000,0.00000,55,-10,50,3,79,13,48,0,ok,2,0,0.003,9,-0.2749,-0.63,-1.47,8.80,44,0.190,8.21
8.7474,0.01571,0.02269,0.34558,0.00000,0.00000,0.00000,54,-11,50,3,79,13,49,0,ok,2,0,0.003,9,-0.2787,0.12,0.59,11.01,45,0.000,8.21
8.7506,0.01571,0.02269,0.34558,0.00000,0.00000,0.00000,52,-12,50,5,79,11,50,0,ok,2,0,0.003,9,-0.2824,0.12,0.59,11.01,45,0.013,8.21
8.7632,0.01571,0.02269,0.34558,0.00000,0.00000,0.00000,50,-12,52,6,79,8,51,0,ok,2,0,0.003,9,-0.2862,0.12,0.59,11.01,45,0.026,8.21
8.7833,0.01571,0.02269,0.34558,0.00000,0.00000,0.00000,48,-12,53,5,78,4,53,0,ok,2,0,0.003,9,-0.2899,0.12,0.59,11.01,45,0.039,8.21
8.7883,0.01571,0.02269,0.34558,0.00000,0.00000,0.00000,46,-11,54,6,78,2,53,0,ok,2,0,0.003,9,-0.2937,0.12,0.59,11.01,45,0.051,8.21
8.8007,0.01571,0.02269,0.34558,0.00000,0.00000,0.00000,45,-11,54,7,77,-1,54,0,ok,2,0,0.003,9,-0.2974,0.12,0.59,11.01,45,0.064,8.21
8.8233,0.01571,0.02269,0.34558,0.00000,0.00000,0.00000,43,-11,56,7,76,-3,54,-1,ok,2,0,0.003,9,-0.3012,0.12,0.59,11.01,45,0.076,8.21
8.8266,0.01571,0.02269,0.34558,0.00000,0.00000,0.00000,42,-10,56,7,75,-5,56,0,ok,2,0,0.003,9,-0.3049,0.12,0.59,11.01,45,0.089,8.21
8.8391,0.01571,0.02269,0.34558,0.00000,0.00000,0.00000,40,-9,57,7,74,-8,56,-1,ok,2,0,0.003,9,-0.3087,0.12,0.59,11.01,45,0.102,8.21
8.8593,0.01571,0.02269,0.34558,0.00000,0.00000,0.00000,38,-8,57,8,71,-7,57,0,ok,2,0,0.003,9,-0.3124,0.12,0.59,11.01,45,0.114,8.21
8.8643,0.01571,0.02269,0.34558,0.00000,0.00000,0.00000,36,-6,58,8,70,-10,57,0,ok,2,0,0.003,9,-0.3162,0.12,0.59,11.01,45,0.127,8.21
8.8767,0.01571,0.02269,0.34558,0.00000,0.00000,0.00000,34,-4,59,9,69,-11,59,1,ok,2,0,0.003,9,-0.3199,0.12,0.59,11.01,45,0.139,8.21
8.8993,0.01571,0.02269,0.34558,0.00000,0.00000,0.00000,31,-2,60,11,66,-12,60,0,ok,2,0,0.003,9,-0.3237,0.12,0.59,11.01,45,0.152,8.21
8.9025,0.01571,0.02269,0.34558,0.00000,0.00000,0.00000,30,-1,61,11,64,-13,61,0,ok,2,0,0.003,9,-0.3274,0.12,0.59,11.01,45,0.165,8.21
8.9153,0.01571,0.02269,0.34558,0.00000,0.00000,0.00000,29,0,62,11,62,-13,63,-3,ok,2,0,0.003,9,-0.3312,0.12,0.59,11.01,45,0.178,8.21
8.9353,0.01571,0.02269,0.34558,0.00000,0.00000,0.00000,28,3,62,12,60,-14,63,-1,ok,2,0,0.003,9,-0.3349,0.12,0.59,11.01,45,0.190,8.21
8.9404,0.05760,0.01920,0.34558,0.00000,0.00000,0.00000,26,6,63,13,58,-15,64,-1,ok,2,0,0.003,9,-0.3387,-0.15,-0.01,9.72,46,0.000,8.21
8.9528,0.05760,0.01920,0.34558,0.00000,0.00000,0.00000,26,10,63,14,55,-14,65,-1,ok,2,0,0.003,9,-0.3424,-0.15,-0.01,9.72,46,0.013,8.21
8.9753,0.05760,0.01920,0.34558,0.00000,0.00000,0.00000,25,12,64,15,52,-13,65,-1,ok,2,0,0.003,9,-0.3462,-0.15,-0.01,9.72,46,0.025,8.21
8.9785,0.05760,0.01920,0.34558,0.00000,0.00000,0.00000,26,13,64,16,50,-13,66,0,ok,2,0,0.003,9,-0.3499,-0.15,-0.01,9.72,46,0.038,8.21
8.9911,0.05760,0.01920,0.34558,0.00000,0.00000,0.00000,26,13,64,17,47,-12,67,-1,ok,2,0,0.003,9,-0.3537,-0.15,-0.01,9.72,46,0.051,8.21
9.0113,0.05760,0.01920,0.34558,0.00000,0.00000,0.00000,27,12,65,17,44,-11,68,0,ok,2,0,0.003,9,-0.3574,-0.15,-0.01,9.72,46,0.063,8.21
9.0162,0.05760,0.01920,0.34558,0.00000,0.00000,0.00000,28,12,65,18,41,-10,69,0,ok,2,0,0.003,9,-0.3612,-0.15,-0.01,9.72,46,0.076,8.21
9.0287,0.05760,0.01920,0.34558,0.00000,0.00000,0.00000,28,11,65,18,38,-9,69,2,ok,2,0,0.003,9,-0.3649,-0.15,-0.01,9.72,46,0.089,8.21
9.0513,0.05760,0.01920,0.34558,0.00000,0.00000,0.00000,30,10,65,19,35,-8,69,2,ok,2,0,0.003,9,-0.3687,-0.15,-0.01,9.72,46,0.101,8.21
9.0547,0.05760,0.01920,0.34558,0.00000,0.00000,0.00000,30,10,65,20,33,-6,70,3,ok,2,0,0.003,9,-0.3724,-0.15,-0.01,9.72,46,0.114,8.21
9.0672,0.05760,0.01920,0.34558,0.00000,0.00000,0.00000,32,9,66,21,31,-5,71,4,ok,2,0,0.003,9,-0.3762,-0.15,-0.01,9.72,46,0.127,8.21
9.0873,0.05760,0.01920,0.34558,0.00000,0.00000,0.00000,33,8,66,22,29,-2,72,5,ok,2,0,0.003,9,-0.3799,-0.15,-0.01,9.72,46,0.139,8.21
9.0921,0.05760,0.01920,0.34558,0.00000,0.00000,0.00000,33,7,65,23,28,0,72,6,ok,2,0,0.003,9,-0.3837,-0.15,-0.01,9.72,46,0.152,8.21
9.1047,0.05760,0.01920,0.34558,0.00000,0.00000,0.00000,34,6,65,24,27,4,72,7,ok,2,0,0.003,9,-0.3874,-0.15,-0.01,9.72,46,0.164,8.21
9.1273,0.05760,0.01920,0.34558,0.00000,0.00000,0.00000,35,6,65,25,26,6,72,8,ok,2,0,0.003,9,-0.3912,-0.15,-0.01,9.72,46,0.177,8.21
9.1308,0.05760,0.01920,0.34558,0.00000,0.00000,0.00000,36,5,64,28,28,6,72,9,ok,2,0,0.003,9,-0.3949,-0.15,-0.01,9.72,46,0.190,8.21
9.1435,0.01047,0.01222,0.34732,0.00000,0.00000,0.00000,37,4,64,29,29,5,73,11,ok,2,0,0.003,9,-0.3987,0.67,1.33,10.42,47,0.000,8.21
9.1633,0.01047,0.01222,0.34732,0.00000,0.00000,0.00000,37,4,65,27,30,3,72,12,ok,2,0,0.003,9,-0.4024,0.67,1.33,10.42,47,0.013,8.21
9.1681,0.01047,0.01222,0.34732,0.00000,0.00000,0.00000,39,3,68,25,31,2,73,14,ok,2,0,0.003,9,-0.4062,0.67,1.33,10.42,47,0.025,8.21
9.1809,0.01047,0.01222,0.34732,0.00000,0.00000,0.00000,39,3,70,21,32,2,73,16,ok,2,0,0.003,9,-0.4099,0.67,1.33,10.42,47,0.038,8.21
9.2033,0.01047,0.01222,0.34732,0.00000,0.00000,0.00000,40,2,71,17,33,2,73,17,ok,2,0,0.003,9,-0.4136,0.67,1.33,10.42,47,0.050,8.21
9.2066,0.01047,0.01222,0.34732,0.00000,0.00000,0.00000,41,2,71,15,34,1,73,19,ok,2,0,0.003,9,-0.4153,0.67,1.33,10.42,47,0.063,8.21
9.2191,0.01047,0.01222,0.34732,0.00000,0.00000,0.00000,42,1,71,14,37,1,73,20,ok,2,0,0.003,9,-0.4171,0.67,1.33,10.42,47,0.076,8.21
9.2393,0.01047,0.01222,0.34732,0.00000,0.00000,0.00000,42,1,71,11,37,1,72,22,ok,2,0,0.003,9,-0.4188,0.67,1.33,10.42,47,0.089,8.21
9.2441,0.01047,0.01222,0.34732,0.00000,0.00000,0.00000,44,1,71,8,39,2,72,23,ok,2,0,0.003,9,-0.4205,0.67,1.33,10.42,47,0.101,8.21
9.2569,0.01047,0.01222,0.34732,0.00000,0.00000,0.00000,44,1,70,5,40,1,73,24,ok,2,0,0.003,9,-0.4223,0.67,1.33,10.42,47,0.113,8.21
9.2793,0.01047,0.01222,0.34732,0.00000,0.00000,0.00000,45,0,70,3,41,2,72,26,ok,2,0,0.003,9,-0.4240,0.67,1.33,10.42,47,0.126,8.21
9.2826,0.01047,0.01222,0.34732,0.00000,0.00000,0.00000,46,0,69,1,42,1,72,28,ok,2,0,0.003,9,-0.4258,0.67,1.33,10.42,47,0.139,8.21
9.2951,0.01047,0.01222,0.34732,0.00000,0.00000,0.00000,47,0,68,-1,44,1,72,29,ok,2,0,0.003,9,-0.4275,0.67,1.33,10.42,47,0.152,8.21
9.3153,0.01047,0.01222,0.34732,0.00000,0.00000,0.00000,47,0,65,-2,45,0,73,29,ok,2,0,0.003,9,-0.4292,0.67,1.33,10.42,47,0.164,8.21
9.3202,0.01047,0.01222,0.34732,0.00000,0.00000,0.00000,48,1,64,-4,46,0,74,28,ok,2,0,0.003,9,-0.4310,0.67,1.33,10.42,47,0.177,8.21
9.3327,0.01047,0.01222,0.34732,0.00000,0.00000,0.00000,49,1,63,-6,48,0,76,26,ok,2,0,0.003,9,-0.4327,0.67,1.33,10.42,47,0.190,8.21
9.3553,0.01047,0.01222,0.34732,0.00000,0.00000,0.00000,49,2,61,-7,48,0,78,20,ok,2,0,0.003,9,-0.4344,0.67,1.33,10.42,47,0.202,8.21
9.3589,-0.14486,-0.03840,0.39270,0.00000,0.00000,0.00000,50,1,59,-8,49,0,79,17,ok,2,0,0.003,9,-0.4382,-1.04,-0.52,11.54,48,0.000,8.21
9.3712,-0.14486,-0.03840,0.39270,0.00000,0.00000,0.00000,51,1,56,-8,50,-1,81,14,ok,2,0,0.003,9,-0.4419,-1.04,-0.52,11.54,48,0.013,8.21
9.3913,-0.14486,-0.03840,0.39270,0.00000,0.00000,0.00000,51,3,54,-9,51,-1,81,14,ok,2,0,0.003,9,-0.4457,-1.04,-0.52,11.54,48,0.025,8.21
9.3962,-0.14486,-0.03840,0.39270,0.00000,0.00000,0.00000,51,4,51,-9,53,-1,81,11,ok,2,0,0.003,9,-0.4494,-1.04,-0.52,11.54,48,0.038,8.21
9.4087,-0.14486,-0.03840,0.39270,0.00000,0.00000,0.00000,52,4,49,-9,54,0,81,7,ok,2,0,0.003,9,-0.4532,-1.04,-0.52,11.54,48,0.050,8.21
9.4314,-0.14486,-0.03840,0.39270,0.00000,0.00000,0.00000,52,5,46,-9,55,1,80,4,ok,2,0,0.003,9,-0.4569,-1.04,-0.52,11.54,48,0.063,8.21
9.4346,-0.14486,-0.03840,0.39270,0.00000,0.00000,0.00000,52,6,44,-9,56,0,79,2,ok,2,0,0.003,9,-0.4607,-1.04,-0.52,11.54,48,0.076,8.21
9.4472,-0.14486,-0.03840,0.39270,0.00000,0.00000,0.00000,53,6,41,-9,57,1,78,-2,ok,2,0,0.003,9,-0.4644,-1.04,-0.52,11.54,48,0.089,8.21
9.4673,-0.14486,-0.03840,0.39270,0.00000,0.00000,0.00000,53,6,39,-8,58,0,78,-3,ok,2,0,0.003,9,-0.4682,-1.04,-0.52,11.54,48,0.101,8.21
9.4722,-0.14486,-0.03840,0.39270,0.00000,0.00000,0.00000,54,7,36,-7,58,1,76,-5,ok,2,0,0.003,9,-0.4719,-1.04,-0.52,11.54,48,0.114,8.21
9.4848,-0.14486,-0.03840,0.39270,0.00000,0.00000,0.00000,54,8,33,-6,59,1,74,-7,ok,2,0,0.003,9,-0.4757,-1.04,-0.52,11.54,48,0.126,8.21
9.5073,-0.14486,-0.03840,0.39270,0.00000,0.00000,0.00000,54,8,29,-5,60,1,72,-7,ok,2,0,0.003,9,-0.4794,-1.04,-0.52,11.54,48,0.139,8.21
9.5106,-0.14486,-0.03840,0.39270,0.00000,0.00000,0.00000,55,9,26,-3,61,1,70,-9,ok,2,0,0.003,9,-0.4832,-1.04,-0.52,11.54,48,0.152,8.21
9.5232,-0.14486,-0.03840,0.39270,0.00000,0.00000,0.00000,56,10,22,-1,62,0,69,-11,ok,2,0,0.003,9,-0.4869,-1.04,-0.52,11.54,48,0.165,8.21
9.5433,-0.14486,-0.03840,0.39270,0.00000,0.00000,0.00000,56,10,20,0,64,-2,67,-12,ok,2,0,0.003,9,-0.4907,-1.04,-0.52,11.54,48,0.177,8.21
9.5482,-0.14486,-0.03840,0.39270,0.00000,0.00000,0.00000,56,11,18,1,64,-1,64,-13,ok,2,0,0.003,9,-0.4944,-1.04,-0.52,11.54,48,0.190,8.21
9.5610,-0.06109,0.01222,0.37176,0.00000,0.00000,0.00000,56,11,16,4,65,-1,63,-13,ok,2,0,0.003,9,-0.4982,0.55,-0.49,10.40,49,0.000,8.21
9.5833,-0.06109,0.01222,0.37176,0.00000,0.00000,0.00000,56,12,15,7,66,0,60,-14,ok,2,0,0.003,9,-0.5019,0.55,-0.49,10.40,49,0.012,8.21
9.5866,-0.06109,0.01222,0.37176,0.00000,0.00000,0.00000,56,13,13,10,66,0,58,-15,ok,2,0,0.003,9,-0.5057,0.55,-0.49,10.40,49,0.026,8.21
9.5991,-0.06109,0.01222,0.37176,0.00000,0.00000,0.00000,56,14,11,12,67,0,55,-13,ok,2,0,0.003,9,-0.5094,0.55,-0.49,10.40,49,0.039,8.21
9.6193,-0.06109,0.01222,0.37176,0.00000,0.00000,0.00000,57,15,13,13,67,0,52,-13,ok,2,0,0.003,9,-0.5132,0.55,-0.49,10.40,49,0.051,8.21
9.6242,-0.06109,0.01222,0.37176,0.00000,0.00000,0.00000,57,16,12,12,68,1,50,-12,ok,2,0,0.003,9,-0.5169,0.55,-0.49,10.40,49,0.063,8.21
9.6368,-0.06109,0.01222,0.37176,0.00000,0.00000,0.00000,57,17,14,11,69,1,47,-11,ok,2,0,0.003,9,-0.5207,0.55,-0.49,10.40,49,0.076,8.21
9.6593,-0.06109,0.01222,0.37176,0.00000,0.00000,0.00000,57,18,15,11,69,2,45,-11,ok,2,0,0.003,9,-0.5244,0.55,-0.49,10.40,49,0.089,8.21
9.6627,-0.06109,0.01222,0.37176,0.00000,0.00000,0.00000,58,18,16,10,69,2,41,-9,ok,2,0,0.003,10,-0.5282,0.55,-0.49,10.40,49,0.102,8.21
9.6752,-0.06109,0.01222,0.37176,0.00000,0.00000,0.00000,57,19,17,9,70,3,39,-9,ok,2,0,0.003,10,-0.5319,0.55,-0.49,10.40,49,0.115,8.21
9.6953,-0.06109,0.01222,0.37176,0.00000,0.00000,0.00000,57,20,18,9,70,4,35,-7,ok,2,0,0.003,10,-0.5357,0.55,-0.49,10.40,49,0.127,8.21
9.7002,-0.06109,0.01222,0.37176,0.00000,0.00000,0.00000,58,21,20,8,71,5,34,-5,ok,2,0,0.003,10,-0.5394,0.55,-0.49,10.40,49,0.140,8.21
9.7129,-0.06109,0.01222,0.37176,0.00000,0.00000,0.00000,58,22,21,7,71,6,32,-4,ok,2,0,0.003,10,-0.5432,0.55,-0.49,10.40,49,0.152,8.21
9.7353,-0.06109,0.01222,0.37176,0.00000,0.00000,0.00000,58,23,22,6,71,7,30,-1,ok,2,0,0.003,10,-0.5469,0.55,-0.49,10.40,49,0.165,8.21
9.7386,-0.06109,0.01222,0.37176,0.00000,0.00000,0.00000,58,24,23,6,71,8,29,2,ok,2,0,0.003,10,-0.5507,0.55,-0.49,10.40,49,0.178,8.21
9.7512,-0.06109,0.01222,0.37176,0.00000,0.00000,0.00000,57,25,25,5,71,9,27,5,ok,2,0,0.003,10,-0.5544,0.55,-0.49,10.40,49,0.191,8.21
9.7713,-0.12392,-0.00175,0.39444,0.00000,0.00000,0.00000,57,28,26,5,71,10,27,7,ok,2,0,0.003,10,-0.5582,0.66,-2.13,12.09,50,0.000,8.21
9.7762,-0.12392,-0.00175,0.39444,0.00000,0.00000,0.00000,56,29,27,4,71,11,29,6,ok,2,0,0.003,10,-0.5619,0.66,-2.13,12.09,50,0.013,8.21
9.7887,-0.12392,-0.00175,0.39444,0.00000,0.00000,0.00000,57,28,28,4,72,13,29,6,ok,2,0,0.003,10,-0.5657,0.66,-2.13,12.09,50,0.025,8.21
9.8113,-0.12392,-0.00175,0.39444,0.00000,0.00000,0.00000,58,24,30,3,72,14,30,4,ok,2,0,0.003,10,-0.5694,0.66,-2.13,12.09,50,0.038,8.21
9.8146,-0.12392,-0.00175,0.39444,0.00000,0.00000,0.00000,59,21,31,2,71,15,31,3,ok,2,0,0.003,10,-0.5732,0.66,-2.13,12.09,50,0.051,8.21
9.8271,-0.12392,-0.00175,0.39444,0.00000,0.00000,0.00000,59,17,33,2,71,17,33,3,ok,2,0,0.003,10,-0.5769,0.66,-2.13,12.09,50,0.063,8.21
9.8473,-0.12392,-0.00175,0.39444,0.00000,0.00000,0.00000,59,15,34,2,72,18,34,2,ok,2,0,0.003,10,-0.5807,0.66,-2.13,12.09,50,0.076,8.21
9.8521,-0.12392,-0.00175,0.39444,0.00000,0.00000,0.00000,59,14,35,2,71,20,36,1,ok,2,0,0.003,10,-0.5844,0.66,-2.13,12.09,50,0.088,8.21
9.8647,-0.12392,-0.00175,0.39444,0.00000,0.00000,0.00000,59,11,37,2,71,21,38,1,ok,2,0,0.003,10,-0.5882,0.66,-2.13,12.09,50,0.101,8.21
9.8874,-0.12392,-0.00175,0.39444,0.00000,0.00000,0.00000,58,7,38,2,71,23,38,2,ok,2,0,0.003,10,-0.5919,0.66,-2.13,12.09,50,0.113,8.21
9.8906,-0.12392,-0.00175,0.39444,0.00000,0.00000,0.00000,58,4,39,2,72,25,40,1,ok,2,0,0.003,10,-0.5957,0.66,-2.13,12.09,50,0.127,8.21
9.9032,-0.12392,-0.00175,0.39444,0.00000,0.00000,0.00000,58,1,41,2,71,27,41,1,ok,2,0,0.003,10,-0.5994,0.66,-2.13,12.09,50,0.140,8.21
9.9233,-0.12392,-0.00175,0.39444,0.00000,0.00000,0.00000,57,-1,42,1,71,28,42,1,ok,2,0,0.003,10,-0.6000,0.66,-2.13,12.09,50,0.152,8.21
9.9284,-0.12392,-0.00175,0.39444,0.00000,0.00000,0.00000,56,-3,44,2,71,28,43,1,ok,2,0,0.003,10,-0.6000,0.66,-2.13,12.09,50,0.165,8.21
9.9407,-0.12392,-0.00175,0.39444,0.00000,0.00000,0.00000,56,-4,44,2,72,28,44,1,ok,2,0,0.003,10,-0.6000,0.66,-2.13,12.09,50,0.177,8.21
9.9633,-0.12392,-0.00175,0.39444,0.00000,0.00000,0.00000,55,-6,46,2,74,25,45,0,ok,2,0,0.003,10,-0.6000,0.66,-2.13,12.09,50,0.190,8.21
9.9666,-0.12392,-0.00175,0.39444,0.00000,0.00000,0.00000,55,-8,47,2,76,21,47,0,ok,2,0,0.003,10,-0.6000,0.66,-2.13,12.09,50,0.203,8.21
9.9795,-0.05411,-0.01222,0.41015,0.00000,0.00000,0.00000,54,-9,48,3,77,16,48,0,ok,2,0,0.003,10,-0.6000,0.97,0.41,7.94,51,0.000,8.21
9.9993,-0.05411,-0.01222,0.41015,0.00000,0.00000,0.00000,53,-10,50,3,79,14,49,0,ok,2,0,0.003,10,-0.6000,0.97,0.41,7.94,51,0.013,8.21
10.0042,-0.05411,-0.01222,0.41015,0.00000,0.00000,0.00000,52,-11,50,3,79,13,49,0,ok,2,0,0.003,10,-0.6000,0.97,0.41,7.94,51,0.025,8.21
10.0169,-0.05411,-0.01222,0.41015,0.00000,0.00000,0.00000,51,-12,51,5,79,11,50,0,ok,2,0,0.003,10,-0.6000,0.97,0.41,7.94,51,0.038,8.21
10.0433,-0.05411,-0.01222,0.41015,0.00000,0.00000,0.00000,50,-11,52,6,79,7,51,0,ok,2,0,0.003,10,-0.6000,0.97,0.41,7.94,51,0.050,8.21
10.0466,-0.05411,-0.01222,0.41015,0.00000,0.00000,0.00000,49,-11,53,5,79,4,52,0,ok,2,0,0.003,10,-0.6000,0.97,0.41,7.94,51,0.067,8.21
10.0593,-0.05411,-0.01222,0.41015,0.00000,0.00000,0.00000,48,-11,54,6,78,2,53,0,ok,2,0,0.003,10,-0.6000,0.97,0.41,7.94,51,0.080,8.21
10.0793,-0.05411,-0.01222,0.41015,0.00000,0.00000,0.00000,47,-11,54,7,77,-2,54,1,ok,2,0,0.003,10,-0.6000,0.97,0.41,7.94,51,0.092,8.21
10.0843,-0.05411,-0.01222,0.41015,0.00000,0.00000,0.00000,46,-11,56,7,76,-4,54,0,ok,2,0,0.003,10,-0.6000,0.97,0.41,7.94,51,0.105,8.21
10.0971,-0.05411,-0.01222,0.41015,0.00000,0.00000,0.00000,45,-10,56,7,75,-5,56,0,ok,2,0,0.003,10,-0.6000,0.97,0.41,7.94,51,0.117,8.14
10.1193,-0.05411,-0.01222,0.41015,0.00000,0.00000,0.00000,44,-9,57,7,74,-8,56,-1,ok,2,0,0.003,10,-0.6000,0.97,0.41,7.94,51,0.130,8.14
10.1225,-0.05411,-0.01222,0.41015,0.00000,0.00000,0.00000,43,-8,58,8,71,-8,57,0,ok,2,0,0.003,10,-0.6000,0.97,0.41,7.94,51,0.143,8.14
10.1351,-0.05411,-0.01222,0.41015,0.00000,0.00000,0.00000,42,-6,58,8,70,-10,57,0,ok,2,0,0.003,10,-0.6000,0.97,0.41,7.94,51,0.156,8.14
10.1553,-0.05411,-0.01222,0.41015,0.00000,0.00000,0.00000,40,-4,59,9,68,-11,59,0,ok,2,0,0.003,10,-0.6000,0.97,0.41,7.94,51,0.168,8.14
10.1602,-0.05411,-0.01222,0.41015,0.00000,0.00000,0.00000,39,-2,60,11,66,-13,59,0,ok,2,0,0.003,10,-0.6000,0.97,0.41,7.94,51,0.181,8.14
10.1730,0.01920,0.03142,0.43459,0.00000,0.00000,0.00000,38,-1,61,11,64,-13,60,0,ok,2,0,0.003,10,-0.6000,0.07,0.43,10.76,52,0.000,8.14
10.1953,0.01920,0.03142,0.43459,0.00000,0.00000,0.00000,38,0,62,11,62,-13,63,-3,ok,2,0,0.003,10,-0.6000,0.07,0.43,10.76,52,0.013,8.14
10.1986,0.01920,0.03142,0.43459,0.00000,0.00000,0.00000,37,3,62,12,59,-14,63,-2,ok,2,0,0.003,10,-0.6000,0.07,0.43,10.76,52,0.026,8.14
10.2112,0.01920,0.03142,0.43459,0.00000,0.00000,0.00000,36,6,63,13,58,-14,64,-2,ok,2,0,0.003,10,-0.6000,0.07,0.43,10.76,52,0.039,8.14
10.2313,0.01920,0.03142,0.43459,0.00000,0.00000,0.00000,35,10,63,14,55,-14,65,-1,ok,2,0,0.003,10,-0.6000,0.07,0.43,10.76,52,0.051,8.14
10.2362,0.01920,0.03142,0.43459,0.00000,0.00000,0.00000,34,12,64,15,52,-13,65,-1,ok,2,0,0.003,10,-0.6000,0.07,0.43,10.76,52,0.064,8.14
10.2488,0.01920,0.03142,0.43459,0.00000,0.00000,0.00000,35,13,64,16,50,-13,66,0,ok,2,0,0.003,10,-0.6000,0.07,0.43,10.76,52,0.076,8.14
10.2713,0.01920,0.03142,0.43459,0.00000,0.00000,0.00000,35,13,64,17,47,-12,67,0,ok,2,0,0.003,10,-0.6000,0.07,0.43,10.76,52,0.089,8.14
10.2746,0.01920,0.03142,0.43459,0.00000,0.00000,0.00000,36,12,64,17,44,-11,68,1,ok,2,0,0.003,10,-0.6000,0.07,0.43,10.76,52,0.102,8.14
10.2872,0.01920,0.03142,0.43459,0.00000,0.00000,0.00000,36,12,65,18,41,-10,69,1,ok,2,0,0.003,10,-0.6000,0.07,0.43,10.76,52,0.115,8.14
10.3073,0.01920,0.03142,0.43459,0.00000,0.00000,0.00000,36,11,65,19,38,-10,69,2,ok,2,0,0.003,10,-0.6000,0.07,0.43,10.76,52,0.127,8.14
10.3121,0.01920,0.03142,0.43459,0.00000,0.00000,0.00000,37,10,65,19,35,-8,69,2,ok,2,0,0.003,10,-0.6000,0.07,0.43,10.76,52,0.140,8.14
10.3247,0.01920,0.03142,0.43459,0.00000,0.00000,0.00000,37,10,65,20,33,-6,70,3,ok,2,0,0.003,10,-0.6000,0.07,0.43,10.76,52,0.152,8.14
10.3473,0.01920,0.03142,0.43459,0.00000,0.00000,0.00000,38,8,66,21,32,-5,71,5,ok,2,0,0.003,10,-0.6000,0.07,0.43,10.76,52,0.165,8.14
10.3505,0.01920,0.03142,0.43459,0.00000,0.00000,0.00000,39,7,66,22,29,-2,72,5,ok,2,0,0.003,10,-0.6000,0.07,0.43,10.76,52,0.178,8.14
10.3634,0.01920,0.03142,0.43459,0.00000,0.00000,0.00000,39,7,65,23,28,0,72,6,ok,2,0,0.003,10,-0.6000,0.07,0.43,10.76,52,0.191,8.14
10.3833,-0.07505,-0.09076,0.42062,0.00000,0.00000,0.00000,40,6,65,24,27,4,72,8,ok,2,0,0.003,10,-0.6000,-1.60,-0.95,10.78,53,0.000,8.14
10.3882,-0.07505,-0.09076,0.42062,0.00000,0.00000,0.00000,40,6,65,25,26,6,72,9,ok,2,0,0.003,10,-0.6000,-1.60,-0.95,10.78,53,0.012,8.14
10.4009,-0.07505,-0.09076,0.42062,0.00000,0.00000,0.00000,41,5,64,28,28,5,72,10,ok,2,0,0.003,10,-0.6000,-1.60,-0.95,10.78,53,0.025,8.14
10.4233,-0.07505,-0.09076,0.42062,0.00000,0.00000,0.00000,41,4,64,29,29,5,72,11,ok,2,0,0.003,10,-0.6000,-1.60,-0.95,10.78,53,0.038,8.14
10.4265,-0.07505,-0.09076,0.42062,0.00000,0.00000,0.00000,42,4,65,28,30,2,73,13,ok,2,0,0.003,10,-0.6000,-1.60,-0.95,10.78,53,0.051,8.14
10.4391,-0.07505,-0.09076,0.42062,0.00000,0.00000,0.00000,42,3,68,25,31,2,73,14,ok,2,0,0.003,10,-0.6000,-1.60,-0.95,10.78,53,0.063,8.14
10.4593,-0.07505,-0.09076,0.42062,0.00000,0.00000,0.00000,43,2,70,21,32,2,73,16,ok,2,0,0.003,10,-0.6000,-1.60,-0.95,10.78,53,0.076,8.14
10.4641,-0.07505,-0.09076,0.42062,0.00000,0.00000,0.00000,43,2,72,17,33,1,72,17,ok,2,0,0.003,10,-0.6000,-1.60,-0.95,10.78,53,0.088,8.14
10.4767,-0.07505,-0.09076,0.42062,0.00000,0.00000,0.00000,44,2,72,15,34,0,72,19,ok,2,0,0.003,10,-0.6000,-1.60,-0.95,10.78,53,0.101,8.14
10.4993,-0.07505,-0.09076,0.42062,0.00000,0.00000,0.00000,44,1,72,15,37,0,73,20,ok,2,0,0.003,10,-0.6000,-1.60,-0.95,10.78,53,0.113,8.14
10.5027,-0.07505,-0.09076,0.42062,0.00000,0.00000,0.00000,45,1,72,11,37,0,72,22,ok,2,0,0.003,10,-0.6000,-1.60,-0.95,10.78,53,0.127,8.14
10.5152,-0.07505,-0.09076,0.42062,0.00000,0.00000,0.00000,46,1,71,8,39,1,72,23,ok,2,0,0.003,10,-0.6000,-1.60,-0.95,10.78,53,0.140,8.14
10.5353,-0.07505,-0.09076,0.42062,0.00000,0.00000,0.00000,46,1,71,5,40,0,72,24,ok,2,0,0.003,10,-0.6000,-1.60,-0.95,10.78,53,0.152,8.14
10.5403,-0.07505,-0.09076,0.42062,0.00000,0.00000,0.00000,47,0,70,3,41,1,72,26,ok,2,0,0.003,10,-0.6000,-1.60,-0.95,10.78,53,0.164,8.14
10.5527,-0.07505,-0.09076,0.42062,0.00000,0.00000,0.00000,47,0,69,1,42,0,71,27,ok,2,0,0.003,10,-0.6000,-1.60,-0.95,10.78,53,0.177,8.14
10.5753,-0.07505,-0.09076,0.42062,0.00000,0.00000,0.00000,48,0,68,-1,43,0,71,29,ok,2,0,0.003,10,-0.6000,-1.60,-0.95,10.78,53,0.190,8.14
10.5788,-0.14486,0.00349,0.37525,0.00000,0.00000,0.00000,48,0,66,-2,45,-1,72,29,ok,2,0,0.003,10,-0.5962,0.40,-0.92,10.72,54,0.000,8.14
10.5911,-0.14486,0.00349,0.37525,0.00000,0.00000,0.00000,48,1,65,-4,46,-1,73,28,ok,2,0,0.003,10,-0.5925,0.40,-0.92,10.72,54,0.013,8.14
10.6113,-0.14486,0.00349,0.37525,0.00000,0.00000,0.00000,49,1,64,-6,48,-1,75,26,ok,2,0,0.003,10,-0.5887,0.40,-0.92,10.72,54,0.025,8.14
10.6164,-0.14486,0.00349,0.37525,0.00000,0.00000,0.00000,50,2,61,-7,48,-1,77,21,ok,2,0,0.003,10,-0.5850,0.40,-0.92,10.72,54,0.038,8.14
10.6287,-0.14486,0.00349,0.37525,0.00000,0.00000,0.00000,50,1,59,-8,49,-1,78,17,ok,2,0,0.003,10,-0.5812,0.40,-0.92,10.72,54,0.050,8.14
10.6513,-0.14486,0.00349,0.37525,0.00000,0.00000,0.00000,50,2,56,-9,51,-1,80,14,ok,2,0,0.003,10,-0.5775,0.40,-0.92,10.72,54,0.063,8.14
10.6545,-0.14486,0.00349,0.37525,0.00000,0.00000,0.00000,50,4,54,-9,52,-1,80,13,ok,2,0,0.003,10,-0.5737,0.40,-0.92,10.72,54,0.076,8.14
10.6672,-0.14486,0.00349,0.37525,0.00000,0.00000,0.00000,51,5,51,-9,53,0,80,10,ok,2,0,0.003,10,-0.5700,0.40,-0.92,10.72,54,0.089,8.14
10.6873,-0.14486,0.00349,0.37525,0.00000,0.00000,0.00000,51,4,49,-9,54,0,80,7,ok,2,0,0.003,11,-0.5662,0.40,-0.92,10.72,54,0.101,8.14
10.6923,-0.14486,0.00349,0.37525,0.00000,0.00000,0.00000,51,5,46,-9,55,1,79,4,ok,2,0,0.003,11,-0.5625,0.40,-0.92,10.72,54,0.114,8.14
10.7047,-0.14486,0.00349,0.37525,0.00000,0.00000,0.00000,51,6,43,-9,56,0,79,2,ok,2,0,0.003,11,-0.5587,0.40,-0.92,10.72,54,0.126,8.14
10.7314,-0.14486,0.00349,0.37525,0.00000,0.00000,0.00000,52,6,41,-9,57,1,78,-2,ok,2,0,0.003,11,-0.5550,0.40,-0.92,10.72,54,0.139,8.14
10.7366,-0.14486,0.00349,0.37525,0.00000,0.00000,0.00000,53,6,39,-8,58,0,77,-3,ok,2,0,0.003,11,-0.5512,0.40,-0.92,10.72,54,0.156,8.14
10.7473,-0.14486,0.00349,0.37525,0.00000,0.00000,0.00000,53,7,35,-7,59,1,76,-5,ok,2,0,0.003,11,-0.5475,0.40,-0.92,10.72,54,0.169,8.14
10.7673,-0.14486,0.00349,0.37525,0.00000,0.00000,0.00000,53,8,33,-6,59,1,74,-7,ok,2,0,0.003,11,-0.5437,0.40,-0.92,10.72,54,0.181,8.14
10.7724,-0.14486,0.00349,0.37525,0.00000,0.00000,0.00000,54,8,29,-5,60,1,71,-7,ok,2,0,0.003,11,-0.5400,0.40,-0.92,10.72,54,0.194,8.14
10.7851,-0.06807,-0.00175,0.32114,0.00000,0.00000,0.00000,54,9,26,-3,61,1,70,-9,ok,2,0,0.003,11,-0.5250,0.30,-0.53,9.52,55,0.000,8.14
10.8073,-0.06807,-0.00175,0.32114,0.00000,0.00000,0.00000,55,10,22,-1,62,0,69,-11,ok,2,0,0.003,11,-0.5100,0.30,-0.53,9.52,55,0.013,8.14
10.8106,-0.06807,-0.00175,0.32114,0.00000,0.00000,0.00000,56,10,20,0,64,-2,67,-12,ok,2,0,0.003,11,-0.4950,0.30,-0.53,9.52,55,0.026,8.14
10.8232,-0.06807,-0.00175,0.32114,0.00000,0.00000,0.00000,56,11,19,1,65,-1,65,-13,ok,2,0,0.003,11,-0.4800,0.30,-0.53,9.52,55,0.038,8.14
10.8433,-0.06807,-0.00175,0.32114,0.00000,0.00000,0.00000,56,12,16,3,65,0,63,-14,ok,2,0,0.003,11,-0.4650,0.30,-0.53,9.52,55,0.051,8.14
10.8481,-0.06807,-0.00175,0.32114,0.00000,0.00000,0.00000,57,12,14,7,66,0,60,-14,ok,2,0,0.003,11,-0.4500,0.30,-0.53,9.52,55,0.063,8.14
10.8610,-0.06807,-0.00175,0.32114,0.00000,0.00000,0.00000,57,14,13,10,66,0,58,-15,ok,2,0,0.003,11,-0.4350,0.30,-0.53,9.52,55,0.076,8.14
10.8833,-0.06807,-0.00175,0.32114,0.00000,0.00000,0.00000,58,14,11,12,67,0,55,-13,ok,2,0,0.003,11,-0.4200,0.30,-0.53,9.52,55,0.088,8.14
10.8866,-0.06807,-0.00175,0.32114,0.00000,0.00000,0.00000,58,15,13,12,68,0,52,-12,ok,2,0,0.003,11,-0.4050,0.30,-0.53,9.52,55,0.102,8.14
10.8992,-0.06807,-0.00175,0.32114,0.00000,0.00000,0.00000,59,16,12,12,68,1,50,-12,ok,2,0,0.003,11,-0.3900,0.30,-0.53,9.52,55,0.114,8.14
10.9193,-0.06807,-0.00175,0.32114,0.00000,0.00000,0.00000,59,17,14,11,69,1,47,-11,ok,2,0,0.003,11,-0.3750,0.30,-0.53,9.52,55,0.127,8.14
10.9242,-0.06807,-0.00175,0.32114,0.00000,0.00000,0.00000,60,18,15,10,69,2,45,-11,ok,2,0,0.003,11,-0.3600,0.30,-0.53,9.52,55,0.139,8.14
10.9368,-0.06807,-0.00175,0.32114,0.00000,0.00000,0.00000,60,18,16,10,69,2,41,-9,ok,2,0,0.003,11,-0.3450,0.30,-0.53,9.52,55,0.152,8.14
10.9593,-0.06807,-0.00175,0.32114,0.00000,0.00000,0.00000,61,18,17,9,70,3,39,-9,ok,2,0,0.003,11,-0.3300,0.30,-0.53,9.52,55,0.164,8.14
10.9625,-0.06807,-0.00175,0.32114,0.00000,0.00000,0.00000,61,20,18,9,70,4,35,-7,ok,2,0,0.003,11,-0.3150,0.30,-0.53,9.52,55,0.178,8.14
10.9751,-0.06807,-0.00175,0.32114,0.00000,0.00000,0.00000,62,21,20,8,71,5,34,-5,ok,2,0,0.003,11,-0.3000,0.30,-0.53,9.52,55,0.190,8.14
10.9953,-0.07854,0.04538,0.30369,0.00000,0.00000,0.00000,62,22,21,7,71,6,32,-4,ok,2,0,0.003,11,-0.2850,0.74,-1.28,9.29,56,0.000,8.14
11.0002,-0.07854,0.04538,0.30369,0.00000,0.00000,0.00000,62,23,22,6,71,7,29,-1,ok,2,0,0.003,11,-0.2700,0.74,-1.28,9.29,56,0.012,8.14
11.0129,-0.07854,0.04538,0.30369,0.00000,0.00000,0.00000,63,24,23,6,71,8,28,2,ok,2,0,0.003,11,-0.2550,0.74,-1.28,9.29,56,0.025,8.14
11.0353,-0.07854,0.04538,0.30369,0.00000,0.00000,0.00000,62,25,25,5,72,9,27,5,ok,2,0,0.003,11,-0.2400,0.74,-1.28,9.29,56,0.038,8.14
11.0385,-0.07854,0.04538,0.30369,0.00000,0.00000,0.00000,62,28,26,5,72,10,26,7,ok,2,0,0.003,11,-0.2250,0.74,-1.28,9.29,56,0.051,8.14
11.0511,-0.07854,0.04538,0.30369,0.00000,0.00000,0.00000,61,29,27,4,71,12,29,6,ok,2,0,0.003,11,-0.2100,0.74,-1.28,9.29,56,0.063,8.14
11.0713,-0.07854,0.04538,0.30369,0.00000,0.00000,0.00000,62,28,28,3,72,13,29,6,ok,2,0,0.003,11,-0.1950,0.74,-1.28,9.29,56,0.076,8.14
11.0762,-0.07854,0.04538,0.30369,0.00000,0.00000,0.00000,65,25,30,3,72,14,30,4,ok,2,0,0.003,11,-0.1800,0.74,-1.28,9.29,56,0.088,8.14
11.0887,-0.07854,0.04538,0.30369,0.00000,0.00000,0.00000,66,21,31,2,72,15,31,3,ok,2,0,0.003,11,-0.1762,0.74,-1.28,9.29,56,0.101,8.14
11.1114,-0.07854,0.04538,0.30369,0.00000,0.00000,0.00000,67,17,33,2,72,18,33,3,ok,2,0,0.003,11,-0.1725,0.74,-1.28,9.29,56,0.113,8.14
11.1146,-0.07854,0.04538,0.30369,0.00000,0.00000,0.00000,67,15,34,2,72,18,34,2,ok,2,0,0.003,11,-0.1687,0.74,-1.28,9.29,56,0.127,8.14
11.1272,-0.07854,0.04538,0.30369,0.00000,0.00000,0.00000,68,14,35,1,71,21,36,1,ok,2,0,0.003,11,-0.1650,0.74,-1.28,9.29,56,0.140,8.14
11.1473,-0.07854,0.04538,0.30369,0.00000,0.00000,0.00000,68,11,36,1,71,22,38,1,ok,2,0,0.003,11,-0.1612,0.74,-1.28,9.29,56,0.152,8.14
11.1523,-0.07854,0.04538,0.30369,0.00000,0.00000,0.00000,67,7,38,2,72,24,38,2,ok,2,0,0.003,11,-0.1575,0.74,-1.28,9.29,56,0.165,8.14
11.1648,-0.07854,0.04538,0.30369,0.00000,0.00000,0.00000,66,5,39,2,72,25,40,1,ok,2,0,0.003,11,-0.1537,0.74,-1.28,9.29,56,0.177,8.14
11.1873,-0.07854,0.04538,0.30369,0.00000,0.00000,0.00000,66,1,41,1,71,27,41,2,ok,2,0,0.003,11,-0.1500,0.74,-1.28,9.29,56,0.190,8.14
11.1909,-0.02967,-0.06458,0.35430,0.00000,0.00000,0.00000,64,-1,42,1,71,28,42,2,ok,2,0,0.003,11,-0.1537,0.63,0.43,9.36,57,0.000,8.14
11.2032,-0.02967,-0.06458,0.35430,0.00000,0.00000,0.00000,63,-3,44,1,71,28,43,1,ok,2,0,0.003,11,-0.1575,0.63,0.43,9.36,57,0.013,8.14
11.2233,-0.02967,-0.06458,0.35430,0.00000,0.00000,0.00000,62,-4,44,2,73,28,45,0,ok,2,0,0.003,11,-0.1612,0.63,0.43,9.36,57,0.025,8.14
11.2281,-0.02967,-0.06458,0.35430,0.00000,0.00000,0.00000,61,-6,46,2,74,25,46,0,ok,2,0,0.003,11,-0.1650,0.63,0.43,9.36,57,0.038,8.14
11.2407,-0.02967,-0.06458,0.35430,0.00000,0.00000,0.00000,60,-8,47,2,76,21,47,0,ok,2,0,0.003,11,-0.1687,0.63,0.43,9.36,57,0.050,8.14
11.2633,-0.02967,-0.06458,0.35430,0.00000,0.00000,0.00000,58,-9,49,3,77,16,48,0,ok,2,0,0.003,11,-0.1725,0.63,0.43,9.36,57,0.063,8.14
11.2665,-0.02967,-0.06458,0.35430,0.00000,0.00000,0.00000,57,-10,50,3,79,13,49,0,ok,2,0,0.003,11,-0.1762,0.63,0.43,9.36,57,0.076,8.14
11.2791,-0.02967,-0.06458,0.35430,0.00000,0.00000,0.00000,54,-11,50,3,79,13,49,0,ok,2,0,0.003,11,-0.1800,0.63,0.43,9.36,57,0.089,8.14
11.2993,-0.02967,-0.06458,0.35430,0.00000,0.00000,0.00000,52,-12,51,5,79,10,50,0,ok,2,0,0.003,11,-0.1837,0.63,0.43,9.36,57,0.101,8.14
11.3041,-0.02967,-0.06458,0.35430,0.00000,0.00000,0.00000,50,-11,52,6,79,7,51,0,ok,2,0,0.003,11,-0.1875,0.63,0.43,9.36,57,0.114,8.14
11.3169,-0.02967,-0.06458,0.35430,0.00000,0.00000,0.00000,48,-11,53,5,78,4,53,0,ok,2,0,0.003,11,-0.1912,0.63,0.43,9.36,57,0.126,8.14
11.3393,-0.02967,-0.06458,0.35430,0.00000,0.00000,0.00000,47,-11,54,6,77,1,53,0,ok,2,0,0.003,11,-0.1950,0.63,0.43,9.36,57,0.139,8.14
11.3427,-0.02967,-0.06458,0.35430,0.00000,0.00000,0.00000,44,-11,54,7,77,-2,54,0,ok,2,0,0.003,11,-0.1987,0.63,0.43,9.36,57,0.152,8.14
11.3554,-0.02967,-0.06458,0.35430,0.00000,0.00000,0.00000,43,-11,56,7,76,-4,55,-1,ok,2,0,0.003,11,-0.2025,0.63,0.43,9.36,57,0.165,8.14
11.3753,-0.02967,-0.06458,0.35430,0.00000,0.00000,0.00000,40,-10,56,7,75,-5,56,0,ok,2,0,0.003,11,-0.2062,0.63,0.43,9.36,57,0.177,8.14
11.3802,-0.02967,-0.06458,0.35430,0.00000,0.00000,0.00000,38,-9,57,8,73,-8,56,-1,ok,2,0,0.003,11,-0.2100,0.63,0.43,9.36,57,0.190,8.14
11.3931,0.00524,-0.01222,0.38572,0.00000,0.00000,0.00000,37,-8,58,8,71,-8,57,0,ok,2,0,0.003,11,-0.2137,0.52,0.31,9.60,58,0.000,8.14
11.4153,0.00524,-0.01222,0.38572,0.00000,0.00000,0.00000,34,-6,58,8,69,-10,57,0,ok,2,0,0.003,11,-0.2175,0.52,0.31,9.60,58,0.012,8.14
11.4185,0.00524,-0.01222,0.38572,0.00000,0.00000,0.00000,31,-4,59,9,68,-11,59,0,ok,2,0,0.003,11,-0.2212,0.52,0.31,9.60,58,0.026,8.14
11.4312,0.00524,-0.01222,0.38572,0.00000,0.00000,0.00000,28,-2,60,11,66,-13,59,0,ok,2,0,0.003,11,-0.2250,0.52,0.31,9.60,58,0.038,8.14
11.4513,0.00524,-0.01222,0.38572,0.00000,0.00000,0.00000,27,-1,61,11,64,-13,60,0,ok,2,0,0.003,11,-0.2287,0.52,0.31,9.60,58,0.051,8.14
11.4562,0.00524,-0.01222,0.38572,0.00000,0.00000,0.00000,26,1,62,11,62,-14,63,-3,ok,2,0,0.003,11,-0.2325,0.52,0.31,9.60,58,0.063,8.14
11.4687,0.00524,-0.01222,0.38572,0.00000,0.00000,0.00000,25,3,62,12,59,-15,63,-2,ok,2,0,0.003,11,-0.2362,0.52,0.31,9.60,58,0.076,8.14
