# run_gait log  cmd_fwd=0.100 hz=80.0 fw_balance=off policy_yaw_sign=-1
t,roll,pitch,yaw,gx,gy,gz,j0,j1,j2,j3,j4,j5,j6,j7,guard_state,hottest_j,hottest_tier,hottest_frac,duty_s,steer_u,ax,ay,az,imu_n,imu_age_s,volt
0.0308,-0.01745,0.01396,0.00000,0.00000,0.00000,0.00000,21,-1,59,7,66,-12,61,0,ok,4,0,0.000,0,0.0000,0.16,-0.17,9.99,9,0.021,nan
0.0344,-0.01745,0.01396,0.00000,0.00000,0.00000,0.00000,19,0,61,8,64,-12,63,-1,ok,4,0,0.000,0,0.0000,0.16,-0.17,9.99,9,0.043,nan
0.0473,-0.01745,0.01396,0.00000,0.00000,0.00000,0.00000,17,2,61,9,61,-13,64,0,ok,4,0,0.000,0,0.0000,0.16,-0.17,9.99,9,0.055,8.44
0.0668,-0.01745,0.01396,0.00000,0.00000,0.00000,0.00000,15,6,62,9,59,-13,64,0,ok,4,0,0.000,0,0.0000,0.16,-0.17,9.99,9,0.068,8.44
0.0719,-0.01745,0.01396,0.00000,0.00000,0.00000,0.00000,13,9,62,11,56,-13,65,1,ok,4,0,0.000,0,0.0000,0.16,-0.17,9.99,9,0.080,8.44
0.0845,-0.01745,0.01396,0.00000,0.00000,0.00000,0.00000,11,11,63,11,53,-12,65,1,ok,4,0,0.000,0,0.0000,0.16,-0.17,9.99,9,0.093,8.44
0.1069,-0.01745,0.01396,0.00000,0.00000,0.00000,0.00000,13,12,63,12,51,-12,66,2,ok,4,0,0.000,0,0.0000,0.16,-0.17,9.99,9,0.105,8.44
0.1103,-0.01745,0.01396,0.00000,0.00000,0.00000,0.00000,13,11,63,13,48,-12,66,2,ok,4,0,0.000,0,0.0000,0.16,-0.17,9.99,9,0.119,8.44
0.1229,-0.01745,0.01396,0.00000,0.00000,0.00000,0.00000,14,10,64,14,45,-12,66,3,ok,4,0,0.000,0,0.0000,0.16,-0.17,9.99,9,0.131,8.44
0.1428,-0.01745,0.01396,0.00000,0.00000,0.00000,0.00000,15,9,64,15,42,-11,67,3,ok,4,0,0.000,0,0.0000,0.16,-0.17,9.99,9,0.144,8.44
0.1477,-0.01745,0.01396,0.00000,0.00000,0.00000,0.00000,16,9,65,15,39,-10,68,4,ok,4,0,0.000,0,0.0000,0.16,-0.17,9.99,9,0.156,8.44
0.1602,-0.01745,0.01396,0.00000,0.00000,0.00000,0.00000,18,8,65,16,36,-8,68,4,ok,4,0,0.000,0,0.0000,0.16,-0.17,9.99,9,0.169,8.44
0.1828,-0.01745,0.01396,0.00000,0.00000,0.00000,0.00000,18,7,65,17,34,-7,69,5,ok,4,0,0.000,0,0.0000,0.16,-0.17,9.99,9,0.181,8.44
0.1863,-0.02618,-0.10472,0.00000,0.00000,0.00000,0.00000,21,6,66,18,32,-6,69,6,ok,4,0,0.000,0,0.0000,-1.52,0.14,11.04,10,0.000,8.44
0.1987,-0.02618,-0.10472,0.00000,0.00000,0.00000,0.00000,22,5,67,19,30,-3,70,6,ok,4,0,0.000,0,0.0000,-1.52,0.14,11.04,10,0.013,8.44
0.2229,-0.02618,-0.10472,0.00000,0.00000,0.00000,0.00000,23,5,66,21,28,0,70,8,ok,4,0,0.000,0,0.0000,-1.52,0.14,11.04,10,0.025,8.44
0.2276,-0.02618,-0.10472,0.00000,0.00000,0.00000,0.00000,24,4,66,22,27,3,70,9,ok,4,0,0.000,0,0.0000,-1.52,0.14,11.04,10,0.040,8.44
0.2398,-0.02618,-0.10472,0.00000,0.00000,0.00000,0.00000,26,4,66,23,27,6,71,9,ok,4,0,0.000,0,0.0000,-1.52,0.14,11.04,10,0.053,8.44
0.2629,-0.02618,-0.10472,0.00000,0.00000,0.00000,0.00000,27,4,65,26,29,5,71,10,ok,4,0,0.000,0,0.0000,-1.52,0.14,11.04,10,0.065,8.44
0.2671,-0.02618,-0.10472,0.00000,0.00000,0.00000,0.00000,28,3,65,28,29,5,72,10,ok,4,0,0.000,0,0.0000,-1.52,0.14,11.04,10,0.080,8.44
0.2799,-0.02618,-0.10472,0.00000,0.00000,0.00000,0.00000,29,3,66,27,30,3,72,12,ok,4,0,0.000,0,0.0000,-1.52,0.14,11.04,10,0.093,8.44
0.3030,-0.02618,-0.10472,0.00000,0.00000,0.00000,0.00000,30,2,69,24,31,3,73,13,ok,4,0,0.000,0,0.0000,-1.52,0.14,11.04,10,0.105,8.44
0.3064,-0.02618,-0.10472,0.00000,0.00000,0.00000,0.00000,31,1,72,21,32,3,73,14,ok,4,0,0.000,0,0.0000,-1.52,0.14,11.04,10,0.120,8.44
0.3190,-0.02618,-0.10472,0.00000,0.00000,0.00000,0.00000,32,0,73,17,33,2,72,15,ok,4,0,0.000,0,0.0000,-1.52,0.14,11.04,10,0.133,8.44
0.3388,-0.02618,-0.10472,0.00000,0.00000,0.00000,0.00000,33,0,74,15,34,1,72,17,ok,4,0,0.000,0,0.0000,-1.52,0.14,11.04,10,0.145,8.44
0.3441,-0.02618,-0.10472,0.00000,0.00000,0.00000,0.00000,34,-1,73,15,37,1,73,19,ok,4,0,0.000,0,0.0000,-1.52,0.14,11.04,10,0.158,8.44
0.3565,-0.02618,-0.10472,0.00000,0.00000,0.00000,0.00000,36,-1,73,12,37,1,72,21,ok,4,0,0.000,0,0.0000,-1.52,0.14,11.04,10,0.170,8.44
0.3788,-0.02618,-0.10472,0.00000,0.00000,0.00000,0.00000,37,-1,73,9,38,1,72,22,ok,4,0,0.000,0,0.0000,-1.52,0.14,11.04,10,0.183,8.44
0.3825,-0.02618,-0.10472,0.00000,0.00000,0.00000,0.00000,38,-1,72,6,40,1,73,23,ok,4,0,0.000,0,0.0000,-1.52,0.14,11.04,10,0.196,8.44
0.3949,-0.11868,-0.06458,0.07505,0.00000,0.00000,0.00000,39,-2,72,4,40,1,72,25,ok,4,0,0.000,0,-0.0037,0.37,-2.29,12.58,11,0.000,8.44
0.4148,-0.11868,-0.06458,0.07505,0.00000,0.00000,0.00000,40,-2,71,2,42,0,72,27,ok,4,0,0.000,0,-0.0075,0.37,-2.29,12.58,11,0.013,8.44
0.4196,-0.11868,-0.06458,0.07505,0.00000,0.00000,0.00000,42,-2,69,0,43,-1,71,28,ok,4,0,0.000,0,-0.0112,0.37,-2.29,12.58,11,0.025,8.44
0.4322,-0.11868,-0.06458,0.07505,0.00000,0.00000,0.00000,42,-2,67,-2,44,-2,72,28,ok,4,0,0.000,0,-0.0150,0.37,-2.29,12.58,11,0.038,8.44
0.4548,-0.11868,-0.06458,0.07505,0.00000,0.00000,0.00000,44,-1,66,-4,46,-2,73,28,ok,4,0,0.000,0,-0.0187,0.37,-2.29,12.58,11,0.050,8.44
0.4581,-0.11868,-0.06458,0.07505,0.00000,0.00000,0.00000,45,-1,65,-6,47,-2,75,26,ok,4,0,0.000,0,-0.0225,0.37,-2.29,12.58,11,0.063,8.44
0.4706,-0.11868,-0.06458,0.07505,0.00000,0.00000,0.00000,47,0,63,-7,48,-2,77,20,ok,4,0,0.000,0,-0.0262,0.37,-2.29,12.58,11,0.076,8.44
0.4908,-0.11868,-0.06458,0.07505,0.00000,0.00000,0.00000,48,0,60,-8,49,-2,78,17,ok,4,0,0.000,0,-0.0300,0.37,-2.29,12.58,11,0.089,8.44
0.4957,-0.11868,-0.06458,0.07505,0.00000,0.00000,0.00000,49,0,58,-9,50,-1,79,14,ok,4,0,0.000,0,-0.0338,0.37,-2.29,12.58,11,0.101,8.44
0.5083,-0.11868,-0.06458,0.07505,0.00000,0.00000,0.00000,49,2,55,-10,52,-1,79,13,ok,4,0,0.000,0,-0.0375,0.37,-2.29,12.58,11,0.114,8.44
0.5308,-0.11868,-0.06458,0.07505,0.00000,0.00000,0.00000,51,4,52,-10,54,-1,79,10,ok,4,0,0.000,1,-0.0413,0.37,-2.29,12.58,11,0.126,8.44
0.5342,-0.11868,-0.06458,0.07505,0.00000,0.00000,0.00000,51,4,49,-10,55,-1,79,7,ok,4,0,0.000,1,-0.0450,0.37,-2.29,12.58,11,0.139,8.44
0.5467,-0.11868,-0.06458,0.07505,0.00000,0.00000,0.00000,53,5,46,-10,56,0,78,4,ok,4,0,0.000,1,-0.0488,0.37,-2.29,12.58,11,0.152,8.44
0.5668,-0.11868,-0.06458,0.07505,0.00000,0.00000,0.00000,53,6,44,-10,57,0,78,2,ok,4,0,0.000,1,-0.0525,0.37,-2.29,12.58,11,0.165,8.44
0.5717,-0.11868,-0.06458,0.07505,0.00000,0.00000,0.00000,55,6,41,-10,58,1,77,-1,ok,4,0,0.000,1,-0.0563,0.37,-2.29,12.58,11,0.177,8.44
0.5842,-0.11868,-0.06458,0.07505,0.00000,0.00000,0.00000,55,6,39,-9,59,0,77,-3,ok,4,0,0.000,1,-0.0600,0.37,-2.29,12.58,11,0.190,8.44
0.6068,-0.06807,0.00524,0.09948,0.00000,0.00000,0.00000,57,6,36,-8,59,1,76,-5,ok,4,0,0.000,1,-0.0638,0.20,-0.58,9.26,12,0.000,8.44
0.6100,-0.06807,0.00524,0.09948,0.00000,0.00000,0.00000,57,7,33,-7,60,1,74,-7,ok,4,0,0.000,1,-0.0675,0.20,-0.58,9.26,12,0.013,8.44
0.6227,-0.06807,0.00524,0.09948,0.00000,0.00000,0.00000,57,7,29,-6,60,1,71,-7,ok,2,0,0.000,1,-0.0713,0.20,-0.58,9.26,12,0.026,8.44
0.6428,-0.06807,0.00524,0.09948,0.00000,0.00000,0.00000,58,8,27,-4,61,1,70,-9,ok,2,0,0.000,1,-0.0750,0.20,-0.58,9.26,12,0.039,8.44
0.6476,-0.06807,0.00524,0.09948,0.00000,0.00000,0.00000,59,10,22,-2,62,0,69,-10,ok,2,0,0.000,1,-0.0788,0.20,-0.58,9.26,12,0.051,8.44
0.6602,-0.06807,0.00524,0.09948,0.00000,0.00000,0.00000,59,10,20,-1,64,-2,67,-12,ok,2,0,0.000,1,-0.0825,0.20,-0.58,9.26,12,0.064,8.44
0.6828,-0.06807,0.00524,0.09948,0.00000,0.00000,0.00000,60,10,19,0,65,-1,64,-13,ok,2,0,0.000,1,-0.0863,0.20,-0.58,9.26,12,0.076,8.44
0.6862,-0.06807,0.00524,0.09948,0.00000,0.00000,0.00000,61,11,17,3,66,0,63,-13,ok,2,0,0.000,1,-0.0900,0.20,-0.58,9.26,12,0.089,8.44
0.6987,-0.06807,0.00524,0.09948,0.00000,0.00000,0.00000,61,12,15,6,66,0,60,-14,ok,2,0,0.000,1,-0.0938,0.20,-0.58,9.26,12,0.102,8.44
0.7188,-0.06807,0.00524,0.09948,0.00000,0.00000,0.00000,61,13,13,10,67,0,58,-15,ok,2,0,0.000,1,-0.0975,0.20,-0.58,9.26,12,0.115,8.44
0.7236,-0.06807,0.00524,0.09948,0.00000,0.00000,0.00000,61,14,11,12,68,0,55,-13,ok,2,0,0.000,1,-0.1013,0.20,-0.58,9.26,12,0.127,8.44
0.7362,-0.06807,0.00524,0.09948,0.00000,0.00000,0.00000,62,15,13,13,68,1,53,-13,ok,2,0,0.000,1,-0.1050,0.20,-0.58,9.26,12,0.140,8.44
0.7588,-0.06807,0.00524,0.09948,0.00000,0.00000,0.00000,62,16,13,13,69,1,50,-12,ok,2,0,0.000,1,-0.1088,0.20,-0.58,9.26,12,0.152,8.44
0.7620,-0.06807,0.00524,0.09948,0.00000,0.00000,0.00000,62,16,14,11,69,1,47,-11,ok,2,0,0.000,1,-0.1125,0.20,-0.58,9.26,12,0.165,8.44
0.7748,-0.06807,0.00524,0.09948,0.00000,0.00000,0.00000,62,18,15,10,70,2,45,-10,ok,2,0,0.000,1,-0.1163,0.20,-0.58,9.26,12,0.178,8.44
0.7948,-0.06807,0.00524,0.09948,0.00000,0.00000,0.00000,63,18,16,10,70,2,41,-9,ok,2,0,0.000,1,-0.1200,0.20,-0.58,9.26,12,0.191,8.44
0.7999,-0.02618,0.01222,0.13439,0.00000,0.00000,0.00000,64,18,17,9,70,3,39,-9,ok,2,0,0.000,1,-0.1238,-0.26,-0.73,11.63,13,0.000,8.44
0.8122,-0.02618,0.01222,0.13439,0.00000,0.00000,0.00000,64,20,18,8,71,4,35,-7,ok,2,0,0.000,1,-0.1275,-0.26,-0.73,11.63,13,0.013,8.44
0.8348,-0.02618,0.01222,0.13439,0.00000,0.00000,0.00000,65,21,20,7,72,5,34,-5,ok,2,0,0.000,1,-0.1313,-0.26,-0.73,11.63,13,0.025,8.44
0.8381,-0.02618,0.01222,0.13439,0.00000,0.00000,0.00000,65,22,21,7,72,6,32,-4,ok,2,0,0.000,1,-0.1350,-0.26,-0.73,11.63,13,0.038,8.44
0.8508,-0.02618,0.01222,0.13439,0.00000,0.00000,0.00000,64,23,22,6,71,7,30,-1,ok,2,0,0.000,1,-0.1388,-0.26,-0.73,11.63,13,0.051,8.44
0.8708,-0.02618,0.01222,0.13439,0.00000,0.00000,0.00000,64,24,23,6,72,8,28,2,ok,2,0,0.000,1,-0.1425,-0.26,-0.73,11.63,13,0.064,8.44
0.8756,-0.02618,0.01222,0.13439,0.00000,0.00000,0.00000,64,25,25,5,72,9,27,5,ok,2,0,0.000,1,-0.1463,-0.26,-0.73,11.63,13,0.076,8.44
0.8882,-0.02618,0.01222,0.13439,0.00000,0.00000,0.00000,63,28,26,5,72,10,26,7,ok,2,0,0.000,1,-0.1500,-0.26,-0.73,11.63,13,0.089,8.44
0.9108,-0.02618,0.01222,0.13439,0.00000,0.00000,0.00000,62,29,27,3,72,12,29,6,ok,2,0,0.000,1,-0.1538,-0.26,-0.73,11.63,13,0.101,8.44
0.9140,-0.02618,0.01222,0.13439,0.00000,0.00000,0.00000,63,28,28,3,72,13,29,6,ok,2,0,0.000,1,-0.1575,-0.26,-0.73,11.63,13,0.114,8.44
0.9266,-0.02618,0.01222,0.13439,0.00000,0.00000,0.00000,65,25,30,3,72,14,30,4,ok,2,0,0.000,1,-0.1613,-0.26,-0.73,11.63,13,0.127,8.44
0.9468,-0.02618,0.01222,0.13439,0.00000,0.00000,0.00000,67,21,31,2,72,15,31,3,ok,2,0,0.000,1,-0.1650,-0.26,-0.73,11.63,13,0.140,8.44
0.9516,-0.02618,0.01222,0.13439,0.00000,0.00000,0.00000,67,17,33,2,71,17,33,3,ok,2,0,0.000,1,-0.1688,-0.26,-0.73,11.63,13,0.152,8.44
0.9642,-0.02618,0.01222,0.13439,0.00000,0.00000,0.00000,67,15,34,2,72,18,34,2,ok,2,0,0.000,1,-0.1725,-0.26,-0.73,11.63,13,0.165,8.44
0.9868,-0.02618,0.01222,0.13439,0.00000,0.00000,0.00000,67,14,35,1,71,21,36,1,ok,2,0,0.000,1,-0.1763,-0.26,-0.73,11.63,13,0.177,8.44
0.9902,-0.02618,0.01222,0.13439,0.00000,0.00000,0.00000,67,11,37,1,71,22,38,1,ok,2,0,0.000,1,-0.1800,-0.26,-0.73,11.63,13,0.190,8.44
1.0030,-0.03142,-0.01571,0.22340,0.00000,0.00000,0.00000,66,7,38,2,71,24,38,2,ok,2,0,0.000,1,-0.1838,-0.48,-0.42,11.36,14,0.000,8.44
1.0228,-0.03142,-0.01571,0.22340,0.00000,0.00000,0.00000,66,4,39,2,72,25,40,1,ok,2,0,0.000,1,-0.1875,-0.48,-0.42,11.36,14,0.013,8.44
1.0276,-0.03142,-0.01571,0.22340,0.00000,0.00000,0.00000,65,1,41,1,71,27,42,1,ok,2,0,0.000,1,-0.1913,-0.48,-0.42,11.36,14,0.025,8.44
1.0402,-0.03142,-0.01571,0.22340,0.00000,0.00000,0.00000,64,-1,42,1,71,28,42,1,ok,2,0,0.000,1,-0.1950,-0.48,-0.42,11.36,14,0.038,8.44
1.0628,-0.03142,-0.01571,0.22340,0.00000,0.00000,0.00000,63,-3,44,2,71,28,43,1,ok,2,0,0.000,1,-0.1988,-0.48,-0.42,11.36,14,0.050,8.44
1.0660,-0.03142,-0.01571,0.22340,0.00000,0.00000,0.00000,61,-4,44,2,72,28,45,0,ok,2,0,0.000,1,-0.2025,-0.48,-0.42,11.36,14,0.063,8.44
1.0786,-0.03142,-0.01571,0.22340,0.00000,0.00000,0.00000,60,-6,46,2,74,26,46,0,ok,2,0,0.000,1,-0.2063,-0.48,-0.42,11.36,14,0.076,8.44
1.0988,-0.03142,-0.01571,0.22340,0.00000,0.00000,0.00000,59,-8,47,2,76,21,47,0,ok,2,0,0.000,1,-0.2100,-0.48,-0.42,11.36,14,0.089,8.44
1.1037,-0.03142,-0.01571,0.22340,0.00000,0.00000,0.00000,58,-9,49,3,77,16,48,0,ok,2,0,0.000,1,-0.2138,-0.48,-0.42,11.36,14,0.101,8.44
1.1162,-0.03142,-0.01571,0.22340,0.00000,0.00000,0.00000,55,-10,50,3,79,14,49,0,ok,2,0,0.000,1,-0.2175,-0.48,-0.42,11.36,14,0.113,8.44
1.1388,-0.03142,-0.01571,0.22340,0.00000,0.00000,0.00000,54,-11,50,3,79,13,49,0,ok,2,0,0.000,1,-0.2213,-0.48,-0.42,11.36,14,0.126,8.44
1.1423,-0.03142,-0.01571,0.22340,0.00000,0.00000,0.00000,52,-12,50,5,79,11,51,0,ok,2,0,0.000,1,-0.2250,-0.48,-0.42,11.36,14,0.139,8.44
1.1546,-0.03142,-0.01571,0.22340,0.00000,0.00000,0.00000,50,-11,52,6,79,7,51,0,ok,2,0,0.000,1,-0.2288,-0.48,-0.42,11.36,14,0.152,8.44
1.1748,-0.03142,-0.01571,0.22340,0.00000,0.00000,0.00000,48,-11,53,5,78,4,53,0,ok,2,0,0.000,1,-0.2325,-0.48,-0.42,11.36,14,0.165,8.44
1.1797,-0.03142,-0.01571,0.22340,0.00000,0.00000,0.00000,46,-11,54,6,78,2,53,0,ok,2,0,0.000,1,-0.2363,-0.48,-0.42,11.36,14,0.177,8.44
1.1925,0.05934,-0.01920,0.23038,0.00000,0.00000,0.00000,45,-11,54,7,77,-2,54,1,ok,2,0,0.000,1,-0.2400,-0.15,0.31,9.90,15,0.000,8.44
1.2148,0.05934,-0.01920,0.23038,0.00000,0.00000,0.00000,42,-11,56,7,76,-4,55,-1,ok,2,0,0.000,1,-0.2438,-0.15,0.31,9.90,15,0.012,8.44
1.2181,0.05934,-0.01920,0.23038,0.00000,0.00000,0.00000,41,-10,56,7,75,-5,56,0,ok,2,0,0.000,1,-0.2475,-0.15,0.31,9.90,15,0.026,8.44
1.2306,0.05934,-0.01920,0.23038,0.00000,0.00000,0.00000,39,-9,58,7,74,-8,56,-1,ok,2,0,0.000,1,-0.2513,-0.15,0.31,9.90,15,0.039,8.44
1.2508,0.05934,-0.01920,0.23038,0.00000,0.00000,0.00000,37,-8,58,8,71,-7,57,0,ok,2,0,0.000,1,-0.2550,-0.15,0.31,9.90,15,0.051,8.44
1.2556,0.05934,-0.01920,0.23038,0.00000,0.00000,0.00000,34,-6,58,8,70,-10,57,0,ok,2,0,0.000,1,-0.2588,-0.15,0.31,9.90,15,0.063,8.44
1.2682,0.05934,-0.01920,0.23038,0.00000,0.00000,0.00000,32,-4,59,9,69,-11,59,0,ok,2,0,0.000,1,-0.2625,-0.15,0.31,9.90,15,0.076,8.44
1.2908,0.05934,-0.01920,0.23038,0.00000,0.00000,0.00000,29,-2,60,10,66,-13,59,0,ok,2,0,0.000,1,-0.2663,-0.15,0.31,9.90,15,0.089,8.44
1.2941,0.05934,-0.01920,0.23038,0.00000,0.00000,0.00000,28,-1,61,11,64,-13,60,0,ok,2,0,0.000,1,-0.2700,-0.15,0.31,9.90,15,0.102,8.44
1.3068,0.05934,-0.01920,0.23038,0.00000,0.00000,0.00000,27,1,62,11,62,-14,63,-3,ok,2,0,0.000,1,-0.2738,-0.15,0.31,9.90,15,0.114,8.44
1.3268,0.05934,-0.01920,0.23038,0.00000,0.00000,0.00000,26,3,62,12,59,-15,63,-2,ok,2,0,0.000,1,-0.2775,-0.15,0.31,9.90,15,0.127,8.44
1.3316,0.05934,-0.01920,0.23038,0.00000,0.00000,0.00000,24,7,63,13,58,-15,64,-2,ok,2,0,0.000,1,-0.2812,-0.15,0.31,9.90,15,0.139,8.44
1.3442,0.05934,-0.01920,0.23038,0.00000,0.00000,0.00000,23,10,63,14,55,-14,65,-1,ok,2,0,0.000,1,-0.2850,-0.15,0.31,9.90,15,0.152,8.44
1.3668,0.05934,-0.01920,0.23038,0.00000,0.00000,0.00000,22,12,64,15,52,-13,65,-1,ok,2,0,0.000,1,-0.2887,-0.15,0.31,9.90,15,0.164,8.44
1.3700,0.05934,-0.01920,0.23038,0.00000,0.00000,0.00000,24,13,64,16,50,-13,66,0,ok,2,0,0.000,1,-0.2925,-0.15,0.31,9.90,15,0.178,8.44
1.3827,0.05934,-0.01920,0.23038,0.00000,0.00000,0.00000,23,13,64,17,47,-12,67,-1,ok,2,0,0.000,1,-0.2962,-0.15,0.31,9.90,15,0.191,8.44
1.4028,0.05934,-0.01920,0.23038,0.00000,0.00000,0.00000,25,12,65,17,44,-12,68,0,ok,2,0,0.000,1,-0.3000,-0.15,0.31,9.90,15,0.203,8.44
1.4079,-0.02967,-0.02967,0.23562,0.00000,0.00000,0.00000,26,12,65,18,41,-10,69,0,ok,4,0,0.000,1,-0.3037,0.68,-0.40,9.73,16,0.000,8.44
1.4202,-0.02967,-0.02967,0.23562,0.00000,0.00000,0.00000,26,11,65,19,38,-10,69,2,ok,4,0,0.000,1,-0.3075,0.68,-0.40,9.73,16,0.013,8.44
1.4428,-0.02967,-0.02967,0.23562,0.00000,0.00000,0.00000,28,10,66,19,35,-8,69,2,ok,4,0,0.000,1,-0.3112,0.68,-0.40,9.73,16,0.025,8.44
1.4462,-0.02967,-0.02967,0.23562,0.00000,0.00000,0.00000,28,10,65,21,33,-7,70,3,ok,4,0,0.000,1,-0.3150,0.68,-0.40,9.73,16,0.038,8.44
1.4587,-0.02967,-0.02967,0.23562,0.00000,0.00000,0.00000,30,8,66,21,31,-6,71,5,ok,4,0,0.000,1,-0.3187,0.68,-0.40,9.73,16,0.051,8.44
1.4788,-0.02967,-0.02967,0.23562,0.00000,0.00000,0.00000,31,7,66,22,29,-2,72,5,ok,4,0,0.000,1,-0.3225,0.68,-0.40,9.73,16,0.063,8.44
1.4836,-0.02967,-0.02967,0.23562,0.00000,0.00000,0.00000,32,7,66,23,28,0,71,6,ok,4,0,0.000,1,-0.3262,0.68,-0.40,9.73,16,0.076,8.44
1.4964,-0.02967,-0.02967,0.23562,0.00000,0.00000,0.00000,33,6,66,24,27,3,71,7,ok,4,0,0.000,1,-0.3300,0.68,-0.40,9.73,16,0.088,8.44
1.5188,-0.02967,-0.02967,0.23562,0.00000,0.00000,0.00000,33,6,65,25,26,6,72,8,ok,4,0,0.000,1,-0.3337,0.68,-0.40,9.73,16,0.101,8.44
1.5220,-0.02967,-0.02967,0.23562,0.00000,0.00000,0.00000,35,5,64,28,28,5,72,9,ok,4,0,0.000,1,-0.3375,0.68,-0.40,9.73,16,0.114,8.44
1.5346,-0.02967,-0.02967,0.23562,0.00000,0.00000,0.00000,36,4,64,29,29,5,72,11,ok,4,0,0.000,1,-0.3412,0.68,-0.40,9.73,16,0.127,8.44
1.5548,-0.02967,-0.02967,0.23562,0.00000,0.00000,0.00000,36,4,65,28,30,3,72,12,ok,4,0,0.000,2,-0.3450,0.68,-0.40,9.73,16,0.139,8.44
1.5596,-0.02967,-0.02967,0.23562,0.00000,0.00000,0.00000,37,3,68,25,31,2,73,14,ok,4,0,0.000,2,-0.3487,0.68,-0.40,9.73,16,0.152,8.44
1.5721,-0.02967,-0.02967,0.23562,0.00000,0.00000,0.00000,38,3,70,21,32,2,73,15,ok,4,0,0.000,2,-0.3525,0.68,-0.40,9.73,16,0.164,8.44
1.5948,-0.02967,-0.02967,0.23562,0.00000,0.00000,0.00000,39,2,71,17,33,1,72,17,ok,4,0,0.000,2,-0.3562,0.68,-0.40,9.73,16,0.177,8.44
1.5984,-0.16755,-0.06458,0.27402,0.00000,0.00000,0.00000,40,2,72,15,34,0,72,19,ok,4,0,0.000,2,-0.3600,-0.08,-1.42,7.92,17,0.000,8.44
1.6107,-0.16755,-0.06458,0.27402,0.00000,0.00000,0.00000,41,1,72,15,37,0,73,20,ok,4,0,0.000,2,-0.3637,-0.08,-1.42,7.92,17,0.013,8.44
1.6308,-0.16755,-0.06458,0.27402,0.00000,0.00000,0.00000,42,1,72,11,37,0,72,23,ok,4,0,0.000,2,-0.3675,-0.08,-1.42,7.92,17,0.025,8.44
1.6357,-0.16755,-0.06458,0.27402,0.00000,0.00000,0.00000,43,0,71,8,39,0,72,24,ok,4,0,0.000,2,-0.3712,-0.08,-1.42,7.92,17,0.038,8.44
1.6483,-0.16755,-0.06458,0.27402,0.00000,0.00000,0.00000,44,0,70,6,40,0,72,25,ok,4,0,0.000,2,-0.3750,-0.08,-1.42,7.92,17,0.050,8.44
1.6708,-0.16755,-0.06458,0.27402,0.00000,0.00000,0.00000,45,0,70,3,41,0,72,26,ok,4,0,0.000,2,-0.3787,-0.08,-1.42,7.92,17,0.063,8.44
1.6740,-0.16755,-0.06458,0.27402,0.00000,0.00000,0.00000,46,0,69,1,42,0,72,28,ok,4,0,0.000,2,-0.3825,-0.08,-1.42,7.92,17,0.076,8.44
1.6866,-0.16755,-0.06458,0.27402,0.00000,0.00000,0.00000,46,0,68,0,44,0,71,29,ok,4,0,0.001,2,-0.3862,-0.08,-1.42,7.92,17,0.089,8.44
1.7068,-0.16755,-0.06458,0.27402,0.00000,0.00000,0.00000,46,0,66,-2,45,-1,72,29,ok,4,0,0.001,2,-0.3900,-0.08,-1.42,7.92,17,0.101,8.44
1.7118,-0.16755,-0.06458,0.27402,0.00000,0.00000,0.00000,48,0,65,-4,47,-1,73,28,ok,4,0,0.001,2,-0.3937,-0.08,-1.42,7.92,17,0.114,8.44
1.7242,-0.16755,-0.06458,0.27402,0.00000,0.00000,0.00000,48,0,64,-6,48,-1,75,26,ok,4,0,0.001,2,-0.3975,-0.08,-1.42,7.92,17,0.126,8.44
1.7468,-0.16755,-0.06458,0.27402,0.00000,0.00000,0.00000,49,2,62,-7,49,-1,77,20,ok,4,0,0.001,2,-0.4012,-0.08,-1.42,7.92,17,0.139,8.44
1.7500,-0.16755,-0.06458,0.27402,0.00000,0.00000,0.00000,50,1,59,-8,49,-1,78,17,ok,4,0,0.001,2,-0.4050,-0.08,-1.42,7.92,17,0.152,8.44
1.7626,-0.16755,-0.06458,0.27402,0.00000,0.00000,0.00000,50,2,57,-8,51,-1,79,14,ok,4,0,0.001,2,-0.4087,-0.08,-1.42,7.92,17,0.165,8.44
1.7828,-0.16755,-0.06458,0.27402,0.00000,0.00000,0.00000,50,4,54,-9,52,-1,80,13,ok,4,0,0.001,2,-0.4125,-0.08,-1.42,7.92,17,0.177,8.44
1.7878,-0.16755,-0.06458,0.27402,0.00000,0.00000,0.00000,51,5,52,-9,53,-1,80,10,ok,4,0,0.001,2,-0.4162,-0.08,-1.42,7.92,17,0.190,8.44
1.8002,-0.16755,-0.06458,0.27402,0.00000,0.00000,0.00000,51,4,49,-9,54,-1,80,7,ok,4,0,0.001,2,-0.4200,-0.08,-1.42,7.92,17,0.202,8.44
1.8228,-0.07854,-0.06632,0.29496,0.00000,0.00000,0.00000,52,5,46,-9,55,0,79,4,ok,2,0,0.001,2,-0.4237,-0.72,-1.15,9.58,18,0.000,8.44
1.8260,-0.07854,-0.06632,0.29496,0.00000,0.00000,0.00000,52,6,44,-9,56,0,79,2,ok,2,0,0.001,2,-0.4275,-0.72,-1.15,9.58,18,0.013,8.44
1.8388,-0.07854,-0.06632,0.29496,0.00000,0.00000,0.00000,53,6,42,-9,57,1,77,-2,ok,2,0,0.001,2,-0.4312,-0.72,-1.15,9.58,18,0.026,8.44
1.8588,-0.07854,-0.06632,0.29496,0.00000,0.00000,0.00000,53,6,39,-8,58,0,77,-4,ok,2,0,0.001,2,-0.4350,-0.72,-1.15,9.58,18,0.039,8.44
1.8636,-0.07854,-0.06632,0.29496,0.00000,0.00000,0.00000,54,7,36,-7,58,0,76,-5,ok,2,0,0.001,2,-0.4387,-0.72,-1.15,9.58,18,0.051,8.44
1.8762,-0.07854,-0.06632,0.29496,0.00000,0.00000,0.00000,54,8,33,-6,59,1,74,-7,ok,2,0,0.001,2,-0.4425,-0.72,-1.15,9.58,18,0.064,8.44
1.8988,-0.07854,-0.06632,0.29496,0.00000,0.00000,0.00000,54,8,29,-5,60,1,71,-7,ok,2,0,0.001,2,-0.4462,-0.72,-1.15,9.58,18,0.076,8.44
1.9020,-0.07854,-0.06632,0.29496,0.00000,0.00000,0.00000,55,9,26,-3,61,1,70,-9,ok,2,0,0.001,2,-0.4500,-0.72,-1.15,9.58,18,0.089,8.44
1.9147,-0.07854,-0.06632,0.29496,0.00000,0.00000,0.00000,56,10,22,-1,62,0,69,-11,ok,2,0,0.001,2,-0.4537,-0.72,-1.15,9.58,18,0.102,8.44
1.9348,-0.07854,-0.06632,0.29496,0.00000,0.00000,0.00000,56,10,20,0,64,-2,67,-12,ok,2,0,0.001,2,-0.4575,-0.72,-1.15,9.58,18,0.115,8.44
1.9396,-0.07854,-0.06632,0.29496,0.00000,0.00000,0.00000,56,11,18,1,64,-2,64,-13,ok,2,0,0.001,2,-0.4612,-0.72,-1.15,9.58,18,0.127,8.44
1.9522,-0.07854,-0.06632,0.29496,0.00000,0.00000,0.00000,56,12,16,3,65,-1,63,-14,ok,2,0,0.001,2,-0.4650,-0.72,-1.15,9.58,18,0.140,8.44
1.9748,-0.07854,-0.06632,0.29496,0.00000,0.00000,0.00000,57,12,15,7,66,-1,60,-14,ok,2,0,0.001,2,-0.4687,-0.72,-1.15,9.58,18,0.152,8.44
1.9782,-0.07854,-0.06632,0.29496,0.00000,0.00000,0.00000,57,14,13,10,66,0,58,-15,ok,2,0,0.001,2,-0.4725,-0.72,-1.15,9.58,18,0.165,8.44
1.9906,-0.07854,-0.06632,0.29496,0.00000,0.00000,0.00000,57,14,11,12,67,0,55,-13,ok,2,0,0.001,2,-0.4762,-0.72,-1.15,9.58,18,0.178,8.44
2.0108,-0.07854,-0.06632,0.29496,0.00000,0.00000,0.00000,57,15,13,13,67,0,52,-13,ok,2,0,0.001,2,-0.4800,-0.72,-1.15,9.58,18,0.191,8.44
2.0159,-0.07854,0.05411,0.25656,0.00000,0.00000,0.00000,57,16,13,13,68,0,50,-12,ok,2,0,0.001,2,-0.4837,1.18,-1.09,10.70,19,0.000,8.44
2.0283,-0.07854,0.05411,0.25656,0.00000,0.00000,0.00000,58,17,14,11,69,1,47,-11,ok,2,0,0.001,2,-0.4875,1.18,-1.09,10.70,19,0.013,8.44
2.0508,-0.07854,0.05411,0.25656,0.00000,0.00000,0.00000,58,18,15,11,69,2,45,-11,ok,2,0,0.001,2,-0.4912,1.18,-1.09,10.70,19,0.025,8.44
2.0540,-0.07854,0.05411,0.25656,0.00000,0.00000,0.00000,58,18,16,10,69,2,41,-9,ok,2,0,0.001,2,-0.4950,1.18,-1.09,10.70,19,0.038,8.44
2.0666,-0.07854,0.05411,0.25656,0.00000,0.00000,0.00000,58,18,17,9,70,3,39,-9,ok,2,0,0.001,2,-0.4987,1.18,-1.09,10.70,19,0.051,8.44
2.0868,-0.07854,0.05411,0.25656,0.00000,0.00000,0.00000,58,20,18,9,70,4,35,-7,ok,2,0,0.001,2,-0.5025,1.18,-1.09,10.70,19,0.064,8.44
2.0916,-0.07854,0.05411,0.25656,0.00000,0.00000,0.00000,58,21,20,8,71,5,34,-5,ok,2,0,0.001,2,-0.5039,1.18,-1.09,10.70,19,0.076,8.44
2.1044,-0.07854,0.05411,0.25656,0.00000,0.00000,0.00000,58,22,21,7,71,6,32,-4,ok,2,0,0.001,2,-0.5050,1.18,-1.09,10.70,19,0.089,8.44
2.1268,-0.07854,0.05411,0.25656,0.00000,0.00000,0.00000,58,23,22,6,71,7,29,-1,ok,2,0,0.001,2,-0.5061,1.18,-1.09,10.70,19,0.101,8.44
2.1300,-0.07854,0.05411,0.25656,0.00000,0.00000,0.00000,58,24,23,6,72,8,28,2,ok,2,0,0.001,2,-0.5072,1.18,-1.09,10.70,19,0.114,8.44
2.1426,-0.07854,0.05411,0.25656,0.00000,0.00000,0.00000,58,25,25,5,72,9,27,5,ok,2,0,0.001,2,-0.5083,1.18,-1.09,10.70,19,0.127,8.44
2.1628,-0.07854,0.05411,0.25656,0.00000,0.00000,0.00000,57,28,26,5,72,10,26,7,ok,2,0,0.001,2,-0.5094,1.18,-1.09,10.70,19,0.140,8.44
2.1676,-0.07854,0.05411,0.25656,0.00000,0.00000,0.00000,57,29,27,3,72,12,29,6,ok,2,0,0.001,2,-0.5104,1.18,-1.09,10.70,19,0.152,8.44
2.1804,-0.07854,0.05411,0.25656,0.00000,0.00000,0.00000,57,28,28,3,72,13,29,6,ok,2,0,0.001,2,-0.5115,1.18,-1.09,10.70,19,0.165,8.44
2.2028,-0.07854,0.05411,0.25656,0.00000,0.00000,0.00000,59,25,30,3,72,14,30,4,ok,2,0,0.001,2,-0.5126,1.18,-1.09,10.70,19,0.177,8.44
2.2061,-0.07854,0.05411,0.25656,0.00000,0.00000,0.00000,60,21,31,2,72,16,31,3,ok,2,0,0.001,2,-0.5137,1.18,-1.09,10.70,19,0.190,8.44
2.2189,-0.09599,-0.02967,0.30543,0.00000,0.00000,0.00000,60,17,33,2,72,18,33,3,ok,2,0,0.001,2,-0.5175,-0.16,-0.83,10.50,20,0.000,8.44
2.2388,-0.09599,-0.02967,0.30543,0.00000,0.00000,0.00000,60,15,34,2,72,18,34,2,ok,2,0,0.001,2,-0.5212,-0.16,-0.83,10.50,20,0.013,8.44
2.2436,-0.09599,-0.02967,0.30543,0.00000,0.00000,0.00000,60,14,35,1,71,20,36,1,ok,2,0,0.001,2,-0.5250,-0.16,-0.83,10.50,20,0.025,8.44
2.2563,-0.09599,-0.02967,0.30543,0.00000,0.00000,0.00000,60,11,37,1,71,21,38,1,ok,2,0,0.001,2,-0.5287,-0.16,-0.83,10.50,20,0.038,8.44
2.2788,-0.09599,-0.02967,0.30543,0.00000,0.00000,0.00000,59,7,38,2,72,23,38,2,ok,2,0,0.001,2,-0.5325,-0.16,-0.83,10.50,20,0.050,8.44
2.2820,-0.09599,-0.02967,0.30543,0.00000,0.00000,0.00000,59,4,39,2,72,25,40,1,ok,2,0,0.001,2,-0.5362,-0.16,-0.83,10.50,20,0.063,8.44
2.2947,-0.09599,-0.02967,0.30543,0.00000,0.00000,0.00000,59,1,41,2,71,27,41,1,ok,2,0,0.001,2,-0.5400,-0.16,-0.83,10.50,20,0.076,8.44
2.3148,-0.09599,-0.02967,0.30543,0.00000,0.00000,0.00000,58,-1,42,1,71,28,42,1,ok,2,0,0.001,2,-0.5437,-0.16,-0.83,10.50,20,0.089,8.44
2.3196,-0.09599,-0.02967,0.30543,0.00000,0.00000,0.00000,57,-3,44,2,71,28,43,1,ok,2,0,0.001,2,-0.5475,-0.16,-0.83,10.50,20,0.101,8.44
2.3322,-0.09599,-0.02967,0.30543,0.00000,0.00000,0.00000,56,-4,44,2,73,28,44,1,ok,2,0,0.001,2,-0.5512,-0.16,-0.83,10.50,20,0.114,8.44
2.3548,-0.09599,-0.02967,0.30543,0.00000,0.00000,0.00000,56,-6,46,2,74,25,46,0,ok,2,0,0.001,2,-0.5550,-0.16,-0.83,10.50,20,0.126,8.44
2.3581,-0.09599,-0.02967,0.30543,0.00000,0.00000,0.00000,55,-8,47,2,76,21,47,0,ok,2,0,0.001,2,-0.5587,-0.16,-0.83,10.50,20,0.139,8.44
2.3707,-0.09599,-0.02967,0.30543,0.00000,0.00000,0.00000,54,-9,49,3,77,16,48,0,ok,2,0,0.001,2,-0.5625,-0.16,-0.83,10.50,20,0.152,8.44
2.3908,-0.09599,-0.02967,0.30543,0.00000,0.00000,0.00000,53,-10,50,3,79,13,48,0,ok,2,0,0.001,2,-0.5662,-0.16,-0.83,10.50,20,0.165,8.44
2.3958,-0.09599,-0.02967,0.30543,0.00000,0.00000,0.00000,52,-11,50,3,79,13,49,0,ok,2,0,0.001,2,-0.5700,-0.16,-0.83,10.50,20,0.177,8.44
2.4082,-0.09599,-0.02967,0.30543,0.00000,0.00000,0.00000,51,-12,51,5,79,10,50,0,ok,2,0,0.001,2,-0.5737,-0.16,-0.83,10.50,20,0.190,8.44
2.4308,0.00524,-0.02094,0.29496,0.00000,0.00000,0.00000,50,-12,52,6,79,7,51,0,ok,2,0,0.001,2,-0.5775,-0.36,0.03,9.39,21,0.000,8.44
2.4341,0.00524,-0.02094,0.29496,0.00000,0.00000,0.00000,49,-12,53,5,78,4,52,0,ok,2,0,0.001,2,-0.5812,-0.36,0.03,9.39,21,0.013,8.44
2.4469,0.00524,-0.02094,0.29496,0.00000,0.00000,0.00000,48,-11,54,6,78,2,53,0,ok,2,0,0.001,2,-0.5850,-0.36,0.03,9.39,21,0.026,8.44
2.4668,0.00524,-0.02094,0.29496,0.00000,0.00000,0.00000,47,-11,54,7,77,-1,54,0,ok,2,0,0.001,2,-0.5887,-0.36,0.03,9.39,21,0.039,8.44
2.4717,0.00524,-0.02094,0.29496,0.00000,0.00000,0.00000,46,-11,56,7,76,-4,54,-1,ok,2,0,0.001,2,-0.5925,-0.36,0.03,9.39,21,0.051,8.44
2.4845,0.00524,-0.02094,0.29496,0.00000,0.00000,0.00000,45,-10,56,7,75,-5,56,0,ok,2,0,0.001,2,-0.5962,-0.36,0.03,9.39,21,0.064,8.44
2.5068,0.00524,-0.02094,0.29496,0.00000,0.00000,0.00000,44,-9,57,7,74,-8,56,-1,ok,2,0,0.001,2,-0.6000,-0.36,0.03,9.39,21,0.076,8.44
2.5101,0.00524,-0.02094,0.29496,0.00000,0.00000,0.00000,43,-8,58,8,71,-8,57,0,ok,2,0,0.001,2,-0.6000,-0.36,0.03,9.39,21,0.089,8.44
2.5226,0.00524,-0.02094,0.29496,0.00000,0.00000,0.00000,42,-6,58,8,70,-10,57,0,ok,2,0,0.001,2,-0.6000,-0.36,0.03,9.39,21,0.102,8.44
2.5428,0.00524,-0.02094,0.29496,0.00000,0.00000,0.00000,40,-4,59,9,68,-12,59,0,ok,2,0,0.001,2,-0.6000,-0.36,0.03,9.39,21,0.114,8.44
2.5478,0.00524,-0.02094,0.29496,0.00000,0.00000,0.00000,39,-2,60,11,66,-13,59,0,ok,2,0,0.001,3,-0.6000,-0.36,0.03,9.39,21,0.127,8.44
2.5602,0.00524,-0.02094,0.29496,0.00000,0.00000,0.00000,38,-1,61,11,64,-13,60,0,ok,2,0,0.001,3,-0.6000,-0.36,0.03,9.39,21,0.139,8.44
2.5828,0.00524,-0.02094,0.29496,0.00000,0.00000,0.00000,38,1,62,11,62,-14,63,-3,ok,2,0,0.001,3,-0.6000,-0.36,0.03,9.39,21,0.152,8.44
2.5860,0.00524,-0.02094,0.29496,0.00000,0.00000,0.00000,37,3,62,12,59,-14,63,-2,ok,2,0,0.001,3,-0.6000,-0.36,0.03,9.39,21,0.165,8.44
2.5988,0.00524,-0.02094,0.29496,0.00000,0.00000,0.00000,36,6,63,13,58,-15,64,-2,ok,2,0,0.001,3,-0.6000,-0.36,0.03,9.39,21,0.178,8.44
2.6188,0.00524,-0.02094,0.29496,0.00000,0.00000,0.00000,35,10,63,14,55,-14,65,-1,ok,2,0,0.001,3,-0.6000,-0.36,0.03,9.39,21,0.190,8.44
2.6239,0.00524,-0.02094,0.29496,0.00000,0.00000,0.00000,34,12,64,15,52,-13,65,-1,ok,2,0,0.001,3,-0.6000,-0.36,0.03,9.39,21,0.203,8.44
2.6365,-0.01571,-0.03491,0.29671,0.00000,0.00000,0.00000,35,13,64,16,50,-13,66,0,ok,2,0,0.001,3,-0.5962,-0.42,-0.37,9.78,22,0.000,8.44
2.6588,-0.01571,-0.03491,0.29671,0.00000,0.00000,0.00000,35,13,64,17,47,-12,67,-1,ok,2,0,0.001,3,-0.5925,-0.42,-0.37,9.78,22,0.013,8.44
2.6620,-0.01571,-0.03491,0.29671,0.00000,0.00000,0.00000,35,12,65,17,44,-12,68,0,ok,2,0,0.001,3,-0.5926,-0.42,-0.37,9.78,22,0.026,8.44
2.6748,-0.01571,-0.03491,0.29671,0.00000,0.00000,0.00000,36,11,65,18,41,-11,68,0,ok,2,0,0.001,3,-0.5940,-0.42,-0.37,9.78,22,0.038,8.44
2.6948,-0.01571,-0.03491,0.29671,0.00000,0.00000,0.00000,36,11,65,19,38,-10,69,2,ok,2,0,0.001,3,-0.5953,-0.42,-0.37,9.78,22,0.051,8.44
2.6996,-0.01571,-0.03491,0.29671,0.00000,0.00000,0.00000,37,10,66,19,35,-8,69,2,ok,2,0,0.001,3,-0.5967,-0.42,-0.37,9.78,22,0.063,8.44
2.7122,-0.01571,-0.03491,0.29671,0.00000,0.00000,0.00000,37,10,66,21,33,-7,70,3,ok,2,0,0.001,3,-0.5981,-0.42,-0.37,9.78,22,0.076,8.44
2.7348,-0.01571,-0.03491,0.29671,0.00000,0.00000,0.00000,38,8,66,21,31,-6,70,4,ok,2,0,0.001,3,-0.5995,-0.42,-0.37,9.78,22,0.088,8.44
2.7383,-0.01571,-0.03491,0.29671,0.00000,0.00000,0.00000,39,7,66,22,29,-2,71,5,ok,2,0,0.001,3,-0.6000,-0.42,-0.37,9.78,22,0.102,8.44
2.7507,-0.01571,-0.03491,0.29671,0.00000,0.00000,0.00000,39,7,66,23,28,0,71,6,ok,2,0,0.001,3,-0.6000,-0.42,-0.37,9.78,22,0.115,8.44
2.7708,-0.01571,-0.03491,0.29671,0.00000,0.00000,0.00000,40,6,66,24,27,3,71,7,ok,2,0,0.001,3,-0.6000,-0.42,-0.37,9.78,22,0.127,8.44
2.7756,-0.01571,-0.03491,0.29671,0.00000,0.00000,0.00000,40,6,65,25,26,6,72,8,ok,2,0,0.001,3,-0.6000,-0.42,-0.37,9.78,22,0.139,8.44
2.7882,-0.01571,-0.03491,0.29671,0.00000,0.00000,0.00000,41,5,64,28,28,5,72,9,ok,2,0,0.001,3,-0.6000,-0.42,-0.37,9.78,22,0.152,8.44
2.8108,-0.01571,-0.03491,0.29671,0.00000,0.00000,0.00000,41,4,64,29,29,5,72,11,ok,2,0,0.001,3,-0.6000,-0.42,-0.37,9.78,22,0.165,8.44
2.8142,-0.01571,-0.03491,0.29671,0.00000,0.00000,0.00000,42,4,65,28,30,3,72,12,ok,2,0,0.001,3,-0.6000,-0.42,-0.37,9.78,22,0.178,8.44
2.8267,-0.01571,-0.03491,0.29671,0.00000,0.00000,0.00000,42,3,68,25,31,2,73,14,ok,2,0,0.001,3,-0.6000,-0.42,-0.37,9.78,22,0.190,8.44
2.8468,-0.13439,-0.08727,0.33510,0.00000,0.00000,0.00000,42,3,70,21,32,2,73,15,ok,2,0,0.001,3,-0.6000,-1.44,-1.17,8.92,23,0.000,8.44
2.8516,-0.13439,-0.08727,0.33510,0.00000,0.00000,0.00000,43,2,71,17,33,1,72,17,ok,2,0,0.001,3,-0.6000,-1.44,-1.17,8.92,23,0.013,8.44
2.8643,-0.13439,-0.08727,0.33510,0.00000,0.00000,0.00000,44,2,72,15,34,0,72,20,ok,2,0,0.001,3,-0.6000,-1.44,-1.17,8.92,23,0.025,8.44
2.8868,-0.13439,-0.08727,0.33510,0.00000,0.00000,0.00000,44,1,72,15,37,0,73,20,ok,2,0,0.001,3,-0.6000,-1.44,-1.17,8.92,23,0.038,8.44
2.8900,-0.13439,-0.08727,0.33510,0.00000,0.00000,0.00000,45,1,72,11,37,0,72,22,ok,2,0,0.001,3,-0.6000,-1.44,-1.17,8.92,23,0.051,8.44
2.9027,-0.13439,-0.08727,0.33510,0.00000,0.00000,0.00000,46,1,71,8,39,1,72,23,ok,2,0,0.001,3,-0.6000,-1.44,-1.17,8.92,23,0.064,8.44
2.9228,-0.13439,-0.08727,0.33510,0.00000,0.00000,0.00000,46,1,71,6,40,0,72,24,ok,2,0,0.001,3,-0.6000,-1.44,-1.17,8.92,23,0.076,8.44
2.9279,-0.13439,-0.08727,0.33510,0.00000,0.00000,0.00000,47,0,70,3,41,0,72,26,ok,2,0,0.001,3,-0.6000,-1.44,-1.17,8.92,23,0.089,8.44
2.9403,-0.13439,-0.08727,0.33510,0.00000,0.00000,0.00000,47,0,69,1,42,0,72,28,ok,2,0,0.001,3,-0.6000,-1.44,-1.17,8.92,23,0.101,8.44
2.9628,-0.13439,-0.08727,0.33510,0.00000,0.00000,0.00000,48,0,68,0,44,0,71,29,ok,2,0,0.001,3,-0.6000,-1.44,-1.17,8.92,23,0.114,8.44
2.9662,-0.13439,-0.08727,0.33510,0.00000,0.00000,0.00000,48,0,66,-2,45,-1,72,29,ok,2,0,0.001,3,-0.6000,-1.44,-1.17,8.92,23,0.127,8.44
2.9787,-0.13439,-0.08727,0.33510,0.00000,0.00000,0.00000,48,0,65,-4,46,-1,73,28,ok,2,0,0.001,3,-0.6000,-1.44,-1.17,8.92,23,0.140,8.44
2.9988,-0.13439,-0.08727,0.33510,0.00000,0.00000,0.00000,49,0,64,-6,48,-1,75,26,ok,2,0,0.001,3,-0.6000,-1.44,-1.17,8.92,23,0.152,8.44
3.0037,-0.13439,-0.08727,0.33510,0.00000,0.00000,0.00000,50,2,62,-7,48,-1,77,20,ok,2,0,0.001,3,-0.6000,-1.44,-1.17,8.92,23,0.165,8.44
3.0162,-0.13439,-0.08727,0.33510,0.00000,0.00000,0.00000,50,1,59,-8,49,-1,78,17,ok,2,0,0.001,3,-0.6000,-1.44,-1.17,8.92,23,0.177,8.44
3.0388,-0.13439,-0.08727,0.33510,0.00000,0.00000,0.00000,50,1,57,-8,51,-1,80,13,ok,2,0,0.001,3,-0.6000,-1.44,-1.17,8.92,23,0.190,8.44
3.0423,-0.14661,-0.00175,0.32987,0.00000,0.00000,0.00000,50,4,54,-9,52,-1,80,13,ok,2,0,0.001,3,-0.6000,0.09,-1.53,10.56,24,0.000,8.44
3.0548,-0.14661,-0.00175,0.32987,0.00000,0.00000,0.00000,50,5,52,-9,53,-1,80,10,ok,2,0,0.001,3,-0.6000,0.09,-1.53,10.56,24,0.013,8.44
3.0748,-0.14661,-0.00175,0.32987,0.00000,0.00000,0.00000,51,4,49,-9,54,-1,80,7,ok,2,0,0.001,3,-0.6000,0.09,-1.53,10.56,24,0.025,8.44
3.0796,-0.14661,-0.00175,0.32987,0.00000,0.00000,0.00000,51,5,46,-9,55,0,79,4,ok,2,0,0.001,3,-0.6000,0.09,-1.53,10.56,24,0.038,8.44
3.0924,-0.14661,-0.00175,0.32987,0.00000,0.00000,0.00000,51,6,43,-9,56,0,78,2,ok,2,0,0.001,3,-0.6000,0.09,-1.53,10.56,24,0.050,8.44
3.1148,-0.14661,-0.00175,0.32987,0.00000,0.00000,0.00000,52,6,41,-9,57,1,77,-2,ok,2,0,0.001,3,-0.6000,0.09,-1.53,10.56,24,0.063,8.44
3.1180,-0.14661,-0.00175,0.32987,0.00000,0.00000,0.00000,52,6,39,-8,58,0,77,-3,ok,2,0,0.001,3,-0.6000,0.09,-1.53,10.56,24,0.076,8.44
3.1307,-0.14661,-0.00175,0.32987,0.00000,0.00000,0.00000,53,7,36,-7,58,0,76,-5,ok,2,0,0.001,3,-0.6000,0.09,-1.53,10.56,24,0.089,8.44
3.1508,-0.14661,-0.00175,0.32987,0.00000,0.00000,0.00000,53,8,33,-6,59,1,74,-7,ok,2,0,0.001,3,-0.6000,0.09,-1.53,10.56,24,0.101,8.44
3.1556,-0.14661,-0.00175,0.32987,0.00000,0.00000,0.00000,53,8,29,-5,60,1,71,-7,ok,2,0,0.001,3,-0.6000,0.09,-1.53,10.56,24,0.114,8.44
3.1682,-0.14661,-0.00175,0.32987,0.00000,0.00000,0.00000,54,9,26,-3,61,1,70,-9,ok,2,0,0.001,3,-0.6000,0.09,-1.53,10.56,24,0.126,8.44
3.1908,-0.14661,-0.00175,0.32987,0.00000,0.00000,0.00000,54,10,22,-1,62,0,69,-11,ok,2,0,0.001,3,-0.6000,0.09,-1.53,10.56,24,0.139,8.44
3.1940,-0.14661,-0.00175,0.32987,0.00000,0.00000,0.00000,54,10,20,0,64,-2,67,-12,ok,2,0,0.001,3,-0.6000,0.09,-1.53,10.56,24,0.152,8.44
3.2066,-0.14661,-0.00175,0.32987,0.00000,0.00000,0.00000,55,11,18,1,65,-1,64,-13,ok,2,0,0.001,3,-0.6000,0.09,-1.53,10.56,24,0.165,8.44
3.2268,-0.14661,-0.00175,0.32987,0.00000,0.00000,0.00000,55,11,16,3,66,0,63,-13,ok,2,0,0.001,3,-0.6000,0.09,-1.53,10.56,24,0.177,8.44
3.2316,-0.14661,-0.00175,0.32987,0.00000,0.00000,0.00000,55,12,15,7,66,-1,60,-14,ok,2,0,0.001,3,-0.6000,0.09,-1.53,10.56,24,0.190,8.44
3.2445,-0.03840,-0.00349,0.27751,0.00000,0.00000,0.00000,55,13,13,10,67,0,58,-14,ok,2,0,0.001,3,-0.5962,0.13,-0.16,10.46,25,0.000,8.44
3.2668,-0.03840,-0.00349,0.27751,0.00000,0.00000,0.00000,55,14,11,12,67,0,55,-13,ok,2,0,0.001,3,-0.5925,0.13,-0.16,10.46,25,0.013,8.44
3.2700,-0.03840,-0.00349,0.27751,0.00000,0.00000,0.00000,55,15,13,13,68,0,53,-13,ok,2,0,0.001,3,-0.5887,0.13,-0.16,10.46,25,0.026,8.44
3.2826,-0.03840,-0.00349,0.27751,0.00000,0.00000,0.00000,56,16,13,12,68,1,50,-12,ok,2,0,0.001,3,-0.5850,0.13,-0.16,10.46,25,0.038,8.44
3.3028,-0.03840,-0.00349,0.27751,0.00000,0.00000,0.00000,56,17,14,11,69,1,47,-11,ok,2,0,0.001,3,-0.5812,0.13,-0.16,10.46,25,0.051,8.44
3.3076,-0.03840,-0.00349,0.27751,0.00000,0.00000,0.00000,56,18,15,10,69,2,45,-11,ok,2,0,0.001,3,-0.5775,0.13,-0.16,10.46,25,0.063,8.44
3.3201,-0.03840,-0.00349,0.27751,0.00000,0.00000,0.00000,56,18,16,10,69,2,41,-9,ok,2,0,0.001,3,-0.5737,0.13,-0.16,10.46,25,0.076,8.44
3.3428,-0.03840,-0.00349,0.27751,0.00000,0.00000,0.00000,57,18,17,9,70,3,39,-9,ok,2,0,0.001,3,-0.5700,0.13,-0.16,10.46,25,0.088,8.44
3.3460,-0.03840,-0.00349,0.27751,0.00000,0.00000,0.00000,57,20,18,8,70,4,35,-7,ok,2,0,0.001,3,-0.5662,0.13,-0.16,10.46,25,0.102,8.44
3.3587,-0.03840,-0.00349,0.27751,0.00000,0.00000,0.00000,57,21,20,7,71,4,34,-5,ok,2,0,0.001,3,-0.5625,0.13,-0.16,10.46,25,0.115,8.44
3.3788,-0.03840,-0.00349,0.27751,0.00000,0.00000,0.00000,58,22,21,6,71,6,32,-4,ok,2,0,0.001,3,-0.5587,0.13,-0.16,10.46,25,0.127,8.44
3.3836,-0.03840,-0.00349,0.27751,0.00000,0.00000,0.00000,58,23,22,6,71,7,30,-1,ok,2,0,0.001,3,-0.5550,0.13,-0.16,10.46,25,0.139,8.44
3.3962,-0.03840,-0.00349,0.27751,0.00000,0.00000,0.00000,58,24,23,6,71,8,28,2,ok,2,0,0.001,3,-0.5512,0.13,-0.16,10.46,25,0.152,8.44
3.4188,-0.03840,-0.00349,0.27751,0.00000,0.00000,0.00000,57,25,25,5,72,9,27,5,ok,2,0,0.001,3,-0.5475,0.13,-0.16,10.46,25,0.164,8.44
3.4221,-0.03840,-0.00349,0.27751,0.00000,0.00000,0.00000,57,28,26,5,72,10,27,7,ok,2,0,0.001,3,-0.5437,0.13,-0.16,10.46,25,0.178,8.44
3.4346,-0.03840,-0.00349,0.27751,0.00000,0.00000,0.00000,56,29,27,4,71,11,29,6,ok,2,0,0.001,3,-0.5400,0.13,-0.16,10.46,25,0.190,8.44
3.4548,-0.12915,0.03491,0.29845,0.00000,0.00000,0.00000,57,28,28,3,72,13,29,5,ok,2,0,0.001,3,-0.5362,0.97,-3.10,11.18,26,0.000,8.44
3.4596,-0.12915,0.03491,0.29845,0.00000,0.00000,0.00000,58,25,30,3,72,14,30,4,ok,2,0,0.001,3,-0.5325,0.97,-3.10,11.18,26,0.013,8.44
3.4721,-0.12915,0.03491,0.29845,0.00000,0.00000,0.00000,59,21,31,2,72,15,31,3,ok,2,0,0.001,3,-0.5287,0.97,-3.10,11.18,26,0.025,8.44
3.4948,-0.12915,0.03491,0.29845,0.00000,0.00000,0.00000,60,17,32,2,71,17,33,3,ok,2,0,0.001,3,-0.5250,0.97,-3.10,11.18,26,0.037,8.44
3.4980,-0.12915,0.03491,0.29845,0.00000,0.00000,0.00000,61,15,34,2,72,18,34,2,ok,2,0,0.001,3,-0.5212,0.97,-3.10,11.18,26,0.051,8.44
3.5106,-0.12915,0.03491,0.29845,0.00000,0.00000,0.00000,60,14,35,1,71,20,36,1,ok,2,0,0.001,3,-0.5175,0.97,-3.10,11.18,26,0.064,8.44
3.5308,-0.12915,0.03491,0.29845,0.00000,0.00000,0.00000,60,11,36,1,71,21,38,1,ok,2,0,0.001,3,-0.5168,0.97,-3.10,11.18,26,0.076,8.44
3.5356,-0.12915,0.03491,0.29845,0.00000,0.00000,0.00000,60,7,38,2,71,23,38,2,ok,2,0,0.001,3,-0.5182,0.97,-3.10,11.18,26,0.089,8.44
3.5482,-0.12915,0.03491,0.29845,0.00000,0.00000,0.00000,59,4,39,2,72,25,40,1,ok,2,0,0.001,3,-0.5196,0.97,-3.10,11.18,26,0.101,8.44
3.5708,-0.12915,0.03491,0.29845,0.00000,0.00000,0.00000,59,1,41,2,71,27,41,2,ok,2,0,0.001,4,-0.5210,0.97,-3.10,11.18,26,0.114,8.44
3.5740,-0.12915,0.03491,0.29845,0.00000,0.00000,0.00000,58,-1,42,1,71,28,42,2,ok,2,0,0.001,4,-0.5223,0.97,-3.10,11.18,26,0.127,8.44
3.5866,-0.12915,0.03491,0.29845,0.00000,0.00000,0.00000,58,-3,44,2,71,28,43,1,ok,2,0,0.001,4,-0.5237,0.97,-3.10,11.18,26,0.139,8.44
3.6068,-0.12915,0.03491,0.29845,0.00000,0.00000,0.00000,57,-4,44,1,73,28,44,1,ok,2,0,0.001,4,-0.5251,0.97,-3.10,11.18,26,0.152,8.44
3.6118,-0.12915,0.03491,0.29845,0.00000,0.00000,0.00000,56,-6,45,2,74,26,45,0,ok,2,0,0.001,4,-0.5265,0.97,-3.10,11.18,26,0.164,8.44
3.6242,-0.12915,0.03491,0.29845,0.00000,0.00000,0.00000,56,-8,47,2,76,21,47,0,ok,2,0,0.001,4,-0.5279,0.97,-3.10,11.18,26,0.177,8.44
3.6468,-0.12915,0.03491,0.29845,0.00000,0.00000,0.00000,55,-9,48,3,78,16,48,0,ok,2,0,0.001,4,-0.5293,0.97,-3.10,11.18,26,0.190,8.44
3.6501,-0.12915,0.03491,0.29845,0.00000,0.00000,0.00000,53,-10,49,3,79,14,48,0,ok,2,0,0.001,4,-0.5307,0.97,-3.10,11.18,26,0.203,8.44
3.6629,-0.01920,-0.05061,0.30194,0.00000,0.00000,0.00000,52,-11,50,3,79,13,49,1,ok,2,0,0.001,4,-0.5344,1.58,0.08,11.82,27,0.000,8.44
3.6828,-0.01920,-0.05061,0.30194,0.00000,0.00000,0.00000,51,-12,50,5,79,11,50,0,ok,2,0,0.001,4,-0.5382,1.58,0.08,11.82,27,0.013,8.44
3.6878,-0.01920,-0.05061,0.30194,0.00000,0.00000,0.00000,50,-12,52,6,79,7,51,0,ok,2,0,0.001,4,-0.5419,1.58,0.08,11.82,27,0.025,8.44
3.7002,-0.01920,-0.05061,0.30194,0.00000,0.00000,0.00000,49,-12,53,5,79,4,53,0,ok,2,0,0.001,4,-0.5457,1.58,0.08,11.82,27,0.038,8.44
3.7228,-0.01920,-0.05061,0.30194,0.00000,0.00000,0.00000,48,-11,54,6,78,2,53,0,ok,2,0,0.001,4,-0.5494,1.58,0.08,11.82,27,0.050,8.44
3.7262,-0.01920,-0.05061,0.30194,0.00000,0.00000,0.00000,46,-11,54,7,77,-2,54,0,ok,2,0,0.001,4,-0.5526,1.58,0.08,11.82,27,0.063,8.44
3.7386,-0.01920,-0.05061,0.30194,0.00000,0.00000,0.00000,46,-11,56,7,76,-4,54,-1,ok,2,0,0.001,4,-0.5540,1.58,0.08,11.82,27,0.076,8.44
3.7588,-0.01920,-0.05061,0.30194,0.00000,0.00000,0.00000,45,-10,56,7,75,-5,55,0,ok,2,0,0.001,4,-0.5554,1.58,0.08,11.82,27,0.089,8.44
3.7636,-0.01920,-0.05061,0.30194,0.00000,0.00000,0.00000,43,-9,57,7,74,-8,56,-1,ok,2,0,0.001,4,-0.5569,1.58,0.08,11.82,27,0.101,8.44
3.7762,-0.01920,-0.05061,0.30194,0.00000,0.00000,0.00000,42,-8,58,8,71,-8,57,0,ok,2,0,0.001,4,-0.5583,1.58,0.08,11.82,27,0.114,8.44
3.7988,-0.01920,-0.05061,0.30194,0.00000,0.00000,0.00000,41,-6,58,8,70,-10,57,0,ok,2,0,0.001,4,-0.5597,1.58,0.08,11.82,27,0.126,8.44
3.8021,-0.01920,-0.05061,0.30194,0.00000,0.00000,0.00000,39,-4,59,9,68,-12,59,0,ok,2,0,0.001,4,-0.5611,1.58,0.08,11.82,27,0.139,8.44
3.8146,-0.01920,-0.05061,0.30194,0.00000,0.00000,0.00000,38,-2,60,11,66,-13,59,0,ok,2,0,0.001,4,-0.5625,1.58,0.08,11.82,27,0.152,8.44
3.8348,-0.01920,-0.05061,0.30194,0.00000,0.00000,0.00000,37,-1,61,11,64,-14,60,0,ok,2,0,0.001,4,-0.5639,1.58,0.08,11.82,27,0.165,8.44
3.8396,-0.01920,-0.05061,0.30194,0.00000,0.00000,0.00000,37,0,62,11,62,-14,63,-3,ok,2,0,0.001,4,-0.5653,1.58,0.08,11.82,27,0.177,8.44
3.8525,-0.01920,-0.05061,0.30194,0.00000,0.00000,0.00000,36,3,63,12,59,-15,63,-2,ok,2,0,0.001,4,-0.5667,1.58,0.08,11.82,27,0.190,8.44
3.8748,0.02793,-0.02618,0.32114,0.00000,0.00000,0.00000,35,6,63,13,58,-15,64,-2,ok,2,0,0.001,4,-0.5705,-0.50,0.65,10.89,28,0.000,8.44
3.8780,0.02793,-0.02618,0.32114,0.00000,0.00000,0.00000,34,10,63,14,55,-14,65,-1,ok,2,0,0.001,4,-0.5742,-0.50,0.65,10.89,28,0.013,8.44
3.8907,0.02793,-0.02618,0.32114,0.00000,0.00000,0.00000,34,12,64,15,52,-13,65,-1,ok,2,0,0.001,4,-0.5780,-0.50,0.65,10.89,28,0.026,8.44
3.9108,0.02793,-0.02618,0.32114,0.00000,0.00000,0.00000,34,13,64,16,50,-13,66,0,ok,2,0,0.001,4,-0.5817,-0.50,0.65,10.89,28,0.038,8.44
3.9156,0.02793,-0.02618,0.32114,0.00000,0.00000,0.00000,34,13,64,17,46,-12,67,-1,ok,2,0,0.001,4,-0.5855,-0.50,0.65,10.89,28,0.051,8.44
3.9281,0.02793,-0.02618,0.32114,0.00000,0.00000,0.00000,35,12,65,17,44,-12,67,0,ok,2,0,0.001,4,-0.5892,-0.50,0.65,10.89,28,0.063,8.44
3.9508,0.02793,-0.02618,0.32114,0.00000,0.00000,0.00000,36,12,65,18,41,-11,68,0,ok,2,0,0.001,4,-0.5930,-0.50,0.65,10.89,28,0.076,8.44
3.9541,0.02793,-0.02618,0.32114,0.00000,0.00000,0.00000,36,11,65,19,38,-10,69,1,ok,2,0,0.001,4,-0.5967,-0.50,0.65,10.89,28,0.089,8.44
3.9666,0.02793,-0.02618,0.32114,0.00000,0.00000,0.00000,37,10,66,19,35,-8,69,2,ok,2,0,0.001,4,-0.6000,-0.50,0.65,10.89,28,0.102,8.44
3.9868,0.02793,-0.02618,0.32114,0.00000,0.00000,0.00000,37,10,66,21,33,-7,70,3,ok,2,0,0.001,4,-0.6000,-0.50,0.65,10.89,28,0.114,8.44
3.9916,0.02793,-0.02618,0.32114,0.00000,0.00000,0.00000,38,9,66,21,31,-6,70,4,ok,2,0,0.001,4,-0.6000,-0.50,0.65,10.89,28,0.127,8.44
4.0042,0.02793,-0.02618,0.32114,0.00000,0.00000,0.00000,39,8,66,22,29,-2,71,5,ok,2,0,0.001,4,-0.6000,-0.50,0.65,10.89,28,0.140,8.44
4.0268,0.02793,-0.02618,0.32114,0.00000,0.00000,0.00000,39,7,66,23,28,0,71,6,ok,2,0,0.001,4,-0.6000,-0.50,0.65,10.89,28,0.152,8.44
4.0302,0.02793,-0.02618,0.32114,0.00000,0.00000,0.00000,40,6,66,24,27,3,71,7,ok,2,0,0.001,4,-0.6000,-0.50,0.65,10.89,28,0.165,8.44
4.0426,0.02793,-0.02618,0.32114,0.00000,0.00000,0.00000,40,6,65,25,26,6,72,8,ok,2,0,0.001,4,-0.6000,-0.50,0.65,10.89,28,0.178,8.44
4.0628,0.02793,-0.02618,0.32114,0.00000,0.00000,0.00000,41,5,64,28,28,5,72,9,ok,2,0,0.001,4,-0.6000,-0.50,0.65,10.89,28,0.191,8.44
4.0679,-0.16232,-0.09250,0.36826,0.00000,0.00000,0.00000,41,4,64,29,28,5,72,11,ok,2,0,0.001,4,-0.6000,-1.39,-2.93,14.04,29,0.000,8.44
4.0801,-0.16232,-0.09250,0.36826,0.00000,0.00000,0.00000,42,4,65,28,30,2,72,13,ok,2,0,0.001,4,-0.6000,-1.39,-2.93,14.04,29,0.013,8.44
4.1028,-0.16232,-0.09250,0.36826,0.00000,0.00000,0.00000,42,3,68,25,31,1,73,15,ok,2,0,0.001,4,-0.6000,-1.39,-2.93,14.04,29,0.025,8.44
4.1060,-0.16232,-0.09250,0.36826,0.00000,0.00000,0.00000,43,2,70,21,32,1,73,16,ok,2,0,0.001,4,-0.6000,-1.39,-2.93,14.04,29,0.038,8.44
4.1187,-0.16232,-0.09250,0.36826,0.00000,0.00000,0.00000,44,2,71,18,33,1,72,18,ok,2,0,0.001,4,-0.6000,-1.39,-2.93,14.04,29,0.051,8.44
4.1388,-0.16232,-0.09250,0.36826,0.00000,0.00000,0.00000,44,2,72,15,34,0,72,20,ok,2,0,0.001,4,-0.6000,-1.39,-2.93,14.04,29,0.063,8.44
4.1436,-0.16232,-0.09250,0.36826,0.00000,0.00000,0.00000,44,1,72,15,37,0,73,20,ok,2,0,0.001,4,-0.6000,-1.39,-2.93,14.04,29,0.076,8.44
4.1561,-0.16232,-0.09250,0.36826,0.00000,0.00000,0.00000,45,1,72,11,37,0,72,22,ok,2,0,0.001,4,-0.6000,-1.39,-2.93,14.04,29,0.088,8.44
4.1788,-0.16232,-0.09250,0.36826,0.00000,0.00000,0.00000,46,0,72,8,39,1,72,23,ok,2,0,0.001,4,-0.6000,-1.39,-2.93,14.04,29,0.101,8.44
4.1822,-0.16232,-0.09250,0.36826,0.00000,0.00000,0.00000,46,1,71,6,40,0,72,24,ok,2,0,0.001,4,-0.6000,-1.39,-2.93,14.04,29,0.114,8.44
4.1946,-0.16232,-0.09250,0.36826,0.00000,0.00000,0.00000,47,0,70,3,41,1,72,26,ok,2,0,0.001,4,-0.6000,-1.39,-2.93,14.04,29,0.127,8.44
4.2148,-0.16232,-0.09250,0.36826,0.00000,0.00000,0.00000,47,0,69,1,43,0,71,27,ok,2,0,0.001,4,-0.6000,-1.39,-2.93,14.04,29,0.139,8.44
4.2196,-0.16232,-0.09250,0.36826,0.00000,0.00000,0.00000,48,0,68,-1,44,-1,71,29,ok,2,0,0.001,4,-0.6000,-1.39,-2.93,14.04,29,0.152,8.44
4.2322,-0.16232,-0.09250,0.36826,0.00000,0.00000,0.00000,48,0,66,-2,45,-2,72,29,ok,2,0,0.001,4,-0.6000,-1.39,-2.93,14.04,29,0.165,8.44
4.2548,-0.16232,-0.09250,0.36826,0.00000,0.00000,0.00000,48,0,65,-4,47,-1,73,28,ok,2,0,0.001,4,-0.6000,-1.39,-2.93,14.04,29,0.177,8.44
4.2582,-0.16232,-0.09250,0.36826,0.00000,0.00000,0.00000,49,0,64,-6,48,-1,75,26,ok,2,0,0.001,4,-0.6000,-1.39,-2.93,14.04,29,0.190,8.44
4.2709,-0.12392,0.01222,0.36477,0.00000,0.00000,0.00000,50,2,62,-7,48,-1,77,20,ok,2,0,0.001,4,-0.6000,-0.33,-0.27,8.92,30,0.000,8.44
4.2908,-0.12392,0.01222,0.36477,0.00000,0.00000,0.00000,50,1,59,-8,49,-1,78,17,ok,2,0,0.001,4,-0.6000,-0.33,-0.27,8.92,30,0.013,8.44
4.2956,-0.12392,0.01222,0.36477,0.00000,0.00000,0.00000,50,2,57,-9,51,-1,79,14,ok,2,0,0.001,4,-0.6000,-0.33,-0.27,8.92,30,0.025,8.44
4.3083,-0.12392,0.01222,0.36477,0.00000,0.00000,0.00000,50,4,54,-10,52,-1,80,13,ok,2,0,0.001,4,-0.6000,-0.33,-0.27,8.92,30,0.038,8.44
4.3308,-0.12392,0.01222,0.36477,0.00000,0.00000,0.00000,50,5,51,-10,53,-1,79,10,ok,2,0,0.001,4,-0.6000,-0.33,-0.27,8.92,30,0.050,8.44
4.3342,-0.12392,0.01222,0.36477,0.00000,0.00000,0.00000,51,4,49,-10,54,-1,79,7,ok,2,0,0.001,4,-0.6000,-0.33,-0.27,8.92,30,0.063,8.44
4.3466,-0.12392,0.01222,0.36477,0.00000,0.00000,0.00000,51,5,46,-9,55,0,79,4,ok,2,0,0.001,4,-0.6000,-0.33,-0.27,8.92,30,0.076,8.44
4.3668,-0.12392,0.01222,0.36477,0.00000,0.00000,0.00000,51,6,43,-9,56,0,78,2,ok,2,0,0.001,4,-0.6000,-0.33,-0.27,8.92,30,0.089,8.44
4.3718,-0.12392,0.01222,0.36477,0.00000,0.00000,0.00000,52,6,41,-10,57,1,77,-2,ok,2,0,0.001,4,-0.6000,-0.33,-0.27,8.92,30,0.101,8.44
4.3842,-0.12392,0.01222,0.36477,0.00000,0.00000,0.00000,52,6,39,-8,58,0,77,-3,ok,2,0,0.001,4,-0.6000,-0.33,-0.27,8.92,30,0.114,8.44
4.4068,-0.12392,0.01222,0.36477,0.00000,0.00000,0.00000,53,7,35,-7,59,1,76,-5,ok,2,0,0.001,4,-0.6000,-0.33,-0.27,8.92,30,0.126,8.44
4.4100,-0.12392,0.01222,0.36477,0.00000,0.00000,0.00000,53,8,33,-6,59,1,74,-7,ok,2,0,0.001,4,-0.6000,-0.33,-0.27,8.92,30,0.139,8.44
4.4226,-0.12392,0.01222,0.36477,0.00000,0.00000,0.00000,53,8,29,-5,60,1,71,-7,ok,2,0,0.001,4,-0.6000,-0.33,-0.27,8.92,30,0.152,8.44
4.4428,-0.12392,0.01222,0.36477,0.00000,0.00000,0.00000,54,9,26,-3,61,1,70,-9,ok,2,0,0.001,4,-0.6000,-0.33,-0.27,8.92,30,0.165,8.44
4.4476,-0.12392,0.01222,0.36477,0.00000,0.00000,0.00000,54,10,22,-1,62,0,69,-11,ok,2,0,0.001,4,-0.6000,-0.33,-0.27,8.92,30,0.177,8.44
4.4603,-0.12392,0.01222,0.36477,0.00000,0.00000,0.00000,54,10,20,0,64,-2,67,-12,ok,2,0,0.001,4,-0.6000,-0.33,-0.27,8.92,30,0.190,8.44
4.4828,-0.04189,-0.00524,0.32812,0.00000,0.00000,0.00000,55,11,18,1,65,-1,64,-13,ok,2,0,0.001,4,-0.6000,0.32,-0.32,10.55,31,0.000,8.44
4.4862,-0.04189,-0.00524,0.32812,0.00000,0.00000,0.00000,55,11,16,3,66,0,63,-14,ok,2,0,0.001,4,-0.6000,0.32,-0.32,10.55,31,0.013,8.44
4.4988,-0.04189,-0.00524,0.32812,0.00000,0.00000,0.00000,55,12,15,7,66,0,60,-14,ok,2,0,0.001,4,-0.6000,0.32,-0.32,10.55,31,0.026,8.44
4.5188,-0.04189,-0.00524,0.32812,0.00000,0.00000,0.00000,55,13,13,10,66,0,58,-15,ok,2,0,0.001,4,-0.6000,0.32,-0.32,10.55,31,0.039,8.44
4.5236,-0.04189,-0.00524,0.32812,0.00000,0.00000,0.00000,56,14,11,12,67,0,55,-13,ok,2,0,0.001,4,-0.6000,0.32,-0.32,10.55,31,0.051,8.44
4.5362,-0.04189,-0.00524,0.32812,0.00000,0.00000,0.00000,56,15,13,13,68,0,53,-13,ok,2,0,0.001,4,-0.6000,0.32,-0.32,10.55,31,0.064,8.44
4.5588,-0.04189,-0.00524,0.32812,0.00000,0.00000,0.00000,56,16,13,12,68,1,50,-12,ok,2,0,0.001,4,-0.6000,0.32,-0.32,10.55,31,0.076,8.44
4.5620,-0.04189,-0.00524,0.32812,0.00000,0.00000,0.00000,56,17,14,11,69,1,47,-11,ok,2,0,0.001,4,-0.6000,0.32,-0.32,10.55,31,0.089,8.44
4.5746,-0.04189,-0.00524,0.32812,0.00000,0.00000,0.00000,56,18,15,10,69,2,45,-11,ok,2,0,0.001,5,-0.6000,0.32,-0.32,10.55,31,0.102,8.44
4.5948,-0.04189,-0.00524,0.32812,0.00000,0.00000,0.00000,56,18,16,10,69,2,41,-9,ok,2,0,0.001,5,-0.6000,0.32,-0.32,10.55,31,0.115,8.44
4.5996,-0.04189,-0.00524,0.32812,0.00000,0.00000,0.00000,56,18,17,9,70,3,39,-9,ok,2,0,0.001,5,-0.6000,0.32,-0.32,10.55,31,0.127,8.44
4.6121,-0.04189,-0.00524,0.32812,0.00000,0.00000,0.00000,56,20,18,8,70,4,35,-7,ok,2,0,0.001,5,-0.6000,0.32,-0.32,10.55,31,0.140,8.44
4.6348,-0.04189,-0.00524,0.32812,0.00000,0.00000,0.00000,57,21,20,7,71,5,34,-5,ok,2,0,0.001,5,-0.6000,0.32,-0.32,10.55,31,0.152,8.44
4.6380,-0.04189,-0.00524,0.32812,0.00000,0.00000,0.00000,57,22,21,7,71,6,32,-4,ok,2,0,0.001,5,-0.6000,0.32,-0.32,10.55,31,0.165,8.44
4.6507,-0.04189,-0.00524,0.32812,0.00000,0.00000,0.00000,57,23,22,6,71,7,30,-1,ok,2,0,0.001,5,-0.6000,0.32,-0.32,10.55,31,0.178,8.44
4.6708,-0.04189,-0.00524,0.32812,0.00000,0.00000,0.00000,57,24,23,6,71,8,28,2,ok,2,0,0.001,5,-0.6000,0.32,-0.32,10.55,31,0.191,8.44
4.6758,-0.04189,-0.00524,0.32812,0.00000,0.00000,0.00000,56,25,25,5,72,9,27,5,ok,2,0,0.001,5,-0.6000,0.32,-0.32,10.55,31,0.203,8.44
4.6884,-0.15533,0.02793,0.38223,0.00000,0.00000,0.00000,56,28,26,5,72,10,27,7,ok,2,0,0.001,5,-0.6000,1.92,-1.57,10.43,32,0.000,8.44
4.7108,-0.15533,0.02793,0.38223,0.00000,0.00000,0.00000,56,29,27,4,71,11,29,6,ok,2,0,0.001,5,-0.6000,1.92,-1.57,10.43,32,0.012,8.44
4.7140,-0.15533,0.02793,0.38223,0.00000,0.00000,0.00000,56,28,28,3,72,12,29,6,ok,2,0,0.001,5,-0.6000,1.92,-1.57,10.43,32,0.026,8.44
4.7266,-0.15533,0.02793,0.38223,0.00000,0.00000,0.00000,57,24,29,3,72,14,30,4,ok,2,0,0.001,5,-0.6000,1.92,-1.57,10.43,32,0.039,8.44
4.7468,-0.15533,0.02793,0.38223,0.00000,0.00000,0.00000,58,21,31,2,72,15,31,3,ok,2,0,0.001,5,-0.6000,1.92,-1.57,10.43,32,0.051,8.44
4.7516,-0.15533,0.02793,0.38223,0.00000,0.00000,0.00000,58,17,32,2,71,17,33,3,ok,2,0,0.001,5,-0.6000,1.92,-1.57,10.43,32,0.063,8.44
4.7642,-0.15533,0.02793,0.38223,0.00000,0.00000,0.00000,59,15,34,2,72,18,34,2,ok,2,0,0.001,5,-0.6000,1.92,-1.57,10.43,32,0.076,8.44
4.7868,-0.15533,0.02793,0.38223,0.00000,0.00000,0.00000,58,14,35,2,71,20,36,1,ok,2,0,0.001,5,-0.6000,1.92,-1.57,10.43,32,0.089,8.44
4.7902,-0.15533,0.02793,0.38223,0.00000,0.00000,0.00000,58,11,36,2,71,21,38,1,ok,2,0,0.001,5,-0.6000,1.92,-1.57,10.43,32,0.102,8.44
4.8026,-0.15533,0.02793,0.38223,0.00000,0.00000,0.00000,58,7,38,2,72,23,38,2,ok,2,0,0.001,5,-0.6000,1.92,-1.57,10.43,32,0.114,8.44
4.8228,-0.15533,0.02793,0.38223,0.00000,0.00000,0.00000,58,4,39,2,72,25,40,1,ok,2,0,0.001,5,-0.6000,1.92,-1.57,10.43,32,0.127,8.44
4.8275,-0.15533,0.02793,0.38223,0.00000,0.00000,0.00000,58,1,41,2,71,27,41,2,ok,2,0,0.001,5,-0.6000,1.92,-1.57,10.43,32,0.139,8.44
4.8401,-0.15533,0.02793,0.38223,0.00000,0.00000,0.00000,57,-1,42,1,71,28,42,2,ok,2,0,0.001,5,-0.6000,1.92,-1.57,10.43,32,0.152,8.44
4.8628,-0.15533,0.02793,0.38223,0.00000,0.00000,0.00000,56,-3,44,1,71,28,43,1,ok,2,0,0.001,5,-0.6000,1.92,-1.57,10.43,32,0.164,8.44
4.8663,-0.15533,0.02793,0.38223,0.00000,0.00000,0.00000,56,-4,44,1,73,28,44,1,ok,2,0,0.001,5,-0.6000,1.92,-1.57,10.43,32,0.178,8.44
4.8788,-0.15533,0.02793,0.38223,0.00000,0.00000,0.00000,55,-6,45,2,74,25,45,0,ok,2,0,0.001,5,-0.6000,1.92,-1.57,10.43,32,0.191,8.44
4.8988,-0.07156,-0.05061,0.41713,0.00000,0.00000,0.00000,55,-8,47,2,76,21,47,0,ok,2,0,0.001,5,-0.6000,0.03,0.38,9.37,33,0.000,8.44
4.9036,-0.07156,-0.05061,0.41713,0.00000,0.00000,0.00000,54,-9,48,3,77,16,48,0,ok,2,0,0.001,5,-0.6000,0.03,0.38,9.37,33,0.012,8.44
4.9163,-0.07156,-0.05061,0.41713,0.00000,0.00000,0.00000,53,-11,50,3,79,14,48,0,ok,2,0,0.001,5,-0.6000,0.03,0.38,9.37,33,0.025,8.44
4.9388,-0.07156,-0.05061,0.41713,0.00000,0.00000,0.00000,52,-11,51,3,79,13,49,0,ok,2,0,0.001,5,-0.6000,0.03,0.38,9.37,33,0.038,8.44
4.9420,-0.07156,-0.05061,0.41713,0.00000,0.00000,0.00000,51,-12,51,5,79,11,50,0,ok,2,0,0.001,5,-0.6000,0.03,0.38,9.37,33,0.051,8.44
4.9546,-0.07156,-0.05061,0.41713,0.00000,0.00000,0.00000,50,-12,52,6,79,7,51,0,ok,2,0,0.001,5,-0.6000,0.03,0.38,9.37,33,0.063,8.44
4.9748,-0.07156,-0.05061,0.41713,0.00000,0.00000,0.00000,49,-12,53,5,79,4,52,0,ok,2,0,0.001,5,-0.6000,0.03,0.38,9.37,33,0.076,8.44
4.9798,-0.07156,-0.05061,0.41713,0.00000,0.00000,0.00000,48,-11,54,6,78,2,53,0,ok,2,0,0.001,5,-0.6000,0.03,0.38,9.37,33,0.088,8.44
4.9922,-0.07156,-0.05061,0.41713,0.00000,0.00000,0.00000,47,-11,54,7,77,-2,54,1,ok,2,0,0.001,5,-0.6000,0.03,0.38,9.37,33,0.101,8.44
5.0148,-0.07156,-0.05061,0.41713,0.00000,0.00000,0.00000,46,-11,56,7,76,-4,54,0,ok,2,0,0.001,5,-0.6000,0.03,0.38,9.37,33,0.113,8.44
5.0269,-0.07156,-0.05061,0.41713,0.00000,0.00000,0.00000,46,-10,56,7,75,-5,56,1,ok,2,0,0.001,5,-0.6000,0.03,0.38,9.37,33,0.127,8.44
5.0306,-0.07156,-0.05061,0.41713,0.00000,0.00000,0.00000,44,-9,57,7,74,-8,56,-1,ok,2,0,0.001,5,-0.6000,0.03,0.38,9.37,33,0.139,8.44
5.0508,-0.07156,-0.05061,0.41713,0.00000,0.00000,0.00000,43,-8,58,8,71,-8,57,0,ok,2,0,0.001,5,-0.6000,0.03,0.38,9.37,33,0.152,8.44
5.0556,-0.07156,-0.05061,0.41713,0.00000,0.00000,0.00000,42,-6,58,9,70,-10,57,0,ok,2,0,0.001,5,-0.6000,0.03,0.38,9.37,33,0.164,8.44
5.0682,-0.07156,-0.05061,0.41713,0.00000,0.00000,0.00000,40,-4,59,9,68,-12,59,0,ok,2,0,0.001,5,-0.6000,0.03,0.38,9.37,33,0.177,8.44
5.0908,-0.07156,-0.05061,0.41713,0.00000,0.00000,0.00000,39,-2,60,11,66,-13,59,0,ok,2,0,0.001,5,-0.6000,0.03,0.38,9.37,33,0.189,8.44
5.0943,0.01222,0.02094,0.42237,0.00000,0.00000,0.00000,38,-1,61,11,64,-14,60,0,ok,2,0,0.001,5,-0.6000,0.47,0.41,9.89,34,0.000,8.44
5.1066,0.01222,0.02094,0.42237,0.00000,0.00000,0.00000,38,0,62,11,62,-14,63,-3,ok,2,0,0.001,5,-0.6000,0.47,0.41,9.89,34,0.013,8.44
5.1268,0.01222,0.02094,0.42237,0.00000,0.00000,0.00000,37,3,62,12,59,-14,63,-2,ok,2,0,0.001,5,-0.6000,0.47,0.41,9.89,34,0.025,8.44
5.1318,0.01222,0.02094,0.42237,0.00000,0.00000,0.00000,36,6,63,13,58,-15,64,-2,ok,2,0,0.001,5,-0.6000,0.47,0.41,9.89,34,0.038,8.44
5.1442,0.01222,0.02094,0.42237,0.00000,0.00000,0.00000,35,10,63,14,55,-14,64,-1,ok,2,0,0.001,5,-0.6000,0.47,0.41,9.89,34,0.050,8.44
5.1668,0.01222,0.02094,0.42237,0.00000,0.00000,0.00000,34,13,64,15,52,-13,65,-1,ok,2,0,0.001,5,-0.6000,0.47,0.41,9.89,34,0.063,8.44
5.1704,0.01222,0.02094,0.42237,0.00000,0.00000,0.00000,35,13,64,16,50,-13,66,0,ok,2,0,0.001,5,-0.6000,0.47,0.41,9.89,34,0.076,8.35
5.1826,0.01222,0.02094,0.42237,0.00000,0.00000,0.00000,35,13,64,17,47,-12,66,0,ok,2,0,0.001,5,-0.6000,0.47,0.41,9.89,34,0.089,8.35
5.2028,0.01222,0.02094,0.42237,0.00000,0.00000,0.00000,36,12,64,17,44,-12,67,0,ok,2,0,0.001,5,-0.6000,0.47,0.41,9.89,34,0.101,8.35
5.2076,0.01222,0.02094,0.42237,0.00000,0.00000,0.00000,36,12,65,18,41,-10,68,1,ok,2,0,0.001,5,-0.6000,0.47,0.41,9.89,34,0.114,8.35
5.2202,0.01222,0.02094,0.42237,0.00000,0.00000,0.00000,36,11,65,19,38,-10,69,2,ok,2,0,0.001,5,-0.6000,0.47,0.41,9.89,34,0.126,8.35
5.2428,0.01222,0.02094,0.42237,0.00000,0.00000,0.00000,37,10,65,19,35,-8,69,2,ok,2,0,0.001,5,-0.6000,0.47,0.41,9.89,34,0.139,8.35
5.2460,0.01222,0.02094,0.42237,0.00000,0.00000,0.00000,38,10,65,20,33,-7,70,3,ok,2,0,0.001,5,-0.6000,0.47,0.41,9.89,34,0.152,8.35
5.2586,0.01222,0.02094,0.42237,0.00000,0.00000,0.00000,38,8,66,21,32,-5,71,5,ok,2,0,0.001,5,-0.6000,0.47,0.41,9.89,34,0.165,8.35
5.2788,0.01222,0.02094,0.42237,0.00000,0.00000,0.00000,39,8,66,22,29,-2,72,5,ok,2,0,0.001,5,-0.6000,0.47,0.41,9.89,34,0.177,8.35
5.2839,0.01222,0.02094,0.42237,0.00000,0.00000,0.00000,39,7,65,23,28,0,71,6,ok,2,0,0.001,5,-0.6000,0.47,0.41,9.89,34,0.190,8.35
5.2966,-0.05411,-0.04363,0.41364,0.00000,0.00000,0.00000,40,6,65,24,27,4,71,8,ok,2,0,0.001,5,-0.6000,-1.29,-0.99,8.31,35,0.000,8.35
5.3188,-0.05411,-0.04363,0.41364,0.00000,0.00000,0.00000,40,6,65,25,26,6,72,9,ok,2,0,0.001,5,-0.6000,-1.29,-0.99,8.31,35,0.013,8.35
5.3220,-0.05411,-0.04363,0.41364,0.00000,0.00000,0.00000,41,5,64,28,28,5,72,10,ok,2,0,0.002,5,-0.6000,-1.29,-0.99,8.31,35,0.026,8.35
5.3346,-0.05411,-0.04363,0.41364,0.00000,0.00000,0.00000,41,4,64,29,29,5,72,11,ok,2,0,0.002,5,-0.6000,-1.29,-0.99,8.31,35,0.039,8.35
5.3548,-0.05411,-0.04363,0.41364,0.00000,0.00000,0.00000,42,4,65,28,30,3,72,13,ok,2,0,0.002,5,-0.6000,-1.29,-0.99,8.31,35,0.051,8.35
5.3596,-0.05411,-0.04363,0.41364,0.00000,0.00000,0.00000,42,3,68,25,31,2,73,15,ok,2,0,0.002,5,-0.6000,-1.29,-0.99,8.31,35,0.064,8.35
5.3722,-0.05411,-0.04363,0.41364,0.00000,0.00000,0.00000,43,2,70,21,32,2,73,16,ok,2,0,0.002,5,-0.6000,-1.29,-0.99,8.31,35,0.076,8.35
5.3948,-0.05411,-0.04363,0.41364,0.00000,0.00000,0.00000,43,2,71,17,33,1,72,18,ok,2,0,0.002,5,-0.6000,-1.29,-0.99,8.31,35,0.089,8.35
5.3980,-0.05411,-0.04363,0.41364,0.00000,0.00000,0.00000,44,2,72,15,34,0,72,20,ok,2,0,0.002,5,-0.6000,-1.29,-0.99,8.31,35,0.102,8.35
5.4106,-0.05411,-0.04363,0.41364,0.00000,0.00000,0.00000,44,1,72,14,37,1,73,20,ok,2,0,0.002,5,-0.6000,-1.29,-0.99,8.31,35,0.115,8.35
5.4308,-0.05411,-0.04363,0.41364,0.00000,0.00000,0.00000,45,1,72,11,37,1,72,22,ok,2,0,0.002,5,-0.6000,-1.29,-0.99,8.31,35,0.127,8.35
5.4358,-0.05411,-0.04363,0.41364,0.00000,0.00000,0.00000,46,1,71,8,39,1,72,23,ok,2,0,0.002,5,-0.6000,-1.29,-0.99,8.31,35,0.140,8.35
5.4482,-0.05411,-0.04363,0.41364,0.00000,0.00000,0.00000,46,1,70,5,40,0,72,25,ok,2,0,0.002,5,-0.6000,-1.29,-0.99,8.31,35,0.152,8.35
5.4708,-0.05411,-0.04363,0.41364,0.00000,0.00000,0.00000,47,0,70,3,41,1,72,26,ok,2,0,0.002,5,-0.6000,-1.29,-0.99,8.31,35,0.165,8.35
5.4740,-0.05411,-0.04363,0.41364,0.00000,0.00000,0.00000,47,0,69,1,42,0,72,28,ok,2,0,0.002,5,-0.6000,-1.29,-0.99,8.31,35,0.178,8.35
5.4866,-0.05411,-0.04363,0.41364,0.00000,0.00000,0.00000,48,0,68,-1,44,0,71,29,ok,2,0,0.002,5,-0.6000,-1.29,-0.99,8.31,35,0.191,8.35
5.5068,-0.13963,-0.03491,0.41190,0.00000,0.00000,0.00000,48,0,66,-2,45,-1,72,29,ok,2,0,0.002,5,-0.6000,-0.67,-1.71,11.14,36,0.000,8.35
5.5116,-0.13963,-0.03491,0.41190,0.00000,0.00000,0.00000,49,0,65,-4,46,-1,73,29,ok,2,0,0.002,5,-0.6000,-0.67,-1.71,11.14,36,0.012,8.35
5.5242,-0.13963,-0.03491,0.41190,0.00000,0.00000,0.00000,49,0,64,-6,47,-1,75,26,ok,2,0,0.002,5,-0.6000,-0.67,-1.71,11.14,36,0.025,8.35
5.5468,-0.13963,-0.03491,0.41190,0.00000,0.00000,0.00000,50,1,61,-7,48,-1,77,21,ok,2,0,0.002,5,-0.6000,-0.67,-1.71,11.14,36,0.038,8.35
5.5502,-0.13963,-0.03491,0.41190,0.00000,0.00000,0.00000,50,1,59,-8,49,-1,78,17,ok,2,0,0.002,5,-0.6000,-0.67,-1.71,11.14,36,0.051,8.35
5.5627,-0.13963,-0.03491,0.41190,0.00000,0.00000,0.00000,50,1,57,-8,50,-1,80,14,ok,2,0,0.002,5,-0.6000,-0.67,-1.71,11.14,36,0.064,8.35
5.5828,-0.13963,-0.03491,0.41190,0.00000,0.00000,0.00000,50,3,54,-9,52,-1,80,13,ok,2,0,0.002,5,-0.6000,-0.67,-1.71,11.14,36,0.076,8.35
5.5876,-0.13963,-0.03491,0.41190,0.00000,0.00000,0.00000,51,4,51,-9,53,-1,80,11,ok,2,0,0.002,6,-0.6000,-0.67,-1.71,11.14,36,0.089,8.35
5.6004,-0.13963,-0.03491,0.41190,0.00000,0.00000,0.00000,51,4,49,-9,54,-1,80,7,ok,2,0,0.002,6,-0.6000,-0.67,-1.71,11.14,36,0.101,8.35
5.6228,-0.13963,-0.03491,0.41190,0.00000,0.00000,0.00000,51,5,46,-9,55,0,79,4,ok,2,0,0.002,6,-0.6000,-0.67,-1.71,11.14,36,0.114,8.35
5.6261,-0.13963,-0.03491,0.41190,0.00000,0.00000,0.00000,51,6,44,-9,56,0,79,2,ok,2,0,0.002,6,-0.6000,-0.67,-1.71,11.14,36,0.127,8.35
5.6386,-0.13963,-0.03491,0.41190,0.00000,0.00000,0.00000,52,6,41,-9,57,1,78,-2,ok,2,0,0.002,6,-0.6000,-0.67,-1.71,11.14,36,0.140,8.35
5.6588,-0.13963,-0.03491,0.41190,0.00000,0.00000,0.00000,52,6,39,-8,58,0,77,-3,ok,2,0,0.002,6,-0.6000,-0.67,-1.71,11.14,36,0.152,8.35
5.6636,-0.13963,-0.03491,0.41190,0.00000,0.00000,0.00000,53,7,36,-7,58,0,76,-5,ok,2,0,0.002,6,-0.6000,-0.67,-1.71,11.14,36,0.165,8.35
5.6764,-0.13963,-0.03491,0.41190,0.00000,0.00000,0.00000,53,8,33,-6,59,1,74,-7,ok,2,0,0.002,6,-0.6000,-0.67,-1.71,11.14,36,0.177,8.35
5.6988,-0.13963,-0.03491,0.41190,0.00000,0.00000,0.00000,53,8,29,-5,60,1,71,-7,ok,2,0,0.002,6,-0.6000,-0.67,-1.71,11.14,36,0.190,8.35
5.7023,-0.05760,-0.02443,0.37525,0.00000,0.00000,0.00000,54,9,26,-3,61,1,70,-9,ok,2,0,0.002,6,-0.6000,-0.26,-0.70,10.02,37,0.000,8.35
5.7146,-0.05760,-0.02443,0.37525,0.00000,0.00000,0.00000,54,10,22,-1,62,0,69,-11,ok,2,0,0.002,6,-0.6000,-0.26,-0.70,10.02,37,0.013,8.35
5.7348,-0.05760,-0.02443,0.37525,0.00000,0.00000,0.00000,54,10,20,0,64,-2,67,-12,ok,2,0,0.002,6,-0.6000,-0.26,-0.70,10.02,37,0.025,8.35
5.7398,-0.05760,-0.02443,0.37525,0.00000,0.00000,0.00000,55,11,19,1,64,-1,64,-13,ok,2,0,0.002,6,-0.6000,-0.26,-0.70,10.02,37,0.038,8.35
5.7522,-0.05760,-0.02443,0.37525,0.00000,0.00000,0.00000,55,12,16,3,65,0,63,-14,ok,2,0,0.002,6,-0.6000,-0.26,-0.70,10.02,37,0.050,8.35
5.7748,-0.05760,-0.02443,0.37525,0.00000,0.00000,0.00000,55,12,15,7,66,0,60,-14,ok,2,0,0.002,6,-0.6000,-0.26,-0.70,10.02,37,0.063,8.35
5.7780,-0.05760,-0.02443,0.37525,0.00000,0.00000,0.00000,55,14,13,10,66,0,58,-15,ok,2,0,0.002,6,-0.6000,-0.26,-0.70,10.02,37,0.076,8.35
5.7906,-0.05760,-0.02443,0.37525,0.00000,0.00000,0.00000,56,14,11,12,67,0,55,-13,ok,2,0,0.002,6,-0.6000,-0.26,-0.70,10.02,37,0.089,8.35
5.8108,-0.05760,-0.02443,0.37525,0.00000,0.00000,0.00000,56,15,13,13,67,0,52,-12,ok,2,0,0.002,6,-0.6000,-0.26,-0.70,10.02,37,0.101,8.35
5.8158,-0.05760,-0.02443,0.37525,0.00000,0.00000,0.00000,56,16,12,12,68,0,50,-12,ok,2,0,0.002,6,-0.6000,-0.26,-0.70,10.02,37,0.114,8.35
5.8282,-0.05760,-0.02443,0.37525,0.00000,0.00000,0.00000,56,17,14,11,69,1,47,-11,ok,2,0,0.002,6,-0.6000,-0.26,-0.70,10.02,37,0.126,8.35
5.8508,-0.05760,-0.02443,0.37525,0.00000,0.00000,0.00000,56,18,15,10,69,2,45,-11,ok,2,0,0.002,6,-0.6000,-0.26,-0.70,10.02,37,0.139,8.35
5.8540,-0.05760,-0.02443,0.37525,0.00000,0.00000,0.00000,56,18,16,10,69,2,41,-9,ok,2,0,0.002,6,-0.6000,-0.26,-0.70,10.02,37,0.152,8.35
5.8666,-0.05760,-0.02443,0.37525,0.00000,0.00000,0.00000,56,18,17,9,70,3,39,-9,ok,2,0,0.002,6,-0.6000,-0.26,-0.70,10.02,37,0.165,8.35
5.8868,-0.05760,-0.02443,0.37525,0.00000,0.00000,0.00000,56,20,18,9,70,4,35,-7,ok,2,0,0.002,6,-0.6000,-0.26,-0.70,10.02,37,0.177,8.35
5.8916,-0.05760,-0.02443,0.37525,0.00000,0.00000,0.00000,57,21,20,8,71,4,34,-5,ok,2,0,0.002,6,-0.6000,-0.26,-0.70,10.02,37,0.190,8.35
5.9045,0.02269,-0.03491,0.35081,0.00000,0.00000,0.00000,57,22,21,7,71,6,32,-4,ok,2,0,0.002,6,-0.5962,-0.94,0.62,10.59,38,0.000,8.35
5.9268,0.02269,-0.03491,0.35081,0.00000,0.00000,0.00000,57,23,22,6,71,7,30,-1,ok,2,0,0.002,6,-0.5925,-0.94,0.62,10.59,38,0.013,8.35
5.9300,0.02269,-0.03491,0.35081,0.00000,0.00000,0.00000,57,24,24,6,71,8,28,1,ok,2,0,0.002,6,-0.5887,-0.94,0.62,10.59,38,0.026,8.35
5.9426,0.02269,-0.03491,0.35081,0.00000,0.00000,0.00000,57,25,25,5,71,9,27,5,ok,2,0,0.002,6,-0.5850,-0.94,0.62,10.59,38,0.039,8.35
5.9628,0.02269,-0.03491,0.35081,0.00000,0.00000,0.00000,56,28,26,5,71,10,27,7,ok,2,0,0.002,6,-0.5812,-0.94,0.62,10.59,38,0.051,8.35
5.9676,0.02269,-0.03491,0.35081,0.00000,0.00000,0.00000,56,29,27,4,71,11,29,6,ok,2,0,0.002,6,-0.5775,-0.94,0.62,10.59,38,0.063,8.35
5.9803,0.02269,-0.03491,0.35081,0.00000,0.00000,0.00000,57,28,29,3,71,13,29,5,ok,2,0,0.002,6,-0.5737,-0.94,0.62,10.59,38,0.076,8.35
6.0028,0.02269,-0.03491,0.35081,0.00000,0.00000,0.00000,58,25,30,3,72,14,30,3,ok,2,0,0.002,6,-0.5700,-0.94,0.62,10.59,38,0.089,8.35
6.0060,0.02269,-0.03491,0.35081,0.00000,0.00000,0.00000,59,21,31,2,71,15,31,3,ok,2,0,0.002,6,-0.5662,-0.94,0.62,10.59,38,0.102,8.35
6.0187,0.02269,-0.03491,0.35081,0.00000,0.00000,0.00000,59,17,33,2,71,17,33,3,ok,2,0,0.002,6,-0.5625,-0.94,0.62,10.59,38,0.115,8.35
6.0388,0.02269,-0.03491,0.35081,0.00000,0.00000,0.00000,60,15,34,2,72,18,34,2,ok,2,0,0.002,6,-0.5587,-0.94,0.62,10.59,38,0.127,8.35
6.0438,0.02269,-0.03491,0.35081,0.00000,0.00000,0.00000,59,14,35,1,71,20,36,1,ok,2,0,0.002,6,-0.5550,-0.94,0.62,10.59,38,0.140,8.35
6.0562,0.02269,-0.03491,0.35081,0.00000,0.00000,0.00000,59,11,37,2,71,21,38,1,ok,2,0,0.002,6,-0.5512,-0.94,0.62,10.59,38,0.152,8.35
6.0788,0.02269,-0.03491,0.35081,0.00000,0.00000,0.00000,59,7,38,2,71,23,39,2,ok,2,0,0.002,6,-0.5475,-0.94,0.62,10.59,38,0.165,8.35
6.0820,0.02269,-0.03491,0.35081,0.00000,0.00000,0.00000,59,4,39,2,71,25,40,1,ok,2,0,0.002,6,-0.5437,-0.94,0.62,10.59,38,0.178,8.35
6.0946,0.02269,-0.03491,0.35081,0.00000,0.00000,0.00000,59,1,41,2,70,27,42,1,ok,2,0,0.002,6,-0.5400,-0.94,0.62,10.59,38,0.191,8.35
6.1148,-0.09250,-0.02269,0.36128,0.00000,0.00000,0.00000,58,-1,42,1,70,28,43,1,ok,2,0,0.002,6,-0.5437,-1.32,-1.58,10.06,39,0.000,8.35
6.1196,-0.09250,-0.02269,0.36128,0.00000,0.00000,0.00000,58,-3,44,2,71,28,43,1,ok,2,0,0.002,6,-0.5475,-1.32,-1.58,10.06,39,0.013,8.35
6.1322,-0.09250,-0.02269,0.36128,0.00000,0.00000,0.00000,56,-4,44,2,72,27,45,1,ok,2,0,0.002,6,-0.5512,-1.32,-1.58,10.06,39,0.025,8.35
6.1548,-0.09250,-0.02269,0.36128,0.00000,0.00000,0.00000,56,-6,45,2,74,25,46,0,ok,2,0,0.002,6,-0.5550,-1.32,-1.58,10.06,39,0.038,8.35
6.1582,-0.09250,-0.02269,0.36128,0.00000,0.00000,0.00000,55,-8,46,2,76,21,47,0,ok,2,0,0.002,6,-0.5587,-1.32,-1.58,10.06,39,0.051,8.35
6.1706,-0.09250,-0.02269,0.36128,0.00000,0.00000,0.00000,54,-9,48,3,77,16,48,0,ok,2,0,0.002,6,-0.5625,-1.32,-1.58,10.06,39,0.064,8.35
6.1908,-0.09250,-0.02269,0.36128,0.00000,0.00000,0.00000,53,-10,49,3,79,13,49,0,ok,2,0,0.002,6,-0.5662,-1.32,-1.58,10.06,39,0.076,8.35
6.1956,-0.09250,-0.02269,0.36128,0.00000,0.00000,0.00000,53,-11,50,3,79,13,50,0,ok,2,0,0.002,6,-0.5700,-1.32,-1.58,10.06,39,0.089,8.35
6.2082,-0.09250,-0.02269,0.36128,0.00000,0.00000,0.00000,51,-12,50,5,79,10,51,0,ok,2,0,0.002,6,-0.5737,-1.32,-1.58,10.06,39,0.101,8.35
6.2308,-0.09250,-0.02269,0.36128,0.00000,0.00000,0.00000,50,-12,52,6,79,7,51,0,ok,2,0,0.002,6,-0.5775,-1.32,-1.58,10.06,39,0.114,8.35
6.2341,-0.09250,-0.02269,0.36128,0.00000,0.00000,0.00000,49,-12,53,6,78,4,53,0,ok,2,0,0.002,6,-0.5812,-1.32,-1.58,10.06,39,0.127,8.35
6.2470,-0.09250,-0.02269,0.36128,0.00000,0.00000,0.00000,48,-11,54,6,77,2,53,0,ok,2,0,0.002,6,-0.5850,-1.32,-1.58,10.06,39,0.140,8.35
6.2668,-0.09250,-0.02269,0.36128,0.00000,0.00000,0.00000,47,-11,54,7,77,-2,54,1,ok,2,0,0.002,6,-0.5887,-1.32,-1.58,10.06,39,0.152,8.35
6.2717,-0.09250,-0.02269,0.36128,0.00000,0.00000,0.00000,46,-11,56,7,76,-4,54,0,ok,2,0,0.002,6,-0.5925,-1.32,-1.58,10.06,39,0.165,8.35
6.2843,-0.09250,-0.02269,0.36128,0.00000,0.00000,0.00000,45,-10,56,7,75,-5,56,0,ok,2,0,0.002,6,-0.5938,-1.32,-1.58,10.06,39,0.177,8.35
6.3108,-0.09250,-0.02269,0.36128,0.00000,0.00000,0.00000,44,-9,57,8,74,-8,56,-1,ok,2,0,0.002,6,-0.5938,-1.32,-1.58,10.06,39,0.190,8.35
6.3143,0.01571,-0.01222,0.38921,0.00000,0.00000,0.00000,43,-8,58,8,71,-8,57,0,ok,2,0,0.002,6,-0.5976,-0.37,0.59,10.10,40,0.000,8.35
6.3269,0.01571,-0.01222,0.38921,0.00000,0.00000,0.00000,42,-6,58,8,70,-10,57,0,ok,2,0,0.002,6,-0.6000,-0.37,0.59,10.10,40,0.013,8.35
6.3468,0.01571,-0.01222,0.38921,0.00000,0.00000,0.00000,40,-4,59,9,68,-11,59,0,ok,2,0,0.002,6,-0.6000,-0.37,0.59,10.10,40,0.025,8.35
6.3516,0.01571,-0.01222,0.38921,0.00000,0.00000,0.00000,39,-2,60,11,66,-13,59,0,ok,2,0,0.002,6,-0.6000,-0.37,0.59,10.10,40,0.038,8.35
6.3642,0.01571,-0.01222,0.38921,0.00000,0.00000,0.00000,38,-1,61,11,64,-13,60,0,ok,2,0,0.002,6,-0.6000,-0.37,0.59,10.10,40,0.050,8.35
6.3868,0.01571,-0.01222,0.38921,0.00000,0.00000,0.00000,37,1,62,11,62,-14,63,-3,ok,2,0,0.002,6,-0.6000,-0.37,0.59,10.10,40,0.063,8.35
6.3900,0.01571,-0.01222,0.38921,0.00000,0.00000,0.00000,36,3,62,12,59,-14,63,-2,ok,2,0,0.002,6,-0.6000,-0.37,0.59,10.10,40,0.076,8.35
6.4028,0.01571,-0.01222,0.38921,0.00000,0.00000,0.00000,36,6,63,13,58,-15,64,-2,ok,2,0,0.002,6,-0.6000,-0.37,0.59,10.10,40,0.089,8.35
6.4228,0.01571,-0.01222,0.38921,0.00000,0.00000,0.00000,35,10,63,14,55,-14,64,-1,ok,2,0,0.002,6,-0.6000,-0.37,0.59,10.10,40,0.101,8.35
6.4276,0.01571,-0.01222,0.38921,0.00000,0.00000,0.00000,34,13,64,15,52,-13,65,-1,ok,2,0,0.002,6,-0.6000,-0.37,0.59,10.10,40,0.114,8.35
6.4402,0.01571,-0.01222,0.38921,0.00000,0.00000,0.00000,35,13,64,16,50,-13,66,0,ok,2,0,0.002,6,-0.6000,-0.37,0.59,10.10,40,0.126,8.35
6.4628,0.01571,-0.01222,0.38921,0.00000,0.00000,0.00000,35,13,64,17,47,-12,67,0,ok,2,0,0.002,6,-0.6000,-0.37,0.59,10.10,40,0.139,8.35
6.4660,0.01571,-0.01222,0.38921,0.00000,0.00000,0.00000,36,12,65,17,44,-12,68,0,ok,2,0,0.002,6,-0.6000,-0.37,0.59,10.10,40,0.152,8.35
6.4786,0.01571,-0.01222,0.38921,0.00000,0.00000,0.00000,36,11,65,18,41,-10,69,0,ok,2,0,0.002,6,-0.6000,-0.37,0.59,10.10,40,0.165,8.35
6.4988,0.01571,-0.01222,0.38921,0.00000,0.00000,0.00000,36,11,65,19,38,-10,69,2,ok,2,0,0.002,6,-0.6000,-0.37,0.59,10.10,40,0.177,8.35
6.5037,0.01571,-0.01222,0.38921,0.00000,0.00000,0.00000,37,10,66,19,35,-8,69,2,ok,2,0,0.002,6,-0.6000,-0.37,0.59,10.10,40,0.190,8.35
6.5164,-0.03840,-0.04189,0.39794,0.00000,0.00000,0.00000,37,10,66,21,33,-7,70,3,ok,2,0,0.002,6,-0.6000,0.29,-0.04,10.80,41,0.000,8.35
6.5388,-0.03840,-0.04189,0.39794,0.00000,0.00000,0.00000,38,8,66,21,31,-6,70,4,ok,2,0,0.002,6,-0.6000,0.29,-0.04,10.80,41,0.013,8.35
6.5421,-0.03840,-0.04189,0.39794,0.00000,0.00000,0.00000,39,7,66,22,29,-2,71,5,ok,2,0,0.002,6,-0.6000,0.29,-0.04,10.80,41,0.026,8.35
6.5546,-0.03840,-0.04189,0.39794,0.00000,0.00000,0.00000,39,7,66,23,28,0,71,6,ok,2,0,0.002,6,-0.6000,0.29,-0.04,10.80,41,0.039,8.35
6.5748,-0.03840,-0.04189,0.39794,0.00000,0.00000,0.00000,40,6,66,24,27,3,71,8,ok,2,0,0.002,6,-0.6000,0.29,-0.04,10.80,41,0.051,8.35
6.5798,-0.03840,-0.04189,0.39794,0.00000,0.00000,0.00000,40,5,65,25,26,6,72,8,ok,2,0,0.002,6,-0.6000,0.29,-0.04,10.80,41,0.064,8.35
6.5922,-0.03840,-0.04189,0.39794,0.00000,0.00000,0.00000,41,5,64,28,28,5,72,9,ok,2,0,0.002,6,-0.6000,0.29,-0.04,10.80,41,0.076,8.35
6.6188,-0.03840,-0.04189,0.39794,0.00000,0.00000,0.00000,41,4,64,29,28,5,72,11,ok,2,0,0.002,7,-0.6000,0.29,-0.04,10.80,41,0.089,8.35
6.6221,-0.03840,-0.04189,0.39794,0.00000,0.00000,0.00000,42,4,65,28,30,3,72,12,ok,2,0,0.002,7,-0.6000,0.29,-0.04,10.80,41,0.106,8.35
6.6346,-0.03840,-0.04189,0.39794,0.00000,0.00000,0.00000,42,3,68,25,31,2,73,14,ok,2,0,0.002,7,-0.6000,0.29,-0.04,10.80,41,0.119,8.35
6.6548,-0.03840,-0.04189,0.39794,0.00000,0.00000,0.00000,43,3,70,21,32,2,73,15,ok,2,0,0.002,7,-0.6000,0.29,-0.04,10.80,41,0.131,8.35
6.6598,-0.03840,-0.04189,0.39794,0.00000,0.00000,0.00000,43,2,71,17,33,1,72,17,ok,2,0,0.002,7,-0.6000,0.29,-0.04,10.80,41,0.144,8.35
6.6722,-0.03840,-0.04189,0.39794,0.00000,0.00000,0.00000,44,2,72,15,34,0,72,19,ok,2,0,0.002,7,-0.6000,0.29,-0.04,10.80,41,0.156,8.35
6.6948,-0.03840,-0.04189,0.39794,0.00000,0.00000,0.00000,44,1,72,14,37,1,73,20,ok,2,0,0.002,7,-0.6000,0.29,-0.04,10.80,41,0.169,8.35
6.6980,-0.03840,-0.04189,0.39794,0.00000,0.00000,0.00000,45,1,72,11,37,1,72,22,ok,2,0,0.002,7,-0.6000,0.29,-0.04,10.80,41,0.182,8.35
6.7109,-0.03840,-0.04189,0.39794,0.00000,0.00000,0.00000,46,1,71,8,39,1,72,23,ok,2,0,0.002,7,-0.6000,0.29,-0.04,10.80,41,0.195,8.35
6.7308,-0.17802,-0.08029,0.41888,0.00000,0.00000,0.00000,46,1,70,5,40,0,72,24,ok,2,0,0.002,7,-0.6000,-0.17,-1.86,10.84,42,0.000,8.35
6.7356,-0.17802,-0.08029,0.41888,0.00000,0.00000,0.00000,47,0,70,3,41,0,72,26,ok,2,0,0.002,7,-0.6000,-0.17,-1.86,10.84,42,0.012,8.35
6.7482,-0.17802,-0.08029,0.41888,0.00000,0.00000,0.00000,47,0,69,1,42,0,72,28,ok,2,0,0.002,7,-0.6000,-0.17,-1.86,10.84,42,0.025,8.35
6.7708,-0.17802,-0.08029,0.41888,0.00000,0.00000,0.00000,48,0,68,0,44,-1,71,29,ok,2,0,0.002,7,-0.6000,-0.17,-1.86,10.84,42,0.038,8.35
6.7740,-0.17802,-0.08029,0.41888,0.00000,0.00000,0.00000,48,0,66,-1,45,-2,72,29,ok,2,0,0.002,7,-0.6000,-0.17,-1.86,10.84,42,0.051,8.35
6.7866,-0.17802,-0.08029,0.41888,0.00000,0.00000,0.00000,49,0,65,-4,46,-1,74,28,ok,2,0,0.002,7,-0.6000,-0.17,-1.86,10.84,42,0.064,8.35
6.8068,-0.17802,-0.08029,0.41888,0.00000,0.00000,0.00000,49,0,64,-6,47,-1,75,26,ok,2,0,0.002,7,-0.6000,-0.17,-1.86,10.84,42,0.076,8.35
6.8116,-0.17802,-0.08029,0.41888,0.00000,0.00000,0.00000,50,1,62,-7,48,-1,77,21,ok,2,0,0.002,7,-0.6000,-0.17,-1.86,10.84,42,0.088,8.35
6.8242,-0.17802,-0.08029,0.41888,0.00000,0.00000,0.00000,50,1,59,-8,49,-1,78,17,ok,2,0,0.002,7,-0.6000,-0.17,-1.86,10.84,42,0.101,8.35
6.8468,-0.17802,-0.08029,0.41888,0.00000,0.00000,0.00000,50,1,57,-8,50,-1,80,14,ok,2,0,0.002,7,-0.6000,-0.17,-1.86,10.84,42,0.113,8.35
6.8500,-0.17802,-0.08029,0.41888,0.00000,0.00000,0.00000,50,3,55,-9,52,-1,80,13,ok,2,0,0.002,7,-0.6000,-0.17,-1.86,10.84,42,0.127,8.35
6.8626,-0.17802,-0.08029,0.41888,0.00000,0.00000,0.00000,50,4,52,-9,53,-1,80,10,ok,2,0,0.002,7,-0.6000,-0.17,-1.86,10.84,42,0.140,8.35
6.8828,-0.17802,-0.08029,0.41888,0.00000,0.00000,0.00000,51,4,49,-9,54,-1,80,7,ok,2,0,0.002,7,-0.6000,-0.17,-1.86,10.84,42,0.152,8.35
6.8876,-0.17802,-0.08029,0.41888,0.00000,0.00000,0.00000,51,5,46,-9,55,0,79,4,ok,2,0,0.002,7,-0.6000,-0.17,-1.86,10.84,42,0.165,8.35
6.9002,-0.17802,-0.08029,0.41888,0.00000,0.00000,0.00000,51,6,44,-9,56,0,79,2,ok,2,0,0.002,7,-0.6000,-0.17,-1.86,10.84,42,0.177,8.35
6.9228,-0.17802,-0.08029,0.41888,0.00000,0.00000,0.00000,52,6,41,-9,57,0,77,-2,ok,2,0,0.002,7,-0.6000,-0.17,-1.86,10.84,42,0.190,8.35
6.9262,-0.08029,-0.04887,0.39968,0.00000,0.00000,0.00000,52,6,39,-8,58,-1,77,-3,ok,2,0,0.002,7,-0.6000,-0.01,-1.01,10.33,43,0.000,8.35
6.9387,-0.08029,-0.04887,0.39968,0.00000,0.00000,0.00000,53,7,36,-7,58,0,76,-5,ok,2,0,0.002,7,-0.6000,-0.01,-1.01,10.33,43,0.013,8.35
6.9588,-0.08029,-0.04887,0.39968,0.00000,0.00000,0.00000,53,8,33,-6,59,1,74,-7,ok,2,0,0.002,7,-0.6000,-0.01,-1.01,10.33,43,0.025,8.35
6.9638,-0.08029,-0.04887,0.39968,0.00000,0.00000,0.00000,53,8,29,-5,60,1,71,-8,ok,2,0,0.002,7,-0.6000,-0.01,-1.01,10.33,43,0.038,8.35
6.9762,-0.08029,-0.04887,0.39968,0.00000,0.00000,0.00000,54,9,27,-3,61,1,70,-9,ok,2,0,0.002,7,-0.6000,-0.01,-1.01,10.33,43,0.050,8.35
6.9988,-0.08029,-0.04887,0.39968,0.00000,0.00000,0.00000,54,10,22,-1,62,0,69,-11,ok,2,0,0.002,7,-0.6000,-0.01,-1.01,10.33,43,0.063,8.35
7.0022,-0.08029,-0.04887,0.39968,0.00000,0.00000,0.00000,54,10,20,0,64,-2,66,-12,ok,2,0,0.002,7,-0.6000,-0.01,-1.01,10.33,43,0.076,8.35
7.0146,-0.08029,-0.04887,0.39968,0.00000,0.00000,0.00000,55,11,18,1,65,-1,64,-13,ok,2,0,0.002,7,-0.6000,-0.01,-1.01,10.33,43,0.089,8.35
7.0348,-0.08029,-0.04887,0.39968,0.00000,0.00000,0.00000,55,12,16,3,65,-1,62,-14,ok,2,0,0.002,7,-0.6000,-0.01,-1.01,10.33,43,0.101,8.35
7.0396,-0.08029,-0.04887,0.39968,0.00000,0.00000,0.00000,55,12,14,7,66,-1,60,-14,ok,2,0,0.002,7,-0.6000,-0.01,-1.01,10.33,43,0.114,8.35
7.0522,-0.08029,-0.04887,0.39968,0.00000,0.00000,0.00000,55,14,13,10,66,0,58,-15,ok,2,0,0.002,7,-0.6000,-0.01,-1.01,10.33,43,0.126,8.35
7.0748,-0.08029,-0.04887,0.39968,0.00000,0.00000,0.00000,56,14,11,12,67,0,55,-13,ok,2,0,0.002,7,-0.6000,-0.01,-1.01,10.33,43,0.139,8.35
7.0780,-0.08029,-0.04887,0.39968,0.00000,0.00000,0.00000,56,15,13,13,67,0,53,-13,ok,2,0,0.002,7,-0.6000,-0.01,-1.01,10.33,43,0.152,8.35
7.0908,-0.08029,-0.04887,0.39968,0.00000,0.00000,0.00000,56,16,13,13,68,0,50,-12,ok,2,0,0.002,7,-0.6000,-0.01,-1.01,10.33,43,0.165,8.35
7.1108,-0.08029,-0.04887,0.39968,0.00000,0.00000,0.00000,56,17,14,11,69,1,47,-11,ok,2,0,0.002,7,-0.6000,-0.01,-1.01,10.33,43,0.177,8.35
7.1158,-0.08029,-0.04887,0.39968,0.00000,0.00000,0.00000,56,18,15,11,69,1,45,-11,ok,2,0,0.002,7,-0.6000,-0.01,-1.01,10.33,43,0.190,8.35
7.1284,-0.03142,0.00175,0.33161,0.00000,0.00000,0.00000,57,18,16,10,69,2,41,-10,ok,2,0,0.002,7,-0.5850,0.50,-0.74,10.22,44,0.000,8.35
7.1508,-0.03142,0.00175,0.33161,0.00000,0.00000,0.00000,57,18,17,9,70,3,39,-9,ok,2,0,0.002,7,-0.5700,0.50,-0.74,10.22,44,0.013,8.35
7.1540,-0.03142,0.00175,0.33161,0.00000,0.00000,0.00000,57,20,18,9,70,4,35,-7,ok,2,0,0.002,7,-0.5550,0.50,-0.74,10.22,44,0.026,8.35
7.1666,-0.03142,0.00175,0.33161,0.00000,0.00000,0.00000,58,21,20,8,71,5,34,-6,ok,2,0,0.002,7,-0.5400,0.50,-0.74,10.22,44,0.039,8.35
7.1868,-0.03142,0.00175,0.33161,0.00000,0.00000,0.00000,58,22,21,7,71,6,32,-4,ok,2,0,0.002,7,-0.5250,0.50,-0.74,10.22,44,0.051,8.35
7.1916,-0.03142,0.00175,0.33161,0.00000,0.00000,0.00000,58,23,22,6,71,7,29,-1,ok,2,0,0.002,7,-0.5100,0.50,-0.74,10.22,44,0.064,8.35
7.2042,-0.03142,0.00175,0.33161,0.00000,0.00000,0.00000,59,24,23,6,71,8,28,1,ok,2,0,0.002,7,-0.4950,0.50,-0.74,10.22,44,0.076,8.35
7.2268,-0.03142,0.00175,0.33161,0.00000,0.00000,0.00000,58,25,25,5,71,9,27,5,ok,2,0,0.002,7,-0.4800,0.50,-0.74,10.22,44,0.089,8.35
7.2300,-0.03142,0.00175,0.33161,0.00000,0.00000,0.00000,58,28,26,5,71,10,26,7,ok,2,0,0.002,7,-0.4650,0.50,-0.74,10.22,44,0.102,8.35
7.2426,-0.03142,0.00175,0.33161,0.00000,0.00000,0.00000,58,29,27,4,71,11,29,6,ok,2,0,0.002,7,-0.4500,0.50,-0.74,10.22,44,0.115,8.35
7.2628,-0.03142,0.00175,0.33161,0.00000,0.00000,0.00000,59,28,28,3,71,13,29,6,ok,2,0,0.002,7,-0.4350,0.50,-0.74,10.22,44,0.127,8.35
7.2676,-0.03142,0.00175,0.33161,0.00000,0.00000,0.00000,60,25,30,3,72,14,30,3,ok,2,0,0.002,7,-0.4200,0.50,-0.74,10.22,44,0.140,8.35
7.2802,-0.03142,0.00175,0.33161,0.00000,0.00000,0.00000,62,21,31,2,71,15,31,3,ok,2,0,0.002,7,-0.4050,0.50,-0.74,10.22,44,0.152,8.35
7.3028,-0.03142,0.00175,0.33161,0.00000,0.00000,0.00000,63,17,33,2,71,17,33,3,ok,2,0,0.002,7,-0.3900,0.50,-0.74,10.22,44,0.165,8.35
7.3061,-0.03142,0.00175,0.33161,0.00000,0.00000,0.00000,64,15,34,2,72,18,34,2,ok,2,0,0.002,7,-0.3750,0.50,-0.74,10.22,44,0.178,8.35
7.3190,-0.14835,0.02269,0.38397,0.00000,0.00000,0.00000,63,14,35,1,71,20,36,1,ok,2,0,0.002,7,-0.3712,-1.45,-2.33,10.41,45,0.000,8.35
7.3388,-0.14835,0.02269,0.38397,0.00000,0.00000,0.00000,63,11,36,1,71,21,38,1,ok,2,0,0.002,7,-0.3675,-1.45,-2.33,10.41,45,0.012,8.35
7.3436,-0.14835,0.02269,0.38397,0.00000,0.00000,0.00000,63,7,38,2,71,23,38,2,ok,2,0,0.002,7,-0.3637,-1.45,-2.33,10.41,45,0.025,8.35
7.3562,-0.14835,0.02269,0.38397,0.00000,0.00000,0.00000,63,4,39,2,72,25,40,2,ok,2,0,0.002,7,-0.3600,-1.45,-2.33,10.41,45,0.038,8.35
7.3788,-0.14835,0.02269,0.38397,0.00000,0.00000,0.00000,62,1,40,2,71,27,41,2,ok,2,0,0.002,7,-0.3566,-1.45,-2.33,10.41,45,0.050,8.35
7.3820,-0.14835,0.02269,0.38397,0.00000,0.00000,0.00000,62,-1,42,1,71,28,42,2,ok,2,0,0.002,7,-0.3586,-1.45,-2.33,10.41,45,0.063,8.35
7.3949,-0.14835,0.02269,0.38397,0.00000,0.00000,0.00000,60,-3,44,2,71,28,43,1,ok,2,0,0.002,7,-0.3606,-1.45,-2.33,10.41,45,0.076,8.35
7.4148,-0.14835,0.02269,0.38397,0.00000,0.00000,0.00000,59,-4,44,2,72,28,45,1,ok,2,0,0.002,7,-0.3626,-1.45,-2.33,10.41,45,0.089,8.35
7.4196,-0.14835,0.02269,0.38397,0.00000,0.00000,0.00000,58,-7,46,2,74,25,46,0,ok,2,0,0.002,7,-0.3646,-1.45,-2.33,10.41,45,0.101,8.35
7.4322,-0.14835,0.02269,0.38397,0.00000,0.00000,0.00000,58,-9,47,2,76,21,47,0,ok,2,0,0.002,7,-0.3666,-1.45,-2.33,10.41,45,0.113,8.35
7.4548,-0.14835,0.02269,0.38397,0.00000,0.00000,0.00000,56,-10,48,3,77,16,48,0,ok,2,0,0.002,7,-0.3686,-1.45,-2.33,10.41,45,0.126,8.35
7.4580,-0.14835,0.02269,0.38397,0.00000,0.00000,0.00000,54,-11,50,3,79,14,48,0,ok,2,0,0.002,7,-0.3706,-1.45,-2.33,10.41,45,0.139,8.35
7.4706,-0.14835,0.02269,0.38397,0.00000,0.00000,0.00000,53,-11,50,3,79,13,49,1,ok,2,0,0.002,7,-0.3726,-1.45,-2.33,10.41,45,0.152,8.35
7.4908,-0.14835,0.02269,0.38397,0.00000,0.00000,0.00000,52,-12,50,5,79,11,50,1,ok,2,0,0.002,7,-0.3746,-1.45,-2.33,10.41,45,0.164,8.35
7.4956,-0.14835,0.02269,0.38397,0.00000,0.00000,0.00000,50,-12,52,6,79,7,51,1,ok,2,0,0.002,7,-0.3766,-1.45,-2.33,10.41,45,0.177,8.35
7.5082,-0.14835,0.02269,0.38397,0.00000,0.00000,0.00000,48,-12,53,5,79,4,52,1,ok,2,0,0.002,7,-0.3786,-1.45,-2.33,10.41,45,0.190,8.35
7.5308,0.04189,-0.01396,0.40317,0.00000,0.00000,0.00000,47,-11,54,6,78,2,53,0,ok,2,0,0.002,7,-0.3824,1.15,0.36,10.60,46,0.000,8.35
7.5340,0.04189,-0.01396,0.40317,0.00000,0.00000,0.00000,45,-11,54,7,77,-1,54,0,ok,2,0,0.002,7,-0.3861,1.15,0.36,10.60,46,0.013,8.35
7.5466,0.04189,-0.01396,0.40317,0.00000,0.00000,0.00000,44,-11,56,7,76,-3,55,-1,ok,2,0,0.002,7,-0.3899,1.15,0.36,10.60,46,0.026,8.35
7.5668,0.04189,-0.01396,0.40317,0.00000,0.00000,0.00000,43,-10,57,7,75,-4,56,0,ok,2,0,0.002,7,-0.3936,1.15,0.36,10.60,46,0.039,8.35
7.5716,0.04189,-0.01396,0.40317,0.00000,0.00000,0.00000,41,-9,58,7,74,-8,56,-1,ok,2,0,0.002,7,-0.3974,1.15,0.36,10.60,46,0.051,8.35
7.5842,0.04189,-0.01396,0.40317,0.00000,0.00000,0.00000,39,-8,58,8,71,-7,57,0,ok,2,0,0.002,7,-0.4011,1.15,0.36,10.60,46,0.063,8.35
7.6068,0.04189,-0.01396,0.40317,0.00000,0.00000,0.00000,38,-6,58,8,70,-10,57,0,ok,2,0,0.002,7,-0.4049,1.15,0.36,10.60,46,0.076,8.35
7.6101,0.04189,-0.01396,0.40317,0.00000,0.00000,0.00000,36,-4,59,9,69,-11,58,0,ok,2,0,0.002,7,-0.4086,1.15,0.36,10.60,46,0.089,8.35
7.6226,0.04189,-0.01396,0.40317,0.00000,0.00000,0.00000,34,-2,60,10,66,-13,59,0,ok,2,0,0.002,8,-0.4124,1.15,0.36,10.60,46,0.102,8.35
7.6428,0.04189,-0.01396,0.40317,0.00000,0.00000,0.00000,33,-1,61,11,64,-13,61,0,ok,2,0,0.002,8,-0.4161,1.15,0.36,10.60,46,0.114,8.35
7.6478,0.04189,-0.01396,0.40317,0.00000,0.00000,0.00000,32,1,62,11,62,-14,63,-2,ok,2,0,0.002,8,-0.4199,1.15,0.36,10.60,46,0.127,8.35
7.6602,0.04189,-0.01396,0.40317,0.00000,0.00000,0.00000,31,3,62,12,59,-14,63,-1,ok,2,0,0.002,8,-0.4236,1.15,0.36,10.60,46,0.140,8.35
7.6868,0.04189,-0.01396,0.40317,0.00000,0.00000,0.00000,29,6,63,13,58,-15,64,-1,ok,2,0,0.002,8,-0.4274,1.15,0.36,10.60,46,0.152,8.35
7.6900,0.04189,-0.01396,0.40317,0.00000,0.00000,0.00000,29,10,63,14,55,-14,65,-1,ok,2,0,0.002,8,-0.4311,1.15,0.36,10.60,46,0.169,8.35
7.7026,0.04189,-0.01396,0.40317,0.00000,0.00000,0.00000,28,12,64,15,52,-13,65,-1,ok,2,0,0.002,8,-0.4349,1.15,0.36,10.60,46,0.182,8.35
7.7228,0.04189,-0.01396,0.40317,0.00000,0.00000,0.00000,29,13,64,16,50,-13,66,0,ok,2,0,0.002,8,-0.4386,1.15,0.36,10.60,46,0.194,8.35
7.7279,0.01396,0.00175,0.40317,0.00000,0.00000,0.00000,29,13,64,17,46,-12,67,-1,ok,2,0,0.002,8,-0.4424,0.05,0.06,9.38,47,0.000,8.35
7.7401,0.01396,0.00175,0.40317,0.00000,0.00000,0.00000,30,12,65,17,44,-12,68,0,ok,2,0,0.002,8,-0.4461,0.05,0.06,9.38,47,0.013,8.35
7.7628,0.01396,0.00175,0.40317,0.00000,0.00000,0.00000,31,11,65,18,41,-10,69,1,ok,2,0,0.002,8,-0.4499,0.05,0.06,9.38,47,0.025,8.35
7.7660,0.01396,0.00175,0.40317,0.00000,0.00000,0.00000,31,11,65,19,38,-10,69,2,ok,2,0,0.002,8,-0.4536,0.05,0.06,9.38,47,0.038,8.35
7.7786,0.01396,0.00175,0.40317,0.00000,0.00000,0.00000,33,10,66,19,35,-8,69,2,ok,2,0,0.002,8,-0.4574,0.05,0.06,9.38,47,0.051,8.35
7.7988,0.01396,0.00175,0.40317,0.00000,0.00000,0.00000,33,10,66,21,33,-7,70,3,ok,2,0,0.002,8,-0.4611,0.05,0.06,9.38,47,0.064,8.35
7.8036,0.01396,0.00175,0.40317,0.00000,0.00000,0.00000,34,8,66,21,31,-5,71,4,ok,2,0,0.002,8,-0.4649,0.05,0.06,9.38,47,0.076,8.35
7.8161,0.01396,0.00175,0.40317,0.00000,0.00000,0.00000,35,7,66,22,29,-2,72,5,ok,2,0,0.002,8,-0.4686,0.05,0.06,9.38,47,0.089,8.35
7.8388,0.01396,0.00175,0.40317,0.00000,0.00000,0.00000,36,7,65,23,28,0,71,6,ok,2,0,0.002,8,-0.4724,0.05,0.06,9.38,47,0.101,8.35
7.8420,0.01396,0.00175,0.40317,0.00000,0.00000,0.00000,36,6,65,24,27,4,71,7,ok,2,0,0.002,8,-0.4761,0.05,0.06,9.38,47,0.114,8.35
7.8546,0.01396,0.00175,0.40317,0.00000,0.00000,0.00000,38,6,65,25,26,6,72,8,ok,2,0,0.002,8,-0.4799,0.05,0.06,9.38,47,0.127,8.35
7.8748,0.01396,0.00175,0.40317,0.00000,0.00000,0.00000,38,5,64,28,28,6,72,9,ok,2,0,0.002,8,-0.4836,0.05,0.06,9.38,47,0.140,8.35
7.8796,0.01396,0.00175,0.40317,0.00000,0.00000,0.00000,39,4,64,29,29,5,72,11,ok,2,0,0.002,8,-0.4874,0.05,0.06,9.38,47,0.152,8.35
7.8921,0.01396,0.00175,0.40317,0.00000,0.00000,0.00000,39,4,65,27,30,3,72,12,ok,2,0,0.002,8,-0.4911,0.05,0.06,9.38,47,0.165,8.35
7.9148,0.01396,0.00175,0.40317,0.00000,0.00000,0.00000,40,3,68,25,31,2,73,14,ok,2,0,0.002,8,-0.4949,0.05,0.06,9.38,47,0.177,8.35
7.9183,-0.14137,-0.08203,0.43633,0.00000,0.00000,0.00000,41,3,70,21,32,2,73,16,ok,2,0,0.002,8,-0.4986,-0.99,-2.78,15.13,48,0.000,8.35
7.9306,-0.14137,-0.08203,0.43633,0.00000,0.00000,0.00000,42,2,71,17,33,1,72,18,ok,2,0,0.002,8,-0.5024,-0.99,-2.78,15.13,48,0.013,8.35
7.9508,-0.14137,-0.08203,0.43633,0.00000,0.00000,0.00000,43,2,71,15,34,0,72,20,ok,2,0,0.002,8,-0.5061,-0.99,-2.78,15.13,48,0.025,8.35
7.9558,-0.14137,-0.08203,0.43633,0.00000,0.00000,0.00000,44,0,71,15,37,0,73,21,ok,2,0,0.002,8,-0.5099,-0.99,-2.78,15.13,48,0.038,8.35
7.9682,-0.14137,-0.08203,0.43633,0.00000,0.00000,0.00000,44,0,71,11,37,0,72,23,ok,2,0,0.002,8,-0.5136,-0.99,-2.78,15.13,48,0.050,8.35
7.9908,-0.14137,-0.08203,0.43633,0.00000,0.00000,0.00000,45,0,71,8,39,1,72,24,ok,2,0,0.002,8,-0.5174,-0.99,-2.78,15.13,48,0.063,8.35
7.9941,-0.14137,-0.08203,0.43633,0.00000,0.00000,0.00000,46,0,71,6,40,0,73,25,ok,2,0,0.002,8,-0.5211,-0.99,-2.78,15.13,48,0.076,8.35
8.0067,-0.14137,-0.08203,0.43633,0.00000,0.00000,0.00000,46,0,70,3,41,1,72,26,ok,2,0,0.002,8,-0.5249,-0.99,-2.78,15.13,48,0.089,8.35
8.0268,-0.14137,-0.08203,0.43633,0.00000,0.00000,0.00000,47,-1,69,1,42,0,72,28,ok,2,0,0.002,8,-0.5286,-0.99,-2.78,15.13,48,0.101,8.35
8.0316,-0.14137,-0.08203,0.43633,0.00000,0.00000,0.00000,48,0,68,0,44,0,71,29,ok,2,0,0.002,8,-0.5324,-0.99,-2.78,15.13,48,0.114,8.35
8.0442,-0.14137,-0.08203,0.43633,0.00000,0.00000,0.00000,48,0,66,-2,45,-1,72,29,ok,2,0,0.002,8,-0.5361,-0.99,-2.78,15.13,48,0.126,8.35
8.0668,-0.14137,-0.08203,0.43633,0.00000,0.00000,0.00000,48,0,65,-4,46,-1,73,28,ok,2,0,0.002,8,-0.5399,-0.99,-2.78,15.13,48,0.139,8.35
8.0702,-0.14137,-0.08203,0.43633,0.00000,0.00000,0.00000,49,1,64,-6,48,-1,75,26,ok,2,0,0.002,8,-0.5436,-0.99,-2.78,15.13,48,0.152,8.35
8.0826,-0.14137,-0.08203,0.43633,0.00000,0.00000,0.00000,50,2,62,-7,48,-1,77,21,ok,2,0,0.002,8,-0.5474,-0.99,-2.78,15.13,48,0.165,8.35
8.1028,-0.14137,-0.08203,0.43633,0.00000,0.00000,0.00000,50,1,59,-8,49,-1,78,17,ok,2,0,0.002,8,-0.5511,-0.99,-2.78,15.13,48,0.177,8.35
8.1076,-0.14137,-0.08203,0.43633,0.00000,0.00000,0.00000,50,1,57,-8,50,-1,80,14,ok,2,0,0.002,8,-0.5549,-0.99,-2.78,15.13,48,0.190,8.35
8.1204,-0.14137,-0.08203,0.43633,0.00000,0.00000,0.00000,50,4,54,-9,52,-1,80,13,ok,2,0,0.002,8,-0.5586,-0.99,-2.78,15.13,48,0.202,8.35
8.1428,-0.12566,0.02618,0.45029,0.00000,0.00000,0.00000,51,5,52,-9,53,-1,80,10,ok,2,0,0.002,8,-0.5624,0.04,-1.13,9.29,49,0.000,8.35
8.1461,-0.12566,0.02618,0.45029,0.00000,0.00000,0.00000,51,4,49,-9,54,-1,80,7,ok,2,0,0.002,8,-0.5661,0.04,-1.13,9.29,49,0.013,8.35
8.1586,-0.12566,0.02618,0.45029,0.00000,0.00000,0.00000,51,5,46,-9,55,0,79,4,ok,2,0,0.002,8,-0.5699,0.04,-1.13,9.29,49,0.026,8.35
8.1788,-0.12566,0.02618,0.45029,0.00000,0.00000,0.00000,51,6,43,-9,56,0,79,2,ok,2,0,0.002,8,-0.5736,0.04,-1.13,9.29,49,0.038,8.35
8.1837,-0.12566,0.02618,0.45029,0.00000,0.00000,0.00000,52,6,41,-9,57,1,77,-2,ok,2,0,0.002,8,-0.5774,0.04,-1.13,9.29,49,0.051,8.35
8.1962,-0.12566,0.02618,0.45029,0.00000,0.00000,0.00000,53,6,39,-8,58,0,77,-3,ok,2,0,0.002,8,-0.5811,0.04,-1.13,9.29,49,0.063,8.35
8.2188,-0.12566,0.02618,0.45029,0.00000,0.00000,0.00000,53,7,35,-7,58,1,76,-5,ok,2,0,0.002,8,-0.5849,0.04,-1.13,9.29,49,0.076,8.35
8.2221,-0.12566,0.02618,0.45029,0.00000,0.00000,0.00000,53,8,33,-6,59,1,74,-7,ok,2,0,0.002,8,-0.5886,0.04,-1.13,9.29,49,0.089,8.35
8.2347,-0.12566,0.02618,0.45029,0.00000,0.00000,0.00000,53,8,29,-5,60,1,71,-7,ok,2,0,0.002,8,-0.5924,0.04,-1.13,9.29,49,0.102,8.35
8.2548,-0.12566,0.02618,0.45029,0.00000,0.00000,0.00000,54,9,26,-3,61,1,70,-9,ok,2,0,0.002,8,-0.5961,0.04,-1.13,9.29,49,0.115,8.35
8.2597,-0.12566,0.02618,0.45029,0.00000,0.00000,0.00000,54,10,21,-1,62,0,69,-11,ok,2,0,0.002,8,-0.5999,0.04,-1.13,9.29,49,0.127,8.35
8.2722,-0.12566,0.02618,0.45029,0.00000,0.00000,0.00000,54,10,20,0,64,-2,67,-12,ok,2,0,0.002,8,-0.6000,0.04,-1.13,9.29,49,0.140,8.35
8.2948,-0.12566,0.02618,0.45029,0.00000,0.00000,0.00000,55,11,18,1,65,-1,65,-13,ok,2,0,0.002,8,-0.6000,0.04,-1.13,9.29,49,0.152,8.35
8.2980,-0.12566,0.02618,0.45029,0.00000,0.00000,0.00000,55,11,16,3,66,0,63,-13,ok,2,0,0.002,8,-0.6000,0.04,-1.13,9.29,49,0.165,8.35
8.3107,-0.12566,0.02618,0.45029,0.00000,0.00000,0.00000,55,12,14,7,66,0,60,-14,ok,2,0,0.002,8,-0.6000,0.04,-1.13,9.29,49,0.178,8.35
8.3308,-0.12566,0.02618,0.45029,0.00000,0.00000,0.00000,55,13,13,10,67,0,58,-14,ok,2,0,0.002,8,-0.6000,0.04,-1.13,9.29,49,0.190,8.35
8.3359,-0.02793,-0.02443,0.39619,0.00000,0.00000,0.00000,56,14,11,12,67,0,55,-13,ok,2,0,0.002,8,-0.5962,-0.15,-0.22,8.42,50,0.000,8.35
8.3482,-0.02793,-0.02443,0.39619,0.00000,0.00000,0.00000,56,15,13,13,68,0,53,-12,ok,2,0,0.002,8,-0.5925,-0.15,-0.22,8.42,50,0.012,8.35
8.3708,-0.02793,-0.02443,0.39619,0.00000,0.00000,0.00000,56,16,13,12,68,1,50,-12,ok,2,0,0.002,8,-0.5887,-0.15,-0.22,8.42,50,0.025,8.35
8.3741,-0.02793,-0.02443,0.39619,0.00000,0.00000,0.00000,56,16,14,11,69,1,47,-11,ok,2,0,0.002,8,-0.5850,-0.15,-0.22,8.42,50,0.038,8.35
8.3867,-0.02793,-0.02443,0.39619,0.00000,0.00000,0.00000,56,17,15,11,69,2,45,-11,ok,2,0,0.002,8,-0.5812,-0.15,-0.22,8.42,50,0.051,8.35
8.4068,-0.02793,-0.02443,0.39619,0.00000,0.00000,0.00000,57,18,16,10,69,2,41,-9,ok,2,0,0.002,8,-0.5775,-0.15,-0.22,8.42,50,0.064,8.35
8.4116,-0.02793,-0.02443,0.39619,0.00000,0.00000,0.00000,57,18,17,9,70,3,39,-9,ok,2,0,0.002,8,-0.5737,-0.15,-0.22,8.42,50,0.076,8.35
8.4242,-0.02793,-0.02443,0.39619,0.00000,0.00000,0.00000,57,20,18,8,70,4,35,-7,ok,2,0,0.002,8,-0.5700,-0.15,-0.22,8.42,50,0.089,8.35
8.4468,-0.02793,-0.02443,0.39619,0.00000,0.00000,0.00000,57,21,20,8,71,4,34,-5,ok,2,0,0.002,8,-0.5662,-0.15,-0.22,8.42,50,0.101,8.35
8.4501,-0.02793,-0.02443,0.39619,0.00000,0.00000,0.00000,57,22,21,7,71,6,32,-4,ok,2,0,0.002,8,-0.5625,-0.15,-0.22,8.42,50,0.114,8.35
8.4626,-0.02793,-0.02443,0.39619,0.00000,0.00000,0.00000,58,23,22,6,71,7,30,-1,ok,2,0,0.002,8,-0.5587,-0.15,-0.22,8.42,50,0.127,8.35
8.4828,-0.02793,-0.02443,0.39619,0.00000,0.00000,0.00000,58,24,23,6,71,8,28,2,ok,2,0,0.002,8,-0.5550,-0.15,-0.22,8.42,50,0.140,8.35
8.4880,-0.02793,-0.02443,0.39619,0.00000,0.00000,0.00000,57,25,25,5,71,9,27,5,ok,2,0,0.002,8,-0.5512,-0.15,-0.22,8.42,50,0.152,8.35
8.5003,-0.02793,-0.02443,0.39619,0.00000,0.00000,0.00000,57,28,26,5,71,10,27,7,ok,2,0,0.002,8,-0.5475,-0.15,-0.22,8.42,50,0.165,8.35
8.5268,-0.02793,-0.02443,0.39619,0.00000,0.00000,0.00000,56,29,27,4,71,11,29,6,ok,2,0,0.002,8,-0.5437,-0.15,-0.22,8.42,50,0.177,8.35
8.5303,-0.02269,-0.02618,0.39444,0.00000,0.00000,0.00000,57,28,28,4,71,12,29,6,ok,2,0,0.002,8,-0.5400,0.40,-2.08,7.97,51,0.000,8.35
8.5428,-0.02269,-0.02618,0.39444,0.00000,0.00000,0.00000,58,25,30,3,72,14,30,3,ok,2,0,0.002,8,-0.5362,0.40,-2.08,7.97,51,0.013,8.35
8.5628,-0.02269,-0.02618,0.39444,0.00000,0.00000,0.00000,59,21,31,2,71,15,31,3,ok,2,0,0.002,8,-0.5325,0.40,-2.08,7.97,51,0.025,8.35
8.5676,-0.02269,-0.02618,0.39444,0.00000,0.00000,0.00000,60,17,33,2,71,17,33,3,ok,2,0,0.003,8,-0.5287,0.40,-2.08,7.97,51,0.038,8.35
8.5802,-0.02269,-0.02618,0.39444,0.00000,0.00000,0.00000,60,15,34,2,72,18,34,2,ok,2,0,0.003,8,-0.5250,0.40,-2.08,7.97,51,0.050,8.35
8.6028,-0.02269,-0.02618,0.39444,0.00000,0.00000,0.00000,60,14,35,2,71,20,36,1,ok,2,0,0.003,8,-0.5212,0.40,-2.08,7.97,51,0.063,8.35
8.6060,-0.02269,-0.02618,0.39444,0.00000,0.00000,0.00000,60,11,37,2,71,21,38,1,ok,2,0,0.003,8,-0.5175,0.40,-2.08,7.97,51,0.076,8.35
8.6186,-0.02269,-0.02618,0.39444,0.00000,0.00000,0.00000,60,7,38,2,71,23,39,2,ok,2,0,0.003,8,-0.5137,0.40,-2.08,7.97,51,0.089,8.35
8.6388,-0.02269,-0.02618,0.39444,0.00000,0.00000,0.00000,60,5,39,2,71,25,40,1,ok,2,0,0.003,8,-0.5100,0.40,-2.08,7.97,51,0.101,8.35
8.6436,-0.02269,-0.02618,0.39444,0.00000,0.00000,0.00000,59,1,41,2,71,27,42,1,ok,2,0,0.003,9,-0.5062,0.40,-2.08,7.97,51,0.114,8.35
8.6562,-0.02269,-0.02618,0.39444,0.00000,0.00000,0.00000,59,-1,42,1,71,28,42,1,ok,2,0,0.003,9,-0.5025,0.40,-2.08,7.97,51,0.126,8.35
8.6788,-0.02269,-0.02618,0.39444,0.00000,0.00000,0.00000,58,-3,44,2,71,28,43,1,ok,2,0,0.003,9,-0.4987,0.40,-2.08,7.97,51,0.139,8.35
8.6822,-0.02269,-0.02618,0.39444,0.00000,0.00000,0.00000,57,-4,44,2,72,28,45,1,ok,2,0,0.003,9,-0.4950,0.40,-2.08,7.97,51,0.152,8.35
8.6951,-0.02269,-0.02618,0.39444,0.00000,0.00000,0.00000,57,-6,46,2,74,25,46,0,ok,2,0,0.003,9,-0.4912,0.40,-2.08,7.97,51,0.165,8.35
8.7148,-0.02269,-0.02618,0.39444,0.00000,0.00000,0.00000,56,-8,47,2,76,21,47,0,ok,2,0,0.003,9,-0.4875,0.40,-2.08,7.97,51,0.177,8.35
8.7196,-0.02269,-0.02618,0.39444,0.00000,0.00000,0.00000,55,-9,48,3,77,16,48,0,ok,2,0,0.003,9,-0.4837,0.40,-2.08,7.97,51,0.190,8.35
8.7323,-0.02269,-0.02618,0.39444,0.00000,0.00000,0.00000,54,-10,49,3,79,13,49,0,ok,2,0,0.003,9,-0.4838,0.40,-2.08,7.97,51,0.202,8.35
8.7548,-0.05934,0.02618,0.42412,0.00000,0.00000,0.00000,53,-11,50,3,79,13,49,0,ok,2,0,0.003,9,-0.4876,0.51,-0.52,10.61,52,0.000,8.35
8.7582,-0.05934,0.02618,0.42412,0.00000,0.00000,0.00000,52,-12,50,5,79,11,50,1,ok,2,0,0.003,9,-0.4913,0.51,-0.52,10.61,52,0.013,8.35
8.7706,-0.05934,0.02618,0.42412,0.00000,0.00000,0.00000,51,-12,52,6,79,7,51,0,ok,2,0,0.003,9,-0.4951,0.51,-0.52,10.61,52,0.026,8.35
8.7908,-0.05934,0.02618,0.42412,0.00000,0.00000,0.00000,49,-12,52,5,78,4,53,1,ok,2,0,0.003,9,-0.4988,0.51,-0.52,10.61,52,0.039,8.35
8.7956,-0.05934,0.02618,0.42412,0.00000,0.00000,0.00000,48,-11,53,6,78,2,53,0,ok,2,0,0.003,9,-0.5026,0.51,-0.52,10.61,52,0.051,8.35
8.8084,-0.05934,0.02618,0.42412,0.00000,0.00000,0.00000,47,-11,54,7,77,-1,54,1,ok,2,0,0.003,9,-0.5063,0.51,-0.52,10.61,52,0.064,8.35
8.8308,-0.05934,0.02618,0.42412,0.00000,0.00000,0.00000,46,-11,56,7,76,-4,55,0,ok,2,0,0.003,9,-0.5101,0.51,-0.52,10.61,52,0.076,8.35
8.8340,-0.05934,0.02618,0.42412,0.00000,0.00000,0.00000,45,-10,56,7,75,-5,56,1,ok,2,0,0.003,9,-0.5138,0.51,-0.52,10.61,52,0.089,8.35
8.8466,-0.05934,0.02618,0.42412,0.00000,0.00000,0.00000,43,-9,57,8,74,-8,56,-1,ok,2,0,0.003,9,-0.5176,0.51,-0.52,10.61,52,0.102,8.35
8.8668,-0.05934,0.02618,0.42412,0.00000,0.00000,0.00000,42,-8,57,8,71,-7,57,0,ok,2,0,0.003,9,-0.5213,0.51,-0.52,10.61,52,0.115,8.35
8.8716,-0.05934,0.02618,0.42412,0.00000,0.00000,0.00000,40,-6,58,8,70,-10,57,0,ok,2,0,0.003,9,-0.5251,0.51,-0.52,10.61,52,0.127,8.35
8.8844,-0.05934,0.02618,0.42412,0.00000,0.00000,0.00000,39,-5,59,9,69,-11,59,1,ok,2,0,0.003,9,-0.5288,0.51,-0.52,10.61,52,0.140,8.35
8.9068,-0.05934,0.02618,0.42412,0.00000,0.00000,0.00000,37,-2,60,11,66,-13,60,0,ok,2,0,0.003,9,-0.5326,0.51,-0.52,10.61,52,0.152,8.35
8.9100,-0.05934,0.02618,0.42412,0.00000,0.00000,0.00000,36,-1,61,11,64,-13,60,0,ok,2,0,0.003,9,-0.5363,0.51,-0.52,10.61,52,0.165,8.35
8.9226,-0.05934,0.02618,0.42412,0.00000,0.00000,0.00000,36,0,62,11,62,-13,63,-2,ok,2,0,0.003,9,-0.5401,0.51,-0.52,10.61,52,0.178,8.35
8.9428,-0.05934,0.02618,0.42412,0.00000,0.00000,0.00000,35,3,62,12,60,-14,63,-1,ok,2,0,0.003,9,-0.5438,0.51,-0.52,10.61,52,0.190,8.35
8.9479,0.06807,0.00000,0.43284,0.00000,0.00000,0.00000,34,6,63,13,58,-15,64,-1,ok,2,0,0.003,9,-0.5476,-0.10,0.66,10.17,53,0.000,8.35
8.9602,0.06807,0.00000,0.43284,0.00000,0.00000,0.00000,33,10,63,14,55,-14,65,-1,ok,2,0,0.003,9,-0.5513,-0.10,0.66,10.17,53,0.012,8.35
8.9828,0.06807,0.00000,0.43284,0.00000,0.00000,0.00000,33,12,64,15,52,-13,65,-1,ok,2,0,0.003,9,-0.5551,-0.10,0.66,10.17,53,0.025,8.35
8.9860,0.06807,0.00000,0.43284,0.00000,0.00000,0.00000,33,13,64,16,50,-13,66,-1,ok,2,0,0.003,9,-0.5588,-0.10,0.66,10.17,53,0.038,8.35
8.9986,0.06807,0.00000,0.43284,0.00000,0.00000,0.00000,33,13,64,17,47,-12,67,-1,ok,2,0,0.003,9,-0.5626,-0.10,0.66,10.17,53,0.051,8.35
9.0188,0.06807,0.00000,0.43284,0.00000,0.00000,0.00000,34,12,65,17,44,-11,68,0,ok,2,0,0.003,9,-0.5663,-0.10,0.66,10.17,53,0.064,8.35
9.0238,0.06807,0.00000,0.43284,0.00000,0.00000,0.00000,35,12,65,18,41,-10,68,0,ok,2,0,0.003,9,-0.5701,-0.10,0.66,10.17,53,0.076,8.35
9.0362,0.06807,0.00000,0.43284,0.00000,0.00000,0.00000,36,11,65,18,38,-10,69,2,ok,2,0,0.003,9,-0.5738,-0.10,0.66,10.17,53,0.089,8.35
9.0588,0.06807,0.00000,0.43284,0.00000,0.00000,0.00000,36,10,65,19,35,-8,69,2,ok,2,0,0.003,9,-0.5776,-0.10,0.66,10.17,53,0.101,8.35
9.0620,0.06807,0.00000,0.43284,0.00000,0.00000,0.00000,37,10,65,20,33,-7,70,3,ok,2,0,0.003,9,-0.5813,-0.10,0.66,10.17,53,0.114,8.35
9.0747,0.06807,0.00000,0.43284,0.00000,0.00000,0.00000,38,9,66,21,31,-5,71,5,ok,2,0,0.003,9,-0.5851,-0.10,0.66,10.17,53,0.127,8.35
9.0948,0.06807,0.00000,0.43284,0.00000,0.00000,0.00000,38,8,66,22,29,-2,72,5,ok,2,0,0.003,9,-0.5888,-0.10,0.66,10.17,53,0.140,8.35
9.0998,0.06807,0.00000,0.43284,0.00000,0.00000,0.00000,39,7,65,23,28,0,72,6,ok,2,0,0.003,9,-0.5926,-0.10,0.66,10.17,53,0.152,8.35
9.1122,0.06807,0.00000,0.43284,0.00000,0.00000,0.00000,40,6,65,24,27,4,72,7,ok,2,0,0.003,9,-0.5963,-0.10,0.66,10.17,53,0.165,8.35
9.1348,0.06807,0.00000,0.43284,0.00000,0.00000,0.00000,40,6,65,25,26,6,72,8,ok,2,0,0.003,9,-0.6000,-0.10,0.66,10.17,53,0.177,8.35
9.1383,-0.03665,-0.03840,0.41015,0.00000,0.00000,0.00000,41,5,64,28,28,6,72,9,ok,2,0,0.003,9,-0.6000,-0.97,-0.18,11.81,54,0.000,8.35
9.1507,-0.03665,-0.03840,0.41015,0.00000,0.00000,0.00000,41,4,64,29,28,5,73,11,ok,2,0,0.003,9,-0.6000,-0.97,-0.18,11.81,54,0.013,8.35
9.1708,-0.03665,-0.03840,0.41015,0.00000,0.00000,0.00000,42,4,65,28,30,3,73,13,ok,2,0,0.003,9,-0.6000,-0.97,-0.18,11.81,54,0.025,8.35
9.1756,-0.03665,-0.03840,0.41015,0.00000,0.00000,0.00000,42,3,67,25,31,2,73,15,ok,2,0,0.003,9,-0.6000,-0.97,-0.18,11.81,54,0.038,8.35
9.1884,-0.03665,-0.03840,0.41015,0.00000,0.00000,0.00000,43,2,70,21,32,2,73,16,ok,2,0,0.003,9,-0.6000,-0.97,-0.18,11.81,54,0.050,8.35
9.2108,-0.03665,-0.03840,0.41015,0.00000,0.00000,0.00000,44,2,71,17,33,1,73,18,ok,2,0,0.003,9,-0.6000,-0.97,-0.18,11.81,54,0.063,8.35
9.2140,-0.03665,-0.03840,0.41015,0.00000,0.00000,0.00000,44,2,72,15,34,0,73,20,ok,2,0,0.003,9,-0.6000,-0.97,-0.18,11.81,54,0.076,8.35
9.2268,-0.03665,-0.03840,0.41015,0.00000,0.00000,0.00000,44,1,72,15,37,1,73,20,ok,2,0,0.003,9,-0.6000,-0.97,-0.18,11.81,54,0.089,8.35
9.2468,-0.03665,-0.03840,0.41015,0.00000,0.00000,0.00000,45,1,72,11,37,1,72,22,ok,2,0,0.003,9,-0.6000,-0.97,-0.18,11.81,54,0.101,8.35
9.2516,-0.03665,-0.03840,0.41015,0.00000,0.00000,0.00000,46,1,71,8,39,1,72,23,ok,2,0,0.003,9,-0.6000,-0.97,-0.18,11.81,54,0.114,8.35
9.2642,-0.03665,-0.03840,0.41015,0.00000,0.00000,0.00000,46,1,71,5,40,1,72,24,ok,2,0,0.003,9,-0.6000,-0.97,-0.18,11.81,54,0.126,8.35
9.2868,-0.03665,-0.03840,0.41015,0.00000,0.00000,0.00000,47,0,70,3,41,1,72,26,ok,2,0,0.003,9,-0.6000,-0.97,-0.18,11.81,54,0.139,8.35
9.2900,-0.03665,-0.03840,0.41015,0.00000,0.00000,0.00000,47,0,69,1,42,0,72,28,ok,2,0,0.003,9,-0.6000,-0.97,-0.18,11.81,54,0.152,8.35
9.3028,-0.03665,-0.03840,0.41015,0.00000,0.00000,0.00000,48,0,68,-1,44,0,71,29,ok,2,0,0.003,9,-0.6000,-0.97,-0.18,11.81,54,0.165,8.35
9.3228,-0.03665,-0.03840,0.41015,0.00000,0.00000,0.00000,48,0,66,-2,45,-1,72,29,ok,2,0,0.003,9,-0.6000,-0.97,-0.18,11.81,54,0.177,8.35
9.3276,-0.03665,-0.03840,0.41015,0.00000,0.00000,0.00000,49,1,65,-4,46,-1,73,28,ok,2,0,0.003,9,-0.6000,-0.97,-0.18,11.81,54,0.190,8.35
9.3405,-0.16406,-0.06458,0.39270,0.00000,0.00000,0.00000,49,1,64,-6,47,-1,75,26,ok,2,0,0.003,9,-0.5962,0.18,-1.98,10.72,55,0.000,8.35
9.3628,-0.16406,-0.06458,0.39270,0.00000,0.00000,0.00000,50,1,61,-7,48,-1,77,21,ok,2,0,0.003,9,-0.5925,0.18,-1.98,10.72,55,0.013,8.35
9.3660,-0.16406,-0.06458,0.39270,0.00000,0.00000,0.00000,50,1,59,-8,49,-1,78,17,ok,2,0,0.003,9,-0.5887,0.18,-1.98,10.72,55,0.026,8.35
9.3786,-0.16406,-0.06458,0.39270,0.00000,0.00000,0.00000,50,1,56,-8,50,-1,80,14,ok,2,0,0.003,9,-0.5850,0.18,-1.98,10.72,55,0.039,8.35
9.3988,-0.16406,-0.06458,0.39270,0.00000,0.00000,0.00000,50,3,54,-9,52,-1,80,14,ok,2,0,0.003,9,-0.5812,0.18,-1.98,10.72,55,0.051,8.35
9.4037,-0.16406,-0.06458,0.39270,0.00000,0.00000,0.00000,51,4,52,-9,53,-1,80,11,ok,2,0,0.003,9,-0.5775,0.18,-1.98,10.72,55,0.063,8.35
9.4164,-0.16406,-0.06458,0.39270,0.00000,0.00000,0.00000,51,4,49,-9,54,-1,80,7,ok,2,0,0.003,9,-0.5737,0.18,-1.98,10.72,55,0.076,8.35
9.4388,-0.16406,-0.06458,0.39270,0.00000,0.00000,0.00000,51,5,46,-8,55,0,80,4,ok,2,0,0.003,9,-0.5732,0.18,-1.98,10.72,55,0.089,8.35
9.4420,-0.16406,-0.06458,0.39270,0.00000,0.00000,0.00000,51,6,44,-9,56,0,79,2,ok,2,0,0.003,9,-0.5752,0.18,-1.98,10.72,55,0.102,8.35
9.4549,-0.16406,-0.06458,0.39270,0.00000,0.00000,0.00000,52,6,41,-9,57,0,78,-2,ok,2,0,0.003,9,-0.5773,0.18,-1.98,10.72,55,0.115,8.35
9.4748,-0.16406,-0.06458,0.39270,0.00000,0.00000,0.00000,53,6,39,-8,58,0,78,-3,ok,2,0,0.003,9,-0.5794,0.18,-1.98,10.72,55,0.127,8.35
9.4796,-0.16406,-0.06458,0.39270,0.00000,0.00000,0.00000,53,7,36,-7,58,0,76,-5,ok,2,0,0.003,9,-0.5814,0.18,-1.98,10.72,55,0.140,8.35
9.4922,-0.16406,-0.06458,0.39270,0.00000,0.00000,0.00000,53,8,33,-6,59,0,74,-7,ok,2,0,0.003,9,-0.5835,0.18,-1.98,10.72,55,0.152,8.35
9.5148,-0.16406,-0.06458,0.39270,0.00000,0.00000,0.00000,53,8,29,-5,60,0,71,-7,ok,2,0,0.003,9,-0.5856,0.18,-1.98,10.72,55,0.165,8.35
9.5180,-0.16406,-0.06458,0.39270,0.00000,0.00000,0.00000,54,9,26,-3,61,0,70,-9,ok,2,0,0.003,9,-0.5876,0.18,-1.98,10.72,55,0.178,8.35
9.5306,-0.16406,-0.06458,0.39270,0.00000,0.00000,0.00000,55,10,22,-1,62,0,69,-11,ok,2,0,0.003,9,-0.5897,0.18,-1.98,10.72,55,0.191,8.35
9.5508,-0.16406,-0.06458,0.39270,0.00000,0.00000,0.00000,54,10,20,0,64,-2,67,-12,ok,2,0,0.003,9,-0.5917,0.18,-1.98,10.72,55,0.203,8.35
9.5559,-0.06283,0.00873,0.31940,0.00000,0.00000,0.00000,55,11,19,1,64,-2,64,-13,ok,2,0,0.003,9,-0.5767,0.29,-0.30,10.38,56,0.000,8.35
9.5681,-0.06283,0.00873,0.31940,0.00000,0.00000,0.00000,55,11,17,3,65,0,63,-14,ok,2,0,0.003,9,-0.5617,0.29,-0.30,10.38,56,0.012,8.35
9.5908,-0.06283,0.00873,0.31940,0.00000,0.00000,0.00000,55,12,15,7,66,0,60,-14,ok,2,0,0.003,9,-0.5467,0.29,-0.30,10.38,56,0.025,8.35
9.5942,-0.06283,0.00873,0.31940,0.00000,0.00000,0.00000,56,13,13,10,66,0,58,-15,ok,2,0,0.003,9,-0.5317,0.29,-0.30,10.38,56,0.038,8.35
9.6068,-0.06283,0.00873,0.31940,0.00000,0.00000,0.00000,56,14,11,12,67,0,55,-13,ok,2,0,0.003,9,-0.5167,0.29,-0.30,10.38,56,0.051,8.35
9.6268,-0.06283,0.00873,0.31940,0.00000,0.00000,0.00000,57,15,13,13,67,0,52,-13,ok,2,0,0.003,9,-0.5017,0.29,-0.30,10.38,56,0.064,8.35
9.6316,-0.06283,0.00873,0.31940,0.00000,0.00000,0.00000,57,16,12,12,68,1,50,-12,ok,2,0,0.003,9,-0.4867,0.29,-0.30,10.38,56,0.076,8.35
9.6442,-0.06283,0.00873,0.31940,0.00000,0.00000,0.00000,58,17,14,11,69,1,47,-11,ok,2,0,0.003,9,-0.4717,0.29,-0.30,10.38,56,0.089,8.35
9.6668,-0.06283,0.00873,0.31940,0.00000,0.00000,0.00000,58,18,15,10,69,2,45,-11,ok,2,0,0.003,9,-0.4567,0.29,-0.30,10.38,56,0.101,8.35
9.6700,-0.06283,0.00873,0.31940,0.00000,0.00000,0.00000,59,18,16,10,69,2,41,-9,ok,2,0,0.003,10,-0.4417,0.29,-0.30,10.38,56,0.114,8.35
9.6826,-0.06283,0.00873,0.31940,0.00000,0.00000,0.00000,59,18,17,9,70,3,39,-9,ok,2,0,0.003,10,-0.4267,0.29,-0.30,10.38,56,0.127,8.35
9.7028,-0.06283,0.00873,0.31940,0.00000,0.00000,0.00000,59,20,18,8,70,4,35,-7,ok,2,0,0.003,10,-0.4117,0.29,-0.30,10.38,56,0.140,8.35
9.7076,-0.06283,0.00873,0.31940,0.00000,0.00000,0.00000,60,21,20,8,71,5,34,-5,ok,2,0,0.003,10,-0.3967,0.29,-0.30,10.38,56,0.152,8.35
9.7202,-0.06283,0.00873,0.31940,0.00000,0.00000,0.00000,61,22,21,7,71,6,32,-4,ok,2,0,0.003,10,-0.3817,0.29,-0.30,10.38,56,0.165,8.35
9.7428,-0.06283,0.00873,0.31940,0.00000,0.00000,0.00000,61,23,22,6,71,7,30,-1,ok,2,0,0.003,10,-0.3667,0.29,-0.30,10.38,56,0.177,8.35
9.7462,-0.06283,0.00873,0.31940,0.00000,0.00000,0.00000,61,24,23,6,71,8,28,2,ok,2,0,0.003,10,-0.3517,0.29,-0.30,10.38,56,0.190,8.35
9.7590,-0.06109,-0.00698,0.30543,0.00000,0.00000,0.00000,61,25,25,5,72,9,27,5,ok,2,0,0.003,10,-0.3367,0.75,-1.09,10.38,57,0.000,8.35
9.7788,-0.06109,-0.00698,0.30543,0.00000,0.00000,0.00000,60,28,26,5,72,10,27,7,ok,2,0,0.003,10,-0.3217,0.75,-1.09,10.38,57,0.013,8.35
9.7837,-0.06109,-0.00698,0.30543,0.00000,0.00000,0.00000,60,29,27,4,71,11,29,6,ok,2,0,0.003,10,-0.3067,0.75,-1.09,10.38,57,0.025,8.35
9.7962,-0.06109,-0.00698,0.30543,0.00000,0.00000,0.00000,61,28,28,3,72,13,29,6,ok,2,0,0.003,10,-0.2917,0.75,-1.09,10.38,57,0.038,8.35
9.8188,-0.06109,-0.00698,0.30543,0.00000,0.00000,0.00000,63,25,30,3,72,14,30,3,ok,2,0,0.003,10,-0.2767,0.75,-1.09,10.38,57,0.050,8.35
9.8220,-0.06109,-0.00698,0.30543,0.00000,0.00000,0.00000,65,21,31,2,71,15,31,3,ok,2,0,0.003,10,-0.2617,0.75,-1.09,10.38,57,0.063,8.35
9.8346,-0.06109,-0.00698,0.30543,0.00000,0.00000,0.00000,66,17,33,2,71,17,33,3,ok,2,0,0.003,10,-0.2467,0.75,-1.09,10.38,57,0.076,8.35
9.8588,-0.06109,-0.00698,0.30543,0.00000,0.00000,0.00000,66,15,34,2,72,18,34,2,ok,2,0,0.003,10,-0.2317,0.75,-1.09,10.38,57,0.088,8.35
9.8622,-0.06109,-0.00698,0.30543,0.00000,0.00000,0.00000,66,14,35,1,71,20,36,1,ok,2,0,0.003,10,-0.2167,0.75,-1.09,10.38,57,0.103,8.35
9.8748,-0.06109,-0.00698,0.30543,0.00000,0.00000,0.00000,67,11,37,1,71,21,38,1,ok,2,0,0.003,10,-0.2017,0.75,-1.09,10.38,57,0.116,8.35
9.8948,-0.06109,-0.00698,0.30543,0.00000,0.00000,0.00000,66,7,38,2,71,23,38,2,ok,2,0,0.003,10,-0.1867,0.75,-1.09,10.38,57,0.129,8.35
9.8997,-0.06109,-0.00698,0.30543,0.00000,0.00000,0.00000,66,5,39,2,72,25,40,1,ok,2,0,0.003,10,-0.1830,0.75,-1.09,10.38,57,0.141,8.35
9.9121,-0.06109,-0.00698,0.30543,0.00000,0.00000,0.00000,66,1,41,1,71,27,41,1,ok,2,0,0.003,10,-0.1792,0.75,-1.09,10.38,57,0.154,8.35
9.9348,-0.06109,-0.00698,0.30543,0.00000,0.00000,0.00000,64,-1,42,1,71,28,42,1,ok,2,0,0.003,10,-0.1755,0.75,-1.09,10.38,57,0.166,8.35
9.9380,-0.06109,-0.00698,0.30543,0.00000,0.00000,0.00000,63,-3,44,2,71,28,43,1,ok,2,0,0.003,10,-0.1717,0.75,-1.09,10.38,57,0.179,8.35
9.9508,-0.06109,-0.00698,0.30543,0.00000,0.00000,0.00000,62,-4,44,2,72,28,44,1,ok,2,0,0.003,10,-0.1680,0.75,-1.09,10.38,57,0.192,8.35
9.9708,-0.04538,-0.05585,0.37001,0.00000,0.00000,0.00000,61,-6,46,2,74,25,46,0,ok,2,0,0.003,10,-0.1717,-0.94,0.15,9.99,58,0.000,8.35
9.9756,-0.04538,-0.05585,0.37001,0.00000,0.00000,0.00000,60,-8,47,2,76,21,47,0,ok,2,0,0.003,10,-0.1755,-0.94,0.15,9.99,58,0.012,8.35
9.9881,-0.04538,-0.05585,0.37001,0.00000,0.00000,0.00000,58,-9,48,3,77,16,48,0,ok,2,0,0.003,10,-0.1792,-0.94,0.15,9.99,58,0.025,8.35
10.0108,-0.04538,-0.05585,0.37001,0.00000,0.00000,0.00000,57,-10,50,3,79,13,49,0,ok,2,0,0.003,10,-0.1830,-0.94,0.15,9.99,58,0.037,8.35
10.0140,-0.04538,-0.05585,0.37001,0.00000,0.00000,0.00000,54,-11,50,3,79,13,49,0,ok,2,0,0.003,10,-0.1867,-0.94,0.15,9.99,58,0.051,8.35
10.0346,-0.04538,-0.05585,0.37001,0.00000,0.00000,0.00000,52,-12,50,5,79,10,51,0,ok,2,0,0.003,10,-0.1905,-0.94,0.15,9.99,58,0.063,8.35
10.0468,-0.04538,-0.05585,0.37001,0.00000,0.00000,0.00000,50,-11,52,6,79,7,51,0,ok,2,0,0.003,10,-0.1942,-0.94,0.15,9.99,58,0.076,8.35
10.0517,-0.04538,-0.05585,0.37001,0.00000,0.00000,0.00000,48,-11,53,5,78,4,53,0,ok,2,0,0.003,10,-0.1980,-0.94,0.15,9.99,58,0.088,8.35
10.0641,-0.04538,-0.05585,0.37001,0.00000,0.00000,0.00000,47,-11,54,6,78,2,53,0,ok,2,0,0.003,10,-0.2017,-0.94,0.15,9.99,58,0.101,8.35
10.0868,-0.04538,-0.05585,0.37001,0.00000,0.00000,0.00000,44,-11,54,7,77,-2,54,1,ok,2,0,0.003,10,-0.2055,-0.94,0.15,9.99,58,0.113,8.35
10.0900,-0.04538,-0.05585,0.37001,0.00000,0.00000,0.00000,43,-11,56,7,76,-4,54,0,ok,2,0,0.003,10,-0.2092,-0.94,0.15,9.99,58,0.127,8.35
10.1027,-0.04538,-0.05585,0.37001,0.00000,0.00000,0.00000,41,-10,56,7,75,-5,56,0,ok,2,0,0.003,10,-0.2130,-0.94,0.15,9.99,58,0.139,8.35
10.1228,-0.04538,-0.05585,0.37001,0.00000,0.00000,0.00000,38,-9,57,8,73,-8,56,-1,ok,2,0,0.003,10,-0.2167,-0.94,0.15,9.99,58,0.152,8.35
10.1277,-0.04538,-0.05585,0.37001,0.00000,0.00000,0.00000,37,-8,58,8,71,-8,57,0,ok,2,0,0.003,10,-0.2205,-0.94,0.15,9.99,58,0.164,8.35
10.1402,-0.04538,-0.05585,0.37001,0.00000,0.00000,0.00000,34,-6,58,9,70,-10,57,0,ok,2,0,0.003,10,-0.2242,-0.94,0.15,9.99,58,0.177,8.35
10.1628,0.04887,-0.01571,0.37874,0.00000,0.00000,0.00000,31,-4,59,9,68,-12,59,0,ok,2,0,0.003,10,-0.2280,-0.11,0.45,10.14,59,0.000,8.35
10.1662,0.04887,-0.01571,0.37874,0.00000,0.00000,0.00000,28,-2,60,11,66,-13,59,0,ok,2,0,0.003,10,-0.2317,-0.11,0.45,10.14,59,0.013,8.35
10.1787,0.04887,-0.01571,0.37874,0.00000,0.00000,0.00000,27,-1,61,11,64,-13,60,0,ok,2,0,0.003,10,-0.2355,-0.11,0.45,10.14,59,0.026,8.35
10.1988,0.04887,-0.01571,0.37874,0.00000,0.00000,0.00000,26,1,62,11,62,-14,63,-3,ok,2,0,0.003,10,-0.2392,-0.11,0.45,10.14,59,0.039,8.35
10.2036,0.04887,-0.01571,0.37874,0.00000,0.00000,0.00000,25,3,63,12,59,-14,63,-2,ok,2,0,0.003,10,-0.2430,-0.11,0.45,10.14,59,0.051,8.35
10.2161,0.04887,-0.01571,0.37874,0.00000,0.00000,0.00000,23,7,63,13,58,-15,64,-2,ok,2,0,0.003,10,-0.2467,-0.11,0.45,10.14,59,0.064,8.35
10.2388,0.04887,-0.01571,0.37874,0.00000,0.00000,0.00000,22,10,63,14,55,-14,65,-1,ok,2,0,0.003,10,-0.2505,-0.11,0.45,10.14,59,0.076,8.35
10.2421,0.04887,-0.01571,0.37874,0.00000,0.00000,0.00000,21,13,64,15,52,-13,65,-1,ok,2,0,0.003,10,-0.2542,-0.11,0.45,10.14,59,0.089,8.35
10.2546,0.04887,-0.01571,0.37874,0.00000,0.00000,0.00000,23,13,64,16,50,-13,66,0,ok,2,0,0.003,10,-0.2580,-0.11,0.45,10.14,59,0.102,8.35
10.2748,0.04887,-0.01571,0.37874,0.00000,0.00000,0.00000,23,13,64,17,46,-12,67,-1,ok,2,0,0.003,10,-0.2617,-0.11,0.45,10.14,59,0.115,8.35
10.2797,0.04887,-0.01571,0.37874,0.00000,0.00000,0.00000,24,12,65,17,44,-12,68,0,ok,2,0,0.003,10,-0.2655,-0.11,0.45,10.14,59,0.127,8.35
10.2922,0.04887,-0.01571,0.37874,0.00000,0.00000,0.00000,25,12,65,18,41,-10,69,0,ok,2,0,0.003,10,-0.2692,-0.11,0.45,10.14,59,0.140,8.35
10.3148,0.04887,-0.01571,0.37874,0.00000,0.00000,0.00000,25,11,65,19,38,-10,69,2,ok,2,0,0.003,10,-0.2730,-0.11,0.45,10.14,59,0.152,8.35
10.3182,0.04887,-0.01571,0.37874,0.00000,0.00000,0.00000,27,10,66,19,35,-8,69,2,ok,2,0,0.003,10,-0.2767,-0.11,0.45,10.14,59,0.165,8.35
10.3308,0.04887,-0.01571,0.37874,0.00000,0.00000,0.00000,28,10,66,21,33,-7,70,3,ok,2,0,0.003,10,-0.2805,-0.11,0.45,10.14,59,0.178,8.35
10.3508,0.04887,-0.01571,0.37874,0.00000,0.00000,0.00000,29,8,66,21,31,-5,71,4,ok,2,0,0.003,10,-0.2842,-0.11,0.45,10.14,59,0.191,8.35
10.3559,-0.09250,-0.05934,0.38746,0.00000,0.00000,0.00000,30,8,66,22,29,-2,72,5,ok,2,0,0.003,10,-0.2880,0.80,-0.76,11.68,60,0.000,8.35
10.3681,-0.09250,-0.05934,0.38746,0.00000,0.00000,0.00000,31,7,65,23,28,0,71,6,ok,2,0,0.003,10,-0.2917,0.80,-0.76,11.68,60,0.013,8.35
10.3908,-0.09250,-0.05934,0.38746,0.00000,0.00000,0.00000,32,6,65,24,27,3,71,8,ok,2,0,0.003,10,-0.2955,0.80,-0.76,11.68,60,0.025,8.35
10.3940,-0.09250,-0.05934,0.38746,0.00000,0.00000,0.00000,33,5,65,25,26,5,72,9,ok,2,0,0.003,10,-0.2992,0.80,-0.76,11.68,60,0.038,8.35
10.4066,-0.09250,-0.05934,0.38746,0.00000,0.00000,0.00000,34,5,64,28,28,5,72,10,ok,2,0,0.003,10,-0.3030,0.80,-0.76,11.68,60,0.051,8.35
10.4268,-0.09250,-0.05934,0.38746,0.00000,0.00000,0.00000,35,4,64,29,28,5,72,11,ok,2,0,0.003,10,-0.3067,0.80,-0.76,11.68,60,0.063,8.35
10.4317,-0.09250,-0.05934,0.38746,0.00000,0.00000,0.00000,36,4,65,28,30,2,72,12,ok,2,0,0.003,10,-0.3105,0.80,-0.76,11.68,60,0.076,8.35
10.4441,-0.09250,-0.05934,0.38746,0.00000,0.00000,0.00000,37,3,68,25,31,2,73,14,ok,2,0,0.003,10,-0.3142,0.80,-0.76,11.68,60,0.088,8.35
10.4668,-0.09250,-0.05934,0.38746,0.00000,0.00000,0.00000,38,2,70,21,32,2,73,16,ok,2,0,0.003,10,-0.3180,0.80,-0.76,11.68,60,0.101,8.35
10.4702,-0.09250,-0.05934,0.38746,0.00000,0.00000,0.00000,38,2,71,17,33,1,72,17,ok,2,0,0.003,10,-0.3217,0.80,-0.76,11.68,60,0.114,8.35
10.4827,-0.09250,-0.05934,0.38746,0.00000,0.00000,0.00000,39,2,72,15,34,0,72,19,ok,2,0,0.003,10,-0.3255,0.80,-0.76,11.68,60,0.127,8.35
10.5028,-0.09250,-0.05934,0.38746,0.00000,0.00000,0.00000,41,1,72,15,37,0,73,20,ok,2,0,0.003,10,-0.3292,0.80,-0.76,11.68,60,0.139,8.35
10.5076,-0.09250,-0.05934,0.38746,0.00000,0.00000,0.00000,41,1,72,11,37,0,72,22,ok,2,0,0.003,10,-0.3330,0.80,-0.76,11.68,60,0.152,8.35
10.5201,-0.09250,-0.05934,0.38746,0.00000,0.00000,0.00000,43,1,71,8,39,1,71,23,ok,2,0,0.003,10,-0.3367,0.80,-0.76,11.68,60,0.164,8.35
10.5428,-0.09250,-0.05934,0.38746,0.00000,0.00000,0.00000,43,1,71,5,40,0,72,24,ok,2,0,0.003,10,-0.3405,0.80,-0.76,11.68,60,0.177,8.35
10.5461,-0.09250,-0.05934,0.38746,0.00000,0.00000,0.00000,45,0,70,3,41,1,72,26,ok,2,0,0.003,10,-0.3442,0.80,-0.76,11.68,60,0.190,8.35
10.5590,-0.14835,-0.05934,0.46251,0.00000,0.00000,0.00000,45,0,69,1,42,0,71,28,ok,2,0,0.003,10,-0.3480,0.24,-1.70,9.16,61,0.000,8.35
10.5788,-0.14835,-0.05934,0.46251,0.00000,0.00000,0.00000,47,0,68,-1,44,0,71,29,ok,2,0,0.003,10,-0.3517,0.24,-1.70,9.16,61,0.013,8.35
10.5837,-0.14835,-0.05934,0.46251,0.00000,0.00000,0.00000,47,0,66,-2,45,-1,72,29,ok,2,0,0.003,10,-0.3555,0.24,-1.70,9.16,61,0.025,8.35
10.5963,-0.14835,-0.05934,0.46251,0.00000,0.00000,0.00000,48,0,65,-4,46,-1,73,28,ok,2,0,0.003,10,-0.3592,0.24,-1.70,9.16,61,0.038,8.35
10.6188,-0.14835,-0.05934,0.46251,0.00000,0.00000,0.00000,49,0,64,-6,48,-1,75,26,ok,2,0,0.003,10,-0.3630,0.24,-1.70,9.16,61,0.050,8.35
10.6220,-0.14835,-0.05934,0.46251,0.00000,0.00000,0.00000,49,1,61,-7,48,-1,77,21,ok,2,0,0.003,10,-0.3667,0.24,-1.70,9.16,61,0.063,8.35
10.6347,-0.14835,-0.05934,0.46251,0.00000,0.00000,0.00000,50,1,59,-8,49,-1,78,17,ok,2,0,0.003,10,-0.3705,0.24,-1.70,9.16,61,0.076,8.35
10.6548,-0.14835,-0.05934,0.46251,0.00000,0.00000,0.00000,51,1,57,-8,51,-1,80,14,ok,2,0,0.003,10,-0.3742,0.24,-1.70,9.16,61,0.089,8.35
10.6596,-0.14835,-0.05934,0.46251,0.00000,0.00000,0.00000,51,3,54,-9,52,-1,80,13,ok,2,0,0.003,10,-0.3780,0.24,-1.70,9.16,61,0.101,8.35
10.6721,-0.14835,-0.05934,0.46251,0.00000,0.00000,0.00000,51,4,52,-9,53,-1,80,10,ok,2,0,0.003,10,-0.3817,0.24,-1.70,9.16,61,0.114,8.35
10.6948,-0.14835,-0.05934,0.46251,0.00000,0.00000,0.00000,51,4,49,-9,54,-1,80,7,ok,2,0,0.003,11,-0.3855,0.24,-1.70,9.16,61,0.126,8.35
10.6982,-0.14835,-0.05934,0.46251,0.00000,0.00000,0.00000,52,5,46,-9,55,0,79,4,ok,2,0,0.003,11,-0.3892,0.24,-1.70,9.16,61,0.139,8.35
10.7107,-0.14835,-0.05934,0.46251,0.00000,0.00000,0.00000,52,6,43,-9,56,0,79,2,ok,2,0,0.003,11,-0.3930,0.24,-1.70,9.16,61,0.152,8.35
10.7308,-0.14835,-0.05934,0.46251,0.00000,0.00000,0.00000,53,6,41,-9,57,0,77,-2,ok,2,0,0.003,11,-0.3967,0.24,-1.70,9.16,61,0.165,8.35
10.7359,-0.14835,-0.05934,0.46251,0.00000,0.00000,0.00000,54,6,39,-8,58,0,77,-3,ok,2,0,0.003,11,-0.4005,0.24,-1.70,9.16,61,0.177,8.35
10.7481,-0.14835,-0.05934,0.46251,0.00000,0.00000,0.00000,54,7,36,-7,58,0,76,-5,ok,2,0,0.003,11,-0.4042,0.24,-1.70,9.16,61,0.190,8.35
10.7708,-0.14835,-0.05934,0.46251,0.00000,0.00000,0.00000,54,8,33,-6,59,0,74,-7,ok,2,0,0.003,11,-0.4080,0.24,-1.70,9.16,61,0.202,8.35
10.7742,-0.04887,-0.02618,0.46775,0.00000,0.00000,0.00000,55,8,29,-5,60,0,71,-7,ok,2,0,0.003,11,-0.4117,0.28,-0.25,10.85,62,0.000,8.35
10.7867,-0.04887,-0.02618,0.46775,0.00000,0.00000,0.00000,55,9,26,-3,61,1,70,-9,ok,2,0,0.003,11,-0.4155,0.28,-0.25,10.85,62,0.013,8.35
10.8068,-0.04887,-0.02618,0.46775,0.00000,0.00000,0.00000,56,10,22,-1,62,0,69,-11,ok,2,0,0.003,11,-0.4192,0.28,-0.25,10.85,62,0.025,8.35
10.8117,-0.04887,-0.02618,0.46775,0.00000,0.00000,0.00000,56,10,20,0,64,-2,67,-12,ok,2,0,0.003,11,-0.4230,0.28,-0.25,10.85,62,0.038,8.35
10.8241,-0.04887,-0.02618,0.46775,0.00000,0.00000,0.00000,57,11,18,1,64,-1,64,-13,ok,2,0,0.003,11,-0.4267,0.28,-0.25,10.85,62,0.050,8.35
10.8468,-0.04887,-0.02618,0.46775,0.00000,0.00000,0.00000,57,12,16,3,65,0,63,-14,ok,2,0,0.003,11,-0.4305,0.28,-0.25,10.85,62,0.063,8.35
10.8500,-0.04887,-0.02618,0.46775,0.00000,0.00000,0.00000,57,12,14,7,66,-1,60,-14,ok,2,0,0.003,11,-0.4342,0.28,-0.25,10.85,62,0.076,8.35
10.8627,-0.04887,-0.02618,0.46775,0.00000,0.00000,0.00000,57,14,13,10,66,0,58,-15,ok,2,0,0.003,11,-0.4380,0.28,-0.25,10.85,62,0.089,8.35
10.8828,-0.04887,-0.02618,0.46775,0.00000,0.00000,0.00000,58,14,11,12,67,0,55,-13,ok,2,0,0.003,11,-0.4417,0.28,-0.25,10.85,62,0.101,8.35
10.8877,-0.04887,-0.02618,0.46775,0.00000,0.00000,0.00000,58,15,13,13,67,0,53,-12,ok,2,0,0.003,11,-0.4455,0.28,-0.25,10.85,62,0.114,8.35
10.9001,-0.04887,-0.02618,0.46775,0.00000,0.00000,0.00000,58,16,12,12,68,0,50,-12,ok,2,0,0.003,11,-0.4492,0.28,-0.25,10.85,62,0.126,8.35
10.9228,-0.04887,-0.02618,0.46775,0.00000,0.00000,0.00000,58,17,14,11,68,1,47,-11,ok,2,0,0.003,11,-0.4530,0.28,-0.25,10.85,62,0.139,8.35
10.9260,-0.04887,-0.02618,0.46775,0.00000,0.00000,0.00000,58,18,15,11,69,2,45,-11,ok,2,0,0.003,11,-0.4567,0.28,-0.25,10.85,62,0.152,8.35
10.9387,-0.04887,-0.02618,0.46775,0.00000,0.00000,0.00000,59,18,16,10,69,2,41,-9,ok,2,0,0.003,11,-0.4605,0.28,-0.25,10.85,62,0.165,8.35
10.9588,-0.04887,-0.02618,0.46775,0.00000,0.00000,0.00000,59,18,17,9,70,3,39,-9,ok,2,0,0.003,11,-0.4642,0.28,-0.25,10.85,62,0.177,8.35
10.9638,-0.04887,-0.02618,0.46775,0.00000,0.00000,0.00000,59,20,18,9,70,4,35,-7,ok,2,0,0.003,11,-0.4680,0.28,-0.25,10.85,62,0.190,8.35
10.9764,-0.06632,0.01396,0.44331,0.00000,0.00000,0.00000,59,21,20,8,71,4,34,-5,ok,2,0,0.003,11,-0.4717,0.84,-1.27,9.87,63,0.000,8.35
10.9988,-0.06632,0.01396,0.44331,0.00000,0.00000,0.00000,59,22,21,7,71,6,32,-4,ok,2,0,0.003,11,-0.4755,0.84,-1.27,9.87,63,0.012,8.35
11.0022,-0.06632,0.01396,0.44331,0.00000,0.00000,0.00000,59,23,22,6,71,7,30,-1,ok,2,0,0.003,11,-0.4792,0.84,-1.27,9.87,63,0.026,8.35
11.0147,-0.06632,0.01396,0.44331,0.00000,0.00000,0.00000,59,24,23,6,71,8,28,2,ok,2,0,0.003,11,-0.4830,0.84,-1.27,9.87,63,0.039,8.35
11.0348,-0.06632,0.01396,0.44331,0.00000,0.00000,0.00000,58,25,25,5,71,8,27,5,ok,2,0,0.003,11,-0.4867,0.84,-1.27,9.87,63,0.051,8.35
11.0396,-0.06632,0.01396,0.44331,0.00000,0.00000,0.00000,58,28,26,5,71,10,27,7,ok,2,0,0.003,11,-0.4905,0.84,-1.27,9.87,63,0.064,8.35
11.0521,-0.06632,0.01396,0.44331,0.00000,0.00000,0.00000,58,29,27,4,71,11,29,6,ok,2,0,0.003,11,-0.4942,0.84,-1.27,9.87,63,0.076,8.35
11.0748,-0.06632,0.01396,0.44331,0.00000,0.00000,0.00000,58,28,28,3,71,13,29,6,ok,2,0,0.003,11,-0.4980,0.84,-1.27,9.87,63,0.089,8.35
11.0781,-0.06632,0.01396,0.44331,0.00000,0.00000,0.00000,59,24,30,3,72,14,30,4,ok,2,0,0.003,11,-0.5017,0.84,-1.27,9.87,63,0.102,8.35
11.0906,-0.06632,0.01396,0.44331,0.00000,0.00000,0.00000,60,21,31,2,71,15,31,3,ok,2,0,0.003,11,-0.5055,0.84,-1.27,9.87,63,0.114,8.35
11.1108,-0.06632,0.01396,0.44331,0.00000,0.00000,0.00000,60,17,33,2,71,17,33,3,ok,2,0,0.003,11,-0.5092,0.84,-1.27,9.87,63,0.127,8.35
11.1157,-0.06632,0.01396,0.44331,0.00000,0.00000,0.00000,61,15,34,2,72,18,34,2,ok,2,0,0.003,11,-0.5130,0.84,-1.27,9.87,63,0.139,8.35
11.1281,-0.06632,0.01396,0.44331,0.00000,0.00000,0.00000,60,14,35,1,71,20,36,1,ok,2,0,0.003,11,-0.5167,0.84,-1.27,9.87,63,0.152,8.35
11.1508,-0.06632,0.01396,0.44331,0.00000,0.00000,0.00000,60,11,36,1,71,22,38,1,ok,2,0,0.003,11,-0.5205,0.84,-1.27,9.87,63,0.164,8.35
11.1539,-0.06632,0.01396,0.44331,0.00000,0.00000,0.00000,60,7,38,2,71,23,38,2,ok,2,0,0.003,11,-0.5242,0.84,-1.27,9.87,63,0.178,8.35
11.1669,-0.06632,0.01396,0.44331,0.00000,0.00000,0.00000,59,5,39,2,72,25,40,1,ok,2,0,0.003,11,-0.5280,0.84,-1.27,9.87,63,0.190,8.35
11.1868,-0.11868,0.00349,0.50615,0.00000,0.00000,0.00000,59,1,41,1,71,27,41,2,ok,2,0,0.003,11,-0.5317,-1.47,-0.96,10.29,64,0.000,8.35
11.1916,-0.11868,0.00349,0.50615,0.00000,0.00000,0.00000,58,-1,42,1,71,28,42,2,ok,2,0,0.003,11,-0.5355,-1.47,-0.96,10.29,64,0.012,8.35
11.2041,-0.11868,0.00349,0.50615,0.00000,0.00000,0.00000,58,-3,44,2,71,28,43,1,ok,2,0,0.003,11,-0.5392,-1.47,-0.96,10.29,64,0.025,8.35
11.2268,-0.11868,0.00349,0.50615,0.00000,0.00000,0.00000,57,-4,44,2,72,28,44,1,ok,2,0,0.003,11,-0.5430,-1.47,-0.96,10.29,64,0.038,8.35
11.2302,-0.11868,0.00349,0.50615,0.00000,0.00000,0.00000,56,-6,45,2,74,25,46,0,ok,2,0,0.003,11,-0.5467,-1.47,-0.96,10.29,64,0.051,8.35
11.2426,-0.11868,0.00349,0.50615,0.00000,0.00000,0.00000,56,-8,47,2,76,21,47,0,ok,2,0,0.003,11,-0.5505,-1.47,-0.96,10.29,64,0.063,8.35
11.2628,-0.11868,0.00349,0.50615,0.00000,0.00000,0.00000,54,-9,48,3,77,16,48,1,ok,2,0,0.003,11,-0.5542,-1.47,-0.96,10.29,64,0.076,8.35
11.2677,-0.11868,0.00349,0.50615,0.00000,0.00000,0.00000,54,-11,49,3,79,14,49,0,ok,2,0,0.003,11,-0.5580,-1.47,-0.96,10.29,64,0.088,8.35
11.2801,-0.11868,0.00349,0.50615,0.00000,0.00000,0.00000,53,-11,50,3,79,13,49,1,ok,2,0,0.003,11,-0.5617,-1.47,-0.96,10.29,64,0.101,8.35
11.3028,-0.11868,0.00349,0.50615,0.00000,0.00000,0.00000,51,-12,50,5,79,11,50,1,ok,2,0,0.003,11,-0.5655,-1.47,-0.96,10.29,64,0.114,8.35
11.3060,-0.11868,0.00349,0.50615,0.00000,0.00000,0.00000,50,-12,52,6,79,7,51,0,ok,2,0,0.003,11,-0.5692,-1.47,-0.96,10.29,64,0.127,8.35
11.3189,-0.11868,0.00349,0.50615,0.00000,0.00000,0.00000,49,-12,53,5,79,4,52,0,ok,2,0,0.003,11,-0.5730,-1.47,-0.96,10.29,64,0.140,8.35
11.3428,-0.11868,0.00349,0.50615,0.00000,0.00000,0.00000,48,-11,53,6,78,2,53,0,ok,2,0,0.003,11,-0.5767,-1.47,-0.96,10.29,64,0.152,8.35
11.3460,-0.11868,0.00349,0.50615,0.00000,0.00000,0.00000,47,-11,54,7,77,-1,54,1,ok,2,0,0.003,11,-0.5805,-1.47,-0.96,10.29,64,0.167,8.35
11.3586,-0.11868,0.00349,0.50615,0.00000,0.00000,0.00000,46,-11,56,7,76,-4,54,0,ok,2,0,0.003,11,-0.5842,-1.47,-0.96,10.29,64,0.180,8.35
11.3788,0.00175,-0.01571,0.52011,0.00000,0.00000,0.00000,45,-10,56,7,75,-5,56,1,ok,2,0,0.003,11,-0.5880,-0.02,-0.08,10.37,65,0.000,8.35
11.3837,0.00175,-0.01571,0.52011,0.00000,0.00000,0.00000,44,-9,57,7,74,-8,56,-1,ok,2,0,0.003,11,-0.5917,-0.02,-0.08,10.37,65,0.012,8.35
11.3962,0.00175,-0.01571,0.52011,0.00000,0.00000,0.00000,43,-8,58,8,71,-7,57,0,ok,2,0,0.003,11,-0.5955,-0.02,-0.08,10.37,65,0.025,8.35
11.4188,0.00175,-0.01571,0.52011,0.00000,0.00000,0.00000,42,-6,59,8,70,-9,57,0,ok,2,0,0.003,11,-0.5992,-0.02,-0.08,10.37,65,0.038,8.35
11.4220,0.00175,-0.01571,0.52011,0.00000,0.00000,0.00000,40,-4,59,9,68,-11,59,0,ok,2,0,0.003,11,-0.6000,-0.02,-0.08,10.37,65,0.051,8.35
