# run_gait log  cmd_fwd=0.100 hz=80.0 fw_balance=off policy_yaw_sign=-1
t,roll,pitch,yaw,gx,gy,gz,j0,j1,j2,j3,j4,j5,j6,j7,guard_state,hottest_j,hottest_tier,hottest_frac,duty_s,steer_u,ax,ay,az,imu_n,imu_age_s,volt
0.0309,-0.01571,0.01396,0.00000,0.00000,0.00000,0.00000,21,-1,59,7,66,-12,61,0,ok,4,0,0.000,0,0.0000,0.17,-0.16,10.01,9,0.021,nan
0.0345,-0.01571,0.01396,0.00000,0.00000,0.00000,0.00000,19,0,61,8,64,-12,63,-1,ok,4,0,0.000,0,0.0000,0.17,-0.16,10.01,9,0.043,nan
0.0473,-0.01571,0.01396,0.00000,0.00000,0.00000,0.00000,17,2,61,9,61,-13,64,0,ok,4,0,0.000,0,0.0000,0.17,-0.16,10.01,9,0.055,8.45
0.0668,-0.01571,0.01396,0.00000,0.00000,0.00000,0.00000,15,6,62,9,59,-13,64,0,ok,4,0,0.000,0,0.0000,0.17,-0.16,10.01,9,0.068,8.45
0.0719,-0.01571,0.01396,0.00000,0.00000,0.00000,0.00000,13,9,62,11,56,-13,65,1,ok,4,0,0.000,0,0.0000,0.17,-0.16,10.01,9,0.080,8.45
0.0843,-0.01571,0.01396,0.00000,0.00000,0.00000,0.00000,11,11,63,11,53,-12,65,1,ok,4,0,0.000,0,0.0000,0.17,-0.16,10.01,9,0.093,8.45
0.1068,-0.01571,0.01396,0.00000,0.00000,0.00000,0.00000,13,12,63,12,51,-12,66,2,ok,4,0,0.000,0,0.0000,0.17,-0.16,10.01,9,0.105,8.45
0.1102,-0.01571,0.01396,0.00000,0.00000,0.00000,0.00000,13,11,63,13,48,-12,66,2,ok,4,0,0.000,0,0.0000,0.17,-0.16,10.01,9,0.119,8.45
0.1227,-0.01571,0.01396,0.00000,0.00000,0.00000,0.00000,14,10,64,14,45,-12,66,3,ok,4,0,0.000,0,0.0000,0.17,-0.16,10.01,9,0.131,8.45
0.1428,-0.01571,0.01396,0.00000,0.00000,0.00000,0.00000,15,9,64,15,42,-11,67,3,ok,4,0,0.000,0,0.0000,0.17,-0.16,10.01,9,0.144,8.45
0.1477,-0.01571,0.01396,0.00000,0.00000,0.00000,0.00000,16,9,65,15,39,-10,68,4,ok,4,0,0.000,0,0.0000,0.17,-0.16,10.01,9,0.156,8.45
0.1602,-0.01571,0.01396,0.00000,0.00000,0.00000,0.00000,18,8,65,16,36,-8,68,4,ok,4,0,0.000,0,0.0000,0.17,-0.16,10.01,9,0.169,8.45
0.1828,-0.01571,0.01396,0.00000,0.00000,0.00000,0.00000,18,7,65,17,34,-7,69,5,ok,4,0,0.000,0,0.0000,0.17,-0.16,10.01,9,0.181,8.45
0.1863,-0.01571,-0.12392,0.00000,0.00000,0.00000,0.00000,21,6,66,18,32,-6,69,6,ok,4,0,0.000,0,0.0000,-1.41,0.24,9.28,10,0.000,8.45
0.1987,-0.01571,-0.12392,0.00000,0.00000,0.00000,0.00000,22,5,67,19,30,-3,70,6,ok,4,0,0.000,0,0.0000,-1.41,0.24,9.28,10,0.013,8.45
0.2188,-0.01571,-0.12392,0.00000,0.00000,0.00000,0.00000,23,5,66,21,28,0,70,8,ok,4,0,0.000,0,0.0000,-1.41,0.24,9.28,10,0.025,8.45
0.2239,-0.01571,-0.12392,0.00000,0.00000,0.00000,0.00000,24,4,66,22,27,3,70,9,ok,4,0,0.000,0,0.0000,-1.41,0.24,9.28,10,0.038,8.45
0.2362,-0.01571,-0.12392,0.00000,0.00000,0.00000,0.00000,26,4,66,23,27,6,71,9,ok,4,0,0.000,0,0.0000,-1.41,0.24,9.28,10,0.050,8.45
0.2588,-0.01571,-0.12392,0.00000,0.00000,0.00000,0.00000,27,4,65,26,29,5,71,10,ok,4,0,0.000,0,0.0000,-1.41,0.24,9.28,10,0.063,8.45
0.2620,-0.01571,-0.12392,0.00000,0.00000,0.00000,0.00000,28,3,65,28,29,5,72,10,ok,4,0,0.000,0,0.0000,-1.41,0.24,9.28,10,0.076,8.45
0.2747,-0.01571,-0.12392,0.00000,0.00000,0.00000,0.00000,29,3,66,27,30,3,72,11,ok,4,0,0.000,0,0.0000,-1.41,0.24,9.28,10,0.089,8.45
0.2948,-0.01571,-0.12392,0.00000,0.00000,0.00000,0.00000,30,2,70,24,31,3,73,13,ok,4,0,0.000,0,0.0000,-1.41,0.24,9.28,10,0.101,8.45
0.2997,-0.01571,-0.12392,0.00000,0.00000,0.00000,0.00000,31,1,72,21,32,2,73,14,ok,4,0,0.000,0,0.0000,-1.41,0.24,9.28,10,0.114,8.45
0.3132,-0.01571,-0.12392,0.00000,0.00000,0.00000,0.00000,32,1,73,17,33,2,72,15,ok,4,0,0.000,0,0.0000,-1.41,0.24,9.28,10,0.126,8.45
0.3349,-0.01571,-0.12392,0.00000,0.00000,0.00000,0.00000,33,0,74,15,34,1,72,17,ok,4,0,0.000,0,0.0000,-1.41,0.24,9.28,10,0.139,8.45
0.3394,-0.01571,-0.12392,0.00000,0.00000,0.00000,0.00000,34,-1,74,15,37,1,73,19,ok,4,0,0.000,0,0.0000,-1.41,0.24,9.28,10,0.152,8.45
0.3519,-0.01571,-0.12392,0.00000,0.00000,0.00000,0.00000,36,-1,74,12,37,1,72,21,ok,4,0,0.000,0,0.0000,-1.41,0.24,9.28,10,0.165,8.45
0.3750,-0.01571,-0.12392,0.00000,0.00000,0.00000,0.00000,37,-1,73,9,38,1,72,22,ok,4,0,0.000,0,0.0000,-1.41,0.24,9.28,10,0.177,8.45
0.3795,-0.01571,-0.12392,0.00000,0.00000,0.00000,0.00000,38,-1,73,6,40,1,73,23,ok,4,0,0.000,0,0.0000,-1.41,0.24,9.28,10,0.192,8.45
0.3922,-0.14137,-0.06109,0.02269,0.00000,0.00000,0.00000,39,-2,72,4,40,1,72,25,ok,4,0,0.000,0,-0.0037,-0.02,-1.65,9.72,11,0.000,8.45
0.4148,-0.14137,-0.06109,0.02269,0.00000,0.00000,0.00000,40,-2,71,2,42,0,72,27,ok,4,0,0.000,0,-0.0075,-0.02,-1.65,9.72,11,0.013,8.45
0.4181,-0.14137,-0.06109,0.02269,0.00000,0.00000,0.00000,42,-2,69,0,43,-1,71,28,ok,4,0,0.000,0,-0.0112,-0.02,-1.65,9.72,11,0.027,8.45
0.4307,-0.14137,-0.06109,0.02269,0.00000,0.00000,0.00000,42,-2,67,-1,44,-2,72,28,ok,4,0,0.000,0,-0.0150,-0.02,-1.65,9.72,11,0.040,8.45
0.4508,-0.14137,-0.06109,0.02269,0.00000,0.00000,0.00000,44,-2,66,-3,46,-2,73,28,ok,4,0,0.000,0,-0.0187,-0.02,-1.65,9.72,11,0.052,8.45
0.4559,-0.14137,-0.06109,0.02269,0.00000,0.00000,0.00000,45,-2,65,-6,47,-2,75,26,ok,4,0,0.000,0,-0.0225,-0.02,-1.65,9.72,11,0.065,8.45
0.4681,-0.14137,-0.06109,0.02269,0.00000,0.00000,0.00000,47,0,63,-7,48,-2,77,20,ok,4,0,0.000,0,-0.0262,-0.02,-1.65,9.72,11,0.077,8.45
0.4908,-0.14137,-0.06109,0.02269,0.00000,0.00000,0.00000,48,0,61,-8,49,-2,78,17,ok,4,0,0.000,0,-0.0300,-0.02,-1.65,9.72,11,0.090,8.45
0.4940,-0.14137,-0.06109,0.02269,0.00000,0.00000,0.00000,49,0,58,-9,50,-1,79,14,ok,4,0,0.000,0,-0.0338,-0.02,-1.65,9.72,11,0.103,8.45
0.5069,-0.14137,-0.06109,0.02269,0.00000,0.00000,0.00000,49,2,55,-10,52,-1,79,13,ok,4,0,0.000,0,-0.0375,-0.02,-1.65,9.72,11,0.116,8.45
0.5268,-0.14137,-0.06109,0.02269,0.00000,0.00000,0.00000,50,4,52,-10,54,-1,79,10,ok,4,0,0.000,1,-0.0413,-0.02,-1.65,9.72,11,0.128,8.45
0.5317,-0.14137,-0.06109,0.02269,0.00000,0.00000,0.00000,51,4,49,-10,55,-1,79,7,ok,4,0,0.000,1,-0.0450,-0.02,-1.65,9.72,11,0.141,8.45
0.5441,-0.14137,-0.06109,0.02269,0.00000,0.00000,0.00000,52,5,46,-10,56,0,78,4,ok,4,0,0.000,1,-0.0488,-0.02,-1.65,9.72,11,0.153,8.45
0.5668,-0.14137,-0.06109,0.02269,0.00000,0.00000,0.00000,53,5,44,-10,57,0,78,2,ok,4,0,0.000,1,-0.0525,-0.02,-1.65,9.72,11,0.166,8.45
0.5701,-0.14137,-0.06109,0.02269,0.00000,0.00000,0.00000,55,6,41,-10,58,1,77,-1,ok,4,0,0.000,1,-0.0563,-0.02,-1.65,9.72,11,0.179,8.45
0.5828,-0.14137,-0.06109,0.02269,0.00000,0.00000,0.00000,55,6,39,-9,59,0,77,-3,ok,4,0,0.000,1,-0.0600,-0.02,-1.65,9.72,11,0.192,8.45
0.6028,-0.04538,0.00698,0.04014,0.00000,0.00000,0.00000,56,6,36,-8,59,1,76,-4,ok,4,0,0.000,1,-0.0638,-0.22,-1.00,9.15,12,0.000,8.45
0.6077,-0.04538,0.00698,0.04014,0.00000,0.00000,0.00000,57,7,33,-7,60,1,74,-7,ok,4,0,0.000,1,-0.0675,-0.22,-1.00,9.15,12,0.012,8.45
0.6203,-0.04538,0.00698,0.04014,0.00000,0.00000,0.00000,57,7,30,-6,60,1,71,-7,ok,4,0,0.000,1,-0.0713,-0.22,-1.00,9.15,12,0.025,8.45
0.6428,-0.04538,0.00698,0.04014,0.00000,0.00000,0.00000,57,8,27,-4,61,1,70,-9,ok,2,0,0.000,1,-0.0750,-0.22,-1.00,9.15,12,0.037,8.45
0.6460,-0.04538,0.00698,0.04014,0.00000,0.00000,0.00000,59,10,22,-2,62,1,69,-11,ok,2,0,0.000,1,-0.0788,-0.22,-1.00,9.15,12,0.051,8.45
0.6589,-0.04538,0.00698,0.04014,0.00000,0.00000,0.00000,59,10,21,-1,64,-2,67,-12,ok,2,0,0.000,1,-0.0825,-0.22,-1.00,9.15,12,0.064,8.45
0.6788,-0.04538,0.00698,0.04014,0.00000,0.00000,0.00000,60,10,19,0,65,-1,64,-13,ok,2,0,0.000,1,-0.0863,-0.22,-1.00,9.15,12,0.076,8.45
0.6837,-0.04538,0.00698,0.04014,0.00000,0.00000,0.00000,60,11,17,3,66,0,62,-13,ok,2,0,0.000,1,-0.0900,-0.22,-1.00,9.15,12,0.089,8.45
0.6962,-0.04538,0.00698,0.04014,0.00000,0.00000,0.00000,61,12,15,6,67,0,60,-14,ok,2,0,0.000,1,-0.0938,-0.22,-1.00,9.15,12,0.101,8.45
0.7188,-0.04538,0.00698,0.04014,0.00000,0.00000,0.00000,61,13,13,10,67,0,58,-15,ok,2,0,0.000,1,-0.0975,-0.22,-1.00,9.15,12,0.114,8.45
0.7220,-0.04538,0.00698,0.04014,0.00000,0.00000,0.00000,61,14,11,12,68,0,55,-13,ok,2,0,0.000,1,-0.1013,-0.22,-1.00,9.15,12,0.127,8.45
0.7347,-0.04538,0.00698,0.04014,0.00000,0.00000,0.00000,62,15,13,13,68,1,53,-13,ok,2,0,0.000,1,-0.1050,-0.22,-1.00,9.15,12,0.139,8.45
0.7548,-0.04538,0.00698,0.04014,0.00000,0.00000,0.00000,62,16,13,13,69,1,50,-12,ok,2,0,0.000,1,-0.1088,-0.22,-1.00,9.15,12,0.152,8.45
0.7597,-0.04538,0.00698,0.04014,0.00000,0.00000,0.00000,62,16,14,11,69,1,47,-11,ok,2,0,0.000,1,-0.1125,-0.22,-1.00,9.15,12,0.164,8.45
0.7721,-0.04538,0.00698,0.04014,0.00000,0.00000,0.00000,62,18,15,10,70,2,45,-10,ok,2,0,0.000,1,-0.1163,-0.22,-1.00,9.15,12,0.177,8.45
0.7948,-0.04538,0.00698,0.04014,0.00000,0.00000,0.00000,63,18,16,10,70,3,41,-9,ok,2,0,0.000,1,-0.1200,-0.22,-1.00,9.15,12,0.189,8.45
0.7983,0.04887,-0.03142,0.04363,0.00000,0.00000,0.00000,64,18,17,9,70,3,39,-9,ok,2,0,0.000,1,-0.1238,0.28,-0.14,10.28,13,0.000,8.45
0.8107,0.04887,-0.03142,0.04363,0.00000,0.00000,0.00000,64,20,18,8,70,4,35,-7,ok,2,0,0.000,1,-0.1275,0.28,-0.14,10.28,13,0.013,8.45
0.8308,0.04887,-0.03142,0.04363,0.00000,0.00000,0.00000,64,20,20,7,71,5,34,-6,ok,2,0,0.000,1,-0.1313,0.28,-0.14,10.28,13,0.025,8.45
0.8358,0.04887,-0.03142,0.04363,0.00000,0.00000,0.00000,64,22,21,7,71,6,32,-4,ok,2,0,0.000,1,-0.1350,0.28,-0.14,10.28,13,0.038,8.45
0.8482,0.04887,-0.03142,0.04363,0.00000,0.00000,0.00000,64,23,23,6,71,7,30,-1,ok,2,0,0.000,1,-0.1388,0.28,-0.14,10.28,13,0.050,8.45
0.8708,0.04887,-0.03142,0.04363,0.00000,0.00000,0.00000,64,24,24,6,72,8,28,1,ok,2,0,0.000,1,-0.1425,0.28,-0.14,10.28,13,0.063,8.45
0.8741,0.04887,-0.03142,0.04363,0.00000,0.00000,0.00000,63,25,25,5,72,9,27,5,ok,2,0,0.000,1,-0.1463,0.28,-0.14,10.28,13,0.076,8.45
0.8867,0.04887,-0.03142,0.04363,0.00000,0.00000,0.00000,63,28,26,4,72,10,27,7,ok,2,0,0.000,1,-0.1500,0.28,-0.14,10.28,13,0.089,8.45
0.9068,0.04887,-0.03142,0.04363,0.00000,0.00000,0.00000,62,29,27,3,71,11,29,6,ok,2,0,0.000,1,-0.1538,0.28,-0.14,10.28,13,0.101,8.45
0.9117,0.04887,-0.03142,0.04363,0.00000,0.00000,0.00000,63,28,29,3,72,13,29,6,ok,2,0,0.000,1,-0.1575,0.28,-0.14,10.28,13,0.114,8.45
0.9241,0.04887,-0.03142,0.04363,0.00000,0.00000,0.00000,65,25,30,2,72,14,30,3,ok,2,0,0.000,1,-0.1613,0.28,-0.14,10.28,13,0.126,8.45
0.9468,0.04887,-0.03142,0.04363,0.00000,0.00000,0.00000,67,21,31,2,71,15,32,3,ok,2,0,0.000,1,-0.1650,0.28,-0.14,10.28,13,0.139,8.45
0.9501,0.04887,-0.03142,0.04363,0.00000,0.00000,0.00000,67,17,33,2,71,17,33,3,ok,2,0,0.000,1,-0.1681,0.28,-0.14,10.28,13,0.152,8.45
0.9627,0.04887,-0.03142,0.04363,0.00000,0.00000,0.00000,67,15,34,2,72,18,34,2,ok,2,0,0.000,1,-0.1681,0.28,-0.14,10.28,13,0.165,8.45
0.9828,0.04887,-0.03142,0.04363,0.00000,0.00000,0.00000,67,14,36,1,71,20,36,1,ok,2,0,0.000,1,-0.1681,0.28,-0.14,10.28,13,0.177,8.45
0.9880,0.04887,-0.03142,0.04363,0.00000,0.00000,0.00000,67,11,37,1,71,22,38,1,ok,2,0,0.000,1,-0.1681,0.28,-0.14,10.28,13,0.190,8.45
1.0004,-0.00524,-0.02443,0.06458,0.00000,0.00000,0.00000,67,7,38,2,71,23,39,1,ok,2,0,0.000,1,-0.1719,1.09,-1.01,10.88,14,0.000,8.45
1.0228,-0.00524,-0.02443,0.06458,0.00000,0.00000,0.00000,66,4,39,2,71,25,40,1,ok,2,0,0.000,1,-0.1756,1.09,-1.01,10.88,14,0.012,8.45
1.0260,-0.00524,-0.02443,0.06458,0.00000,0.00000,0.00000,65,1,41,2,71,27,42,1,ok,2,0,0.000,1,-0.1794,1.09,-1.01,10.88,14,0.026,8.45
1.0387,-0.00524,-0.02443,0.06458,0.00000,0.00000,0.00000,64,-1,42,1,71,28,42,1,ok,2,0,0.000,1,-0.1831,1.09,-1.01,10.88,14,0.038,8.45
1.0588,-0.00524,-0.02443,0.06458,0.00000,0.00000,0.00000,63,-3,44,2,71,28,44,1,ok,2,0,0.000,1,-0.1869,1.09,-1.01,10.88,14,0.051,8.45
1.0637,-0.00524,-0.02443,0.06458,0.00000,0.00000,0.00000,61,-4,44,2,72,28,45,0,ok,2,0,0.000,1,-0.1906,1.09,-1.01,10.88,14,0.063,8.45
1.0761,-0.00524,-0.02443,0.06458,0.00000,0.00000,0.00000,60,-6,46,2,74,26,46,0,ok,2,0,0.000,1,-0.1944,1.09,-1.01,10.88,14,0.076,8.45
1.0988,-0.00524,-0.02443,0.06458,0.00000,0.00000,0.00000,60,-8,47,2,76,21,47,0,ok,2,0,0.000,1,-0.1981,1.09,-1.01,10.88,14,0.088,8.45
1.1021,-0.00524,-0.02443,0.06458,0.00000,0.00000,0.00000,57,-9,49,3,77,16,48,0,ok,2,0,0.000,1,-0.2019,1.09,-1.01,10.88,14,0.102,8.45
1.1147,-0.00524,-0.02443,0.06458,0.00000,0.00000,0.00000,56,-10,50,3,79,14,49,0,ok,2,0,0.000,1,-0.2056,1.09,-1.01,10.88,14,0.115,8.45
1.1348,-0.00524,-0.02443,0.06458,0.00000,0.00000,0.00000,54,-11,51,3,79,13,49,0,ok,2,0,0.000,1,-0.2094,1.09,-1.01,10.88,14,0.127,8.45
1.1397,-0.00524,-0.02443,0.06458,0.00000,0.00000,0.00000,52,-12,51,5,79,11,51,0,ok,2,0,0.000,1,-0.2131,1.09,-1.01,10.88,14,0.140,8.45
1.1523,-0.00524,-0.02443,0.06458,0.00000,0.00000,0.00000,50,-11,52,6,79,7,51,0,ok,2,0,0.000,1,-0.2169,1.09,-1.01,10.88,14,0.152,8.45
1.1748,-0.00524,-0.02443,0.06458,0.00000,0.00000,0.00000,48,-11,53,5,78,4,53,0,ok,2,0,0.000,1,-0.2206,1.09,-1.01,10.88,14,0.165,8.45
1.1780,-0.00524,-0.02443,0.06458,0.00000,0.00000,0.00000,46,-11,54,6,78,2,53,0,ok,2,0,0.000,1,-0.2244,1.09,-1.01,10.88,14,0.178,8.45
1.1909,0.01745,-0.03142,0.06283,0.00000,0.00000,0.00000,44,-11,54,7,77,-2,54,0,ok,2,0,0.000,1,-0.2206,0.65,0.45,9.68,15,0.000,8.45
1.2108,0.01745,-0.03142,0.06283,0.00000,0.00000,0.00000,42,-11,56,7,76,-4,55,-1,ok,2,0,0.000,1,-0.2169,0.65,0.45,9.68,15,0.013,8.45
1.2159,0.01745,-0.03142,0.06283,0.00000,0.00000,0.00000,41,-10,56,7,75,-5,56,0,ok,2,0,0.000,1,-0.2131,0.65,0.45,9.68,15,0.025,8.45
1.2281,0.01745,-0.03142,0.06283,0.00000,0.00000,0.00000,38,-9,58,7,74,-8,56,-1,ok,2,0,0.000,1,-0.2094,0.65,0.45,9.68,15,0.038,8.45
1.2508,0.01745,-0.03142,0.06283,0.00000,0.00000,0.00000,36,-8,58,8,71,-8,57,0,ok,2,0,0.000,1,-0.2056,0.65,0.45,9.68,15,0.050,8.45
1.2540,0.01745,-0.03142,0.06283,0.00000,0.00000,0.00000,33,-6,59,8,70,-10,57,0,ok,2,0,0.000,1,-0.2019,0.65,0.45,9.68,15,0.063,8.45
1.2667,0.01745,-0.03142,0.06283,0.00000,0.00000,0.00000,31,-4,59,9,69,-11,59,0,ok,2,0,0.000,1,-0.1981,0.65,0.45,9.68,15,0.076,8.45
1.2868,0.01745,-0.03142,0.06283,0.00000,0.00000,0.00000,27,-2,60,10,66,-13,59,0,ok,2,0,0.000,1,-0.1944,0.65,0.45,9.68,15,0.089,8.45
1.2917,0.01745,-0.03142,0.06283,0.00000,0.00000,0.00000,26,-1,61,11,64,-13,60,0,ok,2,0,0.000,1,-0.1906,0.65,0.45,9.68,15,0.101,8.45
1.3043,0.01745,-0.03142,0.06283,0.00000,0.00000,0.00000,24,0,62,11,62,-14,63,-3,ok,2,0,0.000,1,-0.1869,0.65,0.45,9.68,15,0.114,8.45
1.3268,0.01745,-0.03142,0.06283,0.00000,0.00000,0.00000,22,3,63,12,59,-15,63,-2,ok,2,0,0.000,1,-0.1831,0.65,0.45,9.68,15,0.126,8.45
1.3300,0.01745,-0.03142,0.06283,0.00000,0.00000,0.00000,20,6,63,13,58,-15,64,-2,ok,2,0,0.000,1,-0.1794,0.65,0.45,9.68,15,0.139,8.45
1.3427,0.01745,-0.03142,0.06283,0.00000,0.00000,0.00000,19,10,63,14,55,-14,65,-1,ok,2,0,0.000,1,-0.1784,0.65,0.45,9.68,15,0.152,8.45
1.3628,0.01745,-0.03142,0.06283,0.00000,0.00000,0.00000,17,12,64,15,52,-13,65,-1,ok,2,0,0.000,1,-0.1784,0.65,0.45,9.68,15,0.165,8.45
1.3679,0.01745,-0.03142,0.06283,0.00000,0.00000,0.00000,19,13,64,16,50,-13,66,-1,ok,2,0,0.000,1,-0.1784,0.65,0.45,9.68,15,0.177,8.45
1.3801,0.01745,-0.03142,0.06283,0.00000,0.00000,0.00000,19,13,64,17,47,-12,67,-1,ok,2,0,0.000,1,-0.1784,0.65,0.45,9.68,15,0.190,8.45
1.4028,-0.07330,-0.05061,0.09599,0.00000,0.00000,0.00000,20,12,65,17,44,-12,68,0,ok,2,0,0.000,1,-0.1822,-0.87,-0.93,8.67,16,0.000,8.45
1.4060,-0.07330,-0.05061,0.09599,0.00000,0.00000,0.00000,22,12,65,18,41,-11,68,0,ok,4,0,0.000,1,-0.1859,-0.87,-0.93,8.67,16,0.013,8.45
1.4187,-0.07330,-0.05061,0.09599,0.00000,0.00000,0.00000,22,11,66,19,38,-10,69,2,ok,4,0,0.000,1,-0.1897,-0.87,-0.93,8.67,16,0.026,8.45
1.4429,-0.07330,-0.05061,0.09599,0.00000,0.00000,0.00000,24,10,66,19,35,-9,69,2,ok,4,0,0.000,1,-0.1934,-0.87,-0.93,8.67,16,0.039,8.45
1.4464,-0.07330,-0.05061,0.09599,0.00000,0.00000,0.00000,24,10,66,21,33,-7,70,3,ok,4,0,0.000,1,-0.1972,-0.87,-0.93,8.67,16,0.054,8.45
1.4591,-0.07330,-0.05061,0.09599,0.00000,0.00000,0.00000,26,8,66,21,31,-6,70,4,ok,4,0,0.000,1,-0.2009,-0.87,-0.93,8.67,16,0.066,8.45
1.4788,-0.07330,-0.05061,0.09599,0.00000,0.00000,0.00000,27,7,66,22,29,-3,71,4,ok,4,0,0.000,1,-0.2047,-0.87,-0.93,8.67,16,0.079,8.45
1.4837,-0.07330,-0.05061,0.09599,0.00000,0.00000,0.00000,29,7,66,23,28,0,71,6,ok,4,0,0.000,1,-0.2084,-0.87,-0.93,8.67,16,0.091,8.45
1.4963,-0.07330,-0.05061,0.09599,0.00000,0.00000,0.00000,30,6,66,24,27,3,71,7,ok,4,0,0.000,1,-0.2122,-0.87,-0.93,8.67,16,0.104,8.45
1.5188,-0.07330,-0.05061,0.09599,0.00000,0.00000,0.00000,30,6,66,25,26,6,72,8,ok,4,0,0.000,1,-0.2159,-0.87,-0.93,8.67,16,0.116,8.45
1.5222,-0.07330,-0.05061,0.09599,0.00000,0.00000,0.00000,31,5,65,28,28,5,72,9,ok,4,0,0.000,1,-0.2197,-0.87,-0.93,8.67,16,0.129,8.45
1.5347,-0.07330,-0.05061,0.09599,0.00000,0.00000,0.00000,32,4,64,29,29,5,72,11,ok,4,0,0.000,1,-0.2234,-0.87,-0.93,8.67,16,0.142,8.45
1.5548,-0.07330,-0.05061,0.09599,0.00000,0.00000,0.00000,34,4,65,27,30,2,72,12,ok,4,0,0.000,2,-0.2272,-0.87,-0.93,8.67,16,0.155,8.45
1.5596,-0.07330,-0.05061,0.09599,0.00000,0.00000,0.00000,35,3,68,24,31,2,72,14,ok,4,0,0.000,2,-0.2309,-0.87,-0.93,8.67,16,0.167,8.45
1.5724,-0.07330,-0.05061,0.09599,0.00000,0.00000,0.00000,35,3,70,21,32,2,72,15,ok,4,0,0.000,2,-0.2347,-0.87,-0.93,8.67,16,0.180,8.45
1.5948,-0.07330,-0.05061,0.09599,0.00000,0.00000,0.00000,37,2,71,17,33,1,72,17,ok,4,0,0.000,2,-0.2384,-0.87,-0.93,8.67,16,0.192,8.45
1.5984,-0.13090,-0.05236,0.10472,0.00000,0.00000,0.00000,38,2,72,15,34,0,72,19,ok,4,0,0.000,2,-0.2422,0.29,-0.61,8.93,17,0.000,8.45
1.6107,-0.13090,-0.05236,0.10472,0.00000,0.00000,0.00000,39,1,72,14,37,0,73,20,ok,4,0,0.000,2,-0.2459,0.29,-0.61,8.93,17,0.013,8.45
1.6349,-0.13090,-0.05236,0.10472,0.00000,0.00000,0.00000,40,1,72,11,37,0,72,22,ok,4,0,0.000,2,-0.2497,0.29,-0.61,8.93,17,0.025,8.45
1.6383,-0.13090,-0.05236,0.10472,0.00000,0.00000,0.00000,42,1,71,8,39,0,71,23,ok,4,0,0.000,2,-0.2534,0.29,-0.61,8.93,17,0.040,8.45
1.6508,-0.13090,-0.05236,0.10472,0.00000,0.00000,0.00000,43,1,71,5,40,0,72,24,ok,4,0,0.000,2,-0.2572,0.29,-0.61,8.93,17,0.053,8.45
1.6708,-0.13090,-0.05236,0.10472,0.00000,0.00000,0.00000,43,0,70,3,41,1,72,26,ok,4,0,0.000,2,-0.2609,0.29,-0.61,8.93,17,0.065,8.45
1.6758,-0.13090,-0.05236,0.10472,0.00000,0.00000,0.00000,45,0,69,1,43,0,71,27,ok,4,0,0.000,2,-0.2647,0.29,-0.61,8.93,17,0.078,8.45
1.6882,-0.13090,-0.05236,0.10472,0.00000,0.00000,0.00000,46,0,68,-1,44,0,71,29,ok,4,0,0.001,2,-0.2684,0.29,-0.61,8.93,17,0.090,8.45
1.7108,-0.13090,-0.05236,0.10472,0.00000,0.00000,0.00000,46,0,66,-2,45,-1,72,29,ok,4,0,0.001,2,-0.2722,0.29,-0.61,8.93,17,0.103,8.45
1.7140,-0.13090,-0.05236,0.10472,0.00000,0.00000,0.00000,47,0,65,-4,47,-1,73,28,ok,4,0,0.001,2,-0.2759,0.29,-0.61,8.93,17,0.116,8.45
1.7267,-0.13090,-0.05236,0.10472,0.00000,0.00000,0.00000,48,0,64,-6,48,-1,75,26,ok,4,0,0.001,2,-0.2797,0.29,-0.61,8.93,17,0.129,8.45
1.7468,-0.13090,-0.05236,0.10472,0.00000,0.00000,0.00000,49,2,62,-7,49,-1,77,20,ok,4,0,0.001,2,-0.2834,0.29,-0.61,8.93,17,0.141,8.45
1.7517,-0.13090,-0.05236,0.10472,0.00000,0.00000,0.00000,50,1,59,-8,49,-1,78,17,ok,4,0,0.001,2,-0.2872,0.29,-0.61,8.93,17,0.154,8.45
1.7644,-0.13090,-0.05236,0.10472,0.00000,0.00000,0.00000,50,1,57,-9,51,-1,80,13,ok,4,0,0.001,2,-0.2909,0.29,-0.61,8.93,17,0.166,8.45
1.7868,-0.13090,-0.05236,0.10472,0.00000,0.00000,0.00000,50,4,55,-10,52,-1,80,13,ok,4,0,0.001,2,-0.2929,0.29,-0.61,8.93,17,0.179,8.45
1.7900,-0.13090,-0.05236,0.10472,0.00000,0.00000,0.00000,51,5,52,-9,53,-1,80,10,ok,4,0,0.001,2,-0.2929,0.29,-0.61,8.93,17,0.192,8.45
1.8030,-0.13090,-0.05236,0.10472,0.00000,0.00000,0.00000,51,4,49,-9,54,-1,80,7,ok,4,0,0.001,2,-0.2929,0.29,-0.61,8.93,17,0.205,8.45
1.8228,-0.07505,-0.01745,0.13963,0.00000,0.00000,0.00000,51,5,46,-9,55,0,79,3,ok,2,0,0.001,2,-0.2966,0.15,-1.13,9.80,18,0.000,8.45
1.8277,-0.07505,-0.01745,0.13963,0.00000,0.00000,0.00000,52,6,44,-9,56,0,79,2,ok,2,0,0.001,2,-0.3004,0.15,-1.13,9.80,18,0.012,8.45
1.8402,-0.07505,-0.01745,0.13963,0.00000,0.00000,0.00000,53,6,41,-10,57,1,77,-2,ok,2,0,0.001,2,-0.3041,0.15,-1.13,9.80,18,0.025,8.45
1.8628,-0.07505,-0.01745,0.13963,0.00000,0.00000,0.00000,53,6,39,-9,58,0,77,-4,ok,2,0,0.001,2,-0.3079,0.15,-1.13,9.80,18,0.037,8.45
1.8660,-0.07505,-0.01745,0.13963,0.00000,0.00000,0.00000,54,7,36,-8,59,0,76,-5,ok,2,0,0.001,2,-0.3116,0.15,-1.13,9.80,18,0.051,8.45
1.8789,-0.07505,-0.01745,0.13963,0.00000,0.00000,0.00000,55,8,33,-6,59,1,74,-7,ok,2,0,0.001,2,-0.3154,0.15,-1.13,9.80,18,0.063,8.45
1.8988,-0.07505,-0.01745,0.13963,0.00000,0.00000,0.00000,55,8,29,-5,60,1,71,-7,ok,2,0,0.001,2,-0.3191,0.15,-1.13,9.80,18,0.076,8.45
1.9037,-0.07505,-0.01745,0.13963,0.00000,0.00000,0.00000,56,9,26,-3,61,1,70,-9,ok,2,0,0.001,2,-0.3229,0.15,-1.13,9.80,18,0.088,8.45
1.9162,-0.07505,-0.01745,0.13963,0.00000,0.00000,0.00000,57,10,22,-2,62,0,69,-11,ok,2,0,0.001,2,-0.3266,0.15,-1.13,9.80,18,0.101,8.45
1.9388,-0.07505,-0.01745,0.13963,0.00000,0.00000,0.00000,57,10,20,0,64,-2,67,-12,ok,2,0,0.001,2,-0.3304,0.15,-1.13,9.80,18,0.113,8.45
1.9422,-0.07505,-0.01745,0.13963,0.00000,0.00000,0.00000,58,11,18,1,65,-1,64,-13,ok,2,0,0.001,2,-0.3341,0.15,-1.13,9.80,18,0.127,8.45
1.9547,-0.07505,-0.01745,0.13963,0.00000,0.00000,0.00000,58,12,16,3,65,-1,63,-14,ok,2,0,0.001,2,-0.3379,0.15,-1.13,9.80,18,0.139,8.45
1.9748,-0.07505,-0.01745,0.13963,0.00000,0.00000,0.00000,59,12,15,6,66,-1,60,-14,ok,2,0,0.001,2,-0.3416,0.15,-1.13,9.80,18,0.152,8.45
1.9797,-0.07505,-0.01745,0.13963,0.00000,0.00000,0.00000,59,14,13,10,66,0,58,-15,ok,2,0,0.001,2,-0.3454,0.15,-1.13,9.80,18,0.164,8.45
1.9922,-0.07505,-0.01745,0.13963,0.00000,0.00000,0.00000,58,14,11,12,67,0,55,-13,ok,2,0,0.001,2,-0.3491,0.15,-1.13,9.80,18,0.177,8.45
2.0148,-0.07505,-0.01745,0.13963,0.00000,0.00000,0.00000,59,15,13,12,68,0,52,-13,ok,2,0,0.001,2,-0.3529,0.15,-1.13,9.80,18,0.189,8.45
2.0183,-0.02443,0.05236,0.11170,0.00000,0.00000,0.00000,59,16,13,12,69,0,50,-12,ok,2,0,0.001,2,-0.3491,0.74,0.17,10.95,19,0.000,8.45
2.0309,-0.02443,0.05236,0.11170,0.00000,0.00000,0.00000,60,17,14,11,69,1,47,-11,ok,2,0,0.001,2,-0.3454,0.74,0.17,10.95,19,0.013,8.45
2.0508,-0.02443,0.05236,0.11170,0.00000,0.00000,0.00000,60,18,15,10,69,2,45,-11,ok,2,0,0.001,2,-0.3416,0.74,0.17,10.95,19,0.025,8.45
2.0557,-0.02443,0.05236,0.11170,0.00000,0.00000,0.00000,60,18,16,10,69,3,41,-10,ok,2,0,0.001,2,-0.3379,0.74,0.17,10.95,19,0.038,8.45
2.0682,-0.02443,0.05236,0.11170,0.00000,0.00000,0.00000,61,19,17,8,70,3,39,-9,ok,2,0,0.001,2,-0.3341,0.74,0.17,10.95,19,0.050,8.45
2.0908,-0.02443,0.05236,0.11170,0.00000,0.00000,0.00000,61,20,18,8,70,4,35,-7,ok,2,0,0.001,2,-0.3304,0.74,0.17,10.95,19,0.063,8.45
2.0941,-0.02443,0.05236,0.11170,0.00000,0.00000,0.00000,61,21,20,7,71,5,34,-6,ok,2,0,0.001,2,-0.3266,0.74,0.17,10.95,19,0.076,8.45
2.1069,-0.02443,0.05236,0.11170,0.00000,0.00000,0.00000,62,22,21,6,71,6,32,-4,ok,2,0,0.001,2,-0.3229,0.74,0.17,10.95,19,0.089,8.45
2.1268,-0.02443,0.05236,0.11170,0.00000,0.00000,0.00000,61,23,22,6,71,7,29,-1,ok,2,0,0.001,2,-0.3191,0.74,0.17,10.95,19,0.101,8.45
2.1317,-0.02443,0.05236,0.11170,0.00000,0.00000,0.00000,61,24,23,5,72,8,28,2,ok,2,0,0.001,2,-0.3154,0.74,0.17,10.95,19,0.114,8.45
2.1441,-0.02443,0.05236,0.11170,0.00000,0.00000,0.00000,61,25,25,5,72,9,27,5,ok,2,0,0.001,2,-0.3116,0.74,0.17,10.95,19,0.126,8.45
2.1668,-0.02443,0.05236,0.11170,0.00000,0.00000,0.00000,60,28,26,4,72,10,27,7,ok,2,0,0.001,2,-0.3079,0.74,0.17,10.95,19,0.139,8.45
2.1700,-0.02443,0.05236,0.11170,0.00000,0.00000,0.00000,60,29,27,3,72,12,29,6,ok,2,0,0.001,2,-0.3041,0.74,0.17,10.95,19,0.152,8.45
2.1830,-0.02443,0.05236,0.11170,0.00000,0.00000,0.00000,60,28,28,3,72,13,29,6,ok,2,0,0.001,2,-0.3004,0.74,0.17,10.95,19,0.165,8.45
2.2028,-0.02443,0.05236,0.11170,0.00000,0.00000,0.00000,62,25,30,2,72,14,30,3,ok,2,0,0.001,2,-0.2966,0.74,0.17,10.95,19,0.177,8.45
2.2080,-0.02443,0.05236,0.11170,0.00000,0.00000,0.00000,64,21,31,2,72,16,31,3,ok,2,0,0.001,2,-0.2929,0.74,0.17,10.95,19,0.190,8.45
2.2205,-0.10472,0.00873,0.20071,0.00000,0.00000,0.00000,65,17,33,2,72,18,33,3,ok,2,0,0.001,2,-0.2966,-0.50,-0.97,9.35,20,0.000,8.45
2.2428,-0.10472,0.00873,0.20071,0.00000,0.00000,0.00000,65,15,34,2,72,18,34,2,ok,2,0,0.001,2,-0.3004,-0.50,-0.97,9.35,20,0.013,8.45
2.2460,-0.10472,0.00873,0.20071,0.00000,0.00000,0.00000,65,14,35,1,71,20,36,1,ok,2,0,0.001,2,-0.3041,-0.50,-0.97,9.35,20,0.026,8.45
2.2589,-0.10472,0.00873,0.20071,0.00000,0.00000,0.00000,65,11,36,1,71,21,38,1,ok,2,0,0.001,2,-0.3079,-0.50,-0.97,9.35,20,0.038,8.45
2.2788,-0.10472,0.00873,0.20071,0.00000,0.00000,0.00000,64,7,38,2,72,23,38,2,ok,2,0,0.001,2,-0.3116,-0.50,-0.97,9.35,20,0.051,8.45
2.2837,-0.10472,0.00873,0.20071,0.00000,0.00000,0.00000,63,4,39,2,72,25,40,1,ok,2,0,0.001,2,-0.3154,-0.50,-0.97,9.35,20,0.063,8.45
2.2962,-0.10472,0.00873,0.20071,0.00000,0.00000,0.00000,63,1,41,1,71,27,41,2,ok,2,0,0.001,2,-0.3191,-0.50,-0.97,9.35,20,0.076,8.45
2.3188,-0.10472,0.00873,0.20071,0.00000,0.00000,0.00000,62,-1,42,1,71,28,42,2,ok,2,0,0.001,2,-0.3229,-0.50,-0.97,9.35,20,0.088,8.45
2.3220,-0.10472,0.00873,0.20071,0.00000,0.00000,0.00000,61,-3,44,2,71,28,43,1,ok,2,0,0.001,2,-0.3266,-0.50,-0.97,9.35,20,0.102,8.45
2.3347,-0.10472,0.00873,0.20071,0.00000,0.00000,0.00000,59,-4,44,2,73,28,44,1,ok,2,0,0.001,2,-0.3304,-0.50,-0.97,9.35,20,0.114,8.45
2.3548,-0.10472,0.00873,0.20071,0.00000,0.00000,0.00000,59,-6,46,2,74,26,46,0,ok,2,0,0.001,2,-0.3341,-0.50,-0.97,9.35,20,0.127,8.45
2.3597,-0.10472,0.00873,0.20071,0.00000,0.00000,0.00000,58,-8,47,2,76,21,47,0,ok,2,0,0.001,2,-0.3379,-0.50,-0.97,9.35,20,0.139,8.45
2.3722,-0.10472,0.00873,0.20071,0.00000,0.00000,0.00000,57,-9,48,3,77,16,48,0,ok,2,0,0.001,2,-0.3416,-0.50,-0.97,9.35,20,0.152,8.45
2.3948,-0.10472,0.00873,0.20071,0.00000,0.00000,0.00000,55,-10,50,3,79,14,48,0,ok,2,0,0.001,2,-0.3454,-0.50,-0.97,9.35,20,0.164,8.45
2.3983,-0.10472,0.00873,0.20071,0.00000,0.00000,0.00000,53,-11,50,3,79,13,49,0,ok,2,0,0.001,2,-0.3491,-0.50,-0.97,9.35,20,0.178,8.45
2.4109,-0.10472,0.00873,0.20071,0.00000,0.00000,0.00000,52,-12,50,5,79,11,50,0,ok,2,0,0.001,2,-0.3529,-0.50,-0.97,9.35,20,0.190,8.45
2.4308,0.04538,-0.01571,0.20420,0.00000,0.00000,0.00000,50,-12,52,6,79,7,51,0,ok,2,0,0.001,2,-0.3566,-0.20,0.64,9.43,21,0.000,8.45
2.4357,0.04538,-0.01571,0.20420,0.00000,0.00000,0.00000,48,-12,53,5,79,4,53,0,ok,2,0,0.001,2,-0.3604,-0.20,0.64,9.43,21,0.012,8.45
2.4483,0.04538,-0.01571,0.20420,0.00000,0.00000,0.00000,47,-11,54,6,78,2,53,-1,ok,2,0,0.001,2,-0.3641,-0.20,0.64,9.43,21,0.025,8.45
2.4708,0.04538,-0.01571,0.20420,0.00000,0.00000,0.00000,45,-11,54,7,77,-1,54,0,ok,2,0,0.001,2,-0.3679,-0.20,0.64,9.43,21,0.037,8.45
2.4740,0.04538,-0.01571,0.20420,0.00000,0.00000,0.00000,44,-11,56,7,76,-3,54,-1,ok,2,0,0.001,2,-0.3716,-0.20,0.64,9.43,21,0.051,8.45
2.4867,0.04538,-0.01571,0.20420,0.00000,0.00000,0.00000,43,-10,56,7,75,-5,56,0,ok,2,0,0.001,2,-0.3754,-0.20,0.64,9.43,21,0.063,8.45
2.5068,0.04538,-0.01571,0.20420,0.00000,0.00000,0.00000,41,-9,57,7,74,-8,56,-1,ok,2,0,0.001,2,-0.3791,-0.20,0.64,9.43,21,0.076,8.45
2.5117,0.04538,-0.01571,0.20420,0.00000,0.00000,0.00000,39,-8,58,8,71,-7,57,0,ok,2,0,0.001,2,-0.3829,-0.20,0.64,9.43,21,0.088,8.45
2.5242,0.04538,-0.01571,0.20420,0.00000,0.00000,0.00000,37,-6,58,8,70,-10,57,0,ok,2,0,0.001,2,-0.3866,-0.20,0.64,9.43,21,0.101,8.45
2.5468,0.04538,-0.01571,0.20420,0.00000,0.00000,0.00000,35,-4,59,9,69,-11,59,0,ok,2,0,0.001,2,-0.3904,-0.20,0.64,9.43,21,0.113,8.45
2.5506,0.04538,-0.01571,0.20420,0.00000,0.00000,0.00000,33,-2,60,10,66,-13,59,0,ok,2,0,0.001,3,-0.3941,-0.20,0.64,9.43,21,0.127,8.45
2.5629,0.04538,-0.01571,0.20420,0.00000,0.00000,0.00000,32,-1,61,11,64,-13,61,0,ok,2,0,0.001,3,-0.3979,-0.20,0.64,9.43,21,0.139,8.45
2.5828,0.04538,-0.01571,0.20420,0.00000,0.00000,0.00000,31,0,62,11,62,-13,63,-3,ok,2,0,0.001,3,-0.4016,-0.20,0.64,9.43,21,0.152,8.45
2.5877,0.04538,-0.01571,0.20420,0.00000,0.00000,0.00000,30,3,62,12,59,-14,63,-2,ok,2,0,0.001,3,-0.4054,-0.20,0.64,9.43,21,0.164,8.45
2.6004,0.04538,-0.01571,0.20420,0.00000,0.00000,0.00000,29,6,63,13,58,-15,64,-2,ok,2,0,0.001,3,-0.4091,-0.20,0.64,9.43,21,0.177,8.45
2.6228,0.04538,-0.01571,0.20420,0.00000,0.00000,0.00000,28,10,63,14,55,-14,65,-1,ok,2,0,0.001,3,-0.4129,-0.20,0.64,9.43,21,0.189,8.45
2.6263,0.01396,-0.02269,0.22340,0.00000,0.00000,0.00000,27,12,64,15,52,-13,65,-1,ok,2,0,0.001,3,-0.4166,-0.87,-0.13,9.14,22,0.000,8.45
2.6387,0.01396,-0.02269,0.22340,0.00000,0.00000,0.00000,28,13,64,16,50,-13,66,0,ok,2,0,0.001,3,-0.4204,-0.87,-0.13,9.14,22,0.013,8.45
2.6588,0.01396,-0.02269,0.22340,0.00000,0.00000,0.00000,28,13,64,17,47,-12,67,-1,ok,2,0,0.001,3,-0.4241,-0.87,-0.13,9.14,22,0.025,8.45
2.6637,0.01396,-0.02269,0.22340,0.00000,0.00000,0.00000,29,12,65,17,44,-12,68,0,ok,2,0,0.001,3,-0.4279,-0.87,-0.13,9.14,22,0.038,8.45
2.6764,0.01396,-0.02269,0.22340,0.00000,0.00000,0.00000,30,11,65,18,41,-10,69,0,ok,2,0,0.001,3,-0.4316,-0.87,-0.13,9.14,22,0.050,8.45
2.6988,0.01396,-0.02269,0.22340,0.00000,0.00000,0.00000,31,11,65,19,38,-10,69,2,ok,2,0,0.001,3,-0.4354,-0.87,-0.13,9.14,22,0.063,8.45
2.7021,0.01396,-0.02269,0.22340,0.00000,0.00000,0.00000,32,10,66,19,35,-8,69,2,ok,2,0,0.001,3,-0.4391,-0.87,-0.13,9.14,22,0.076,8.45
2.7148,0.01396,-0.02269,0.22340,0.00000,0.00000,0.00000,32,10,66,20,33,-7,70,3,ok,2,0,0.001,3,-0.4429,-0.87,-0.13,9.14,22,0.089,8.45
2.7348,0.01396,-0.02269,0.22340,0.00000,0.00000,0.00000,33,8,66,21,32,-5,71,4,ok,2,0,0.001,3,-0.4466,-0.87,-0.13,9.14,22,0.101,8.45
2.7398,0.01396,-0.02269,0.22340,0.00000,0.00000,0.00000,35,7,66,22,29,-2,71,4,ok,2,0,0.001,3,-0.4504,-0.87,-0.13,9.14,22,0.114,8.45
2.7522,0.01396,-0.02269,0.22340,0.00000,0.00000,0.00000,35,7,66,23,28,0,71,6,ok,2,0,0.001,3,-0.4541,-0.87,-0.13,9.14,22,0.126,8.45
2.7748,0.01396,-0.02269,0.22340,0.00000,0.00000,0.00000,36,6,66,24,27,3,71,7,ok,2,0,0.001,3,-0.4579,-0.87,-0.13,9.14,22,0.139,8.45
2.7780,0.01396,-0.02269,0.22340,0.00000,0.00000,0.00000,37,6,65,25,26,6,72,8,ok,2,0,0.001,3,-0.4616,-0.87,-0.13,9.14,22,0.152,8.45
2.7907,0.01396,-0.02269,0.22340,0.00000,0.00000,0.00000,38,5,64,28,28,5,72,9,ok,2,0,0.001,3,-0.4654,-0.87,-0.13,9.14,22,0.165,8.45
2.8108,0.01396,-0.02269,0.22340,0.00000,0.00000,0.00000,38,4,64,29,29,5,72,11,ok,2,0,0.001,3,-0.4691,-0.87,-0.13,9.14,22,0.177,8.45
2.8161,0.01396,-0.02269,0.22340,0.00000,0.00000,0.00000,39,4,65,27,30,3,72,12,ok,2,0,0.001,3,-0.4729,-0.87,-0.13,9.14,22,0.190,8.45
2.8285,-0.13265,-0.07679,0.26704,0.00000,0.00000,0.00000,40,3,68,25,31,2,73,14,ok,2,0,0.001,3,-0.4766,-1.27,-0.60,8.97,23,0.000,8.45
2.8508,-0.13265,-0.07679,0.26704,0.00000,0.00000,0.00000,41,3,70,21,32,2,73,16,ok,2,0,0.001,3,-0.4804,-1.27,-0.60,8.97,23,0.013,8.45
2.8542,-0.13265,-0.07679,0.26704,0.00000,0.00000,0.00000,41,2,71,17,33,1,72,18,ok,2,0,0.001,3,-0.4841,-1.27,-0.60,8.97,23,0.026,8.45
2.8667,-0.13265,-0.07679,0.26704,0.00000,0.00000,0.00000,42,2,71,15,34,0,72,20,ok,2,0,0.001,3,-0.4879,-1.27,-0.60,8.97,23,0.038,8.45
2.8868,-0.13265,-0.07679,0.26704,0.00000,0.00000,0.00000,43,1,72,15,37,0,73,20,ok,2,0,0.001,3,-0.4916,-1.27,-0.60,8.97,23,0.051,8.45
2.8917,-0.13265,-0.07679,0.26704,0.00000,0.00000,0.00000,43,1,72,11,37,0,72,22,ok,2,0,0.001,3,-0.4954,-1.27,-0.60,8.97,23,0.063,8.45
2.9042,-0.13265,-0.07679,0.26704,0.00000,0.00000,0.00000,44,1,71,8,39,1,72,23,ok,2,0,0.001,3,-0.4991,-1.27,-0.60,8.97,23,0.076,8.45
2.9268,-0.13265,-0.07679,0.26704,0.00000,0.00000,0.00000,45,1,71,6,40,0,72,24,ok,2,0,0.001,3,-0.5029,-1.27,-0.60,8.97,23,0.088,8.45
2.9302,-0.13265,-0.07679,0.26704,0.00000,0.00000,0.00000,46,0,70,3,41,1,72,26,ok,2,0,0.001,3,-0.5066,-1.27,-0.60,8.97,23,0.102,8.45
2.9427,-0.13265,-0.07679,0.26704,0.00000,0.00000,0.00000,47,0,69,1,42,0,71,27,ok,2,0,0.001,3,-0.5104,-1.27,-0.60,8.97,23,0.114,8.45
2.9628,-0.13265,-0.07679,0.26704,0.00000,0.00000,0.00000,47,0,68,0,44,0,71,29,ok,2,0,0.001,3,-0.5141,-1.27,-0.60,8.97,23,0.127,8.45
2.9679,-0.13265,-0.07679,0.26704,0.00000,0.00000,0.00000,47,0,66,-2,45,-1,72,29,ok,2,0,0.001,3,-0.5179,-1.27,-0.60,8.97,23,0.139,8.45
2.9802,-0.13265,-0.07679,0.26704,0.00000,0.00000,0.00000,48,1,65,-4,47,-1,73,28,ok,2,0,0.001,3,-0.5216,-1.27,-0.60,8.97,23,0.152,8.45
3.0028,-0.13265,-0.07679,0.26704,0.00000,0.00000,0.00000,49,1,64,-6,48,-1,75,26,ok,2,0,0.001,3,-0.5254,-1.27,-0.60,8.97,23,0.164,8.45
3.0061,-0.13265,-0.07679,0.26704,0.00000,0.00000,0.00000,50,2,62,-7,48,-1,77,20,ok,2,0,0.001,3,-0.5291,-1.27,-0.60,8.97,23,0.178,8.45
3.0189,-0.13265,-0.07679,0.26704,0.00000,0.00000,0.00000,50,1,59,-8,49,-1,78,17,ok,2,0,0.001,3,-0.5329,-1.27,-0.60,8.97,23,0.190,8.45
3.0388,-0.12043,0.04014,0.27402,0.00000,0.00000,0.00000,50,2,57,-9,51,-1,80,13,ok,2,0,0.001,3,-0.5366,0.18,-1.10,10.35,24,0.000,8.45
3.0437,-0.12043,0.04014,0.27402,0.00000,0.00000,0.00000,50,4,54,-10,52,-1,80,13,ok,2,0,0.001,3,-0.5404,0.18,-1.10,10.35,24,0.012,8.45
3.0563,-0.12043,0.04014,0.27402,0.00000,0.00000,0.00000,50,5,51,-10,53,0,79,10,ok,2,0,0.001,3,-0.5441,0.18,-1.10,10.35,24,0.025,8.45
3.0788,-0.12043,0.04014,0.27402,0.00000,0.00000,0.00000,51,4,49,-10,54,0,79,7,ok,2,0,0.001,3,-0.5479,0.18,-1.10,10.35,24,0.038,8.45
3.0820,-0.12043,0.04014,0.27402,0.00000,0.00000,0.00000,51,5,46,-9,55,1,79,4,ok,2,0,0.001,3,-0.5516,0.18,-1.10,10.35,24,0.051,8.45
3.0947,-0.12043,0.04014,0.27402,0.00000,0.00000,0.00000,51,6,43,-9,56,0,78,2,ok,2,0,0.001,3,-0.5554,0.18,-1.10,10.35,24,0.064,8.45
3.1148,-0.12043,0.04014,0.27402,0.00000,0.00000,0.00000,52,6,41,-10,57,1,77,-2,ok,2,0,0.001,3,-0.5591,0.18,-1.10,10.35,24,0.076,8.45
3.1197,-0.12043,0.04014,0.27402,0.00000,0.00000,0.00000,52,6,39,-9,58,0,77,-3,ok,2,0,0.001,3,-0.5629,0.18,-1.10,10.35,24,0.088,8.45
3.1324,-0.12043,0.04014,0.27402,0.00000,0.00000,0.00000,53,7,35,-7,59,1,76,-5,ok,2,0,0.001,3,-0.5666,0.18,-1.10,10.35,24,0.101,8.45
3.1548,-0.12043,0.04014,0.27402,0.00000,0.00000,0.00000,53,8,33,-6,59,1,74,-7,ok,2,0,0.001,3,-0.5704,0.18,-1.10,10.35,24,0.114,8.45
3.1581,-0.12043,0.04014,0.27402,0.00000,0.00000,0.00000,53,8,29,-5,60,1,71,-7,ok,2,0,0.001,3,-0.5741,0.18,-1.10,10.35,24,0.127,8.45
3.1707,-0.12043,0.04014,0.27402,0.00000,0.00000,0.00000,54,9,26,-3,61,1,70,-9,ok,2,0,0.001,3,-0.5779,0.18,-1.10,10.35,24,0.139,8.45
3.1908,-0.12043,0.04014,0.27402,0.00000,0.00000,0.00000,55,10,22,-2,62,0,69,-11,ok,2,0,0.001,3,-0.5816,0.18,-1.10,10.35,24,0.152,8.45
3.1957,-0.12043,0.04014,0.27402,0.00000,0.00000,0.00000,55,10,20,0,65,-2,67,-12,ok,2,0,0.001,3,-0.5854,0.18,-1.10,10.35,24,0.164,8.45
3.2082,-0.12043,0.04014,0.27402,0.00000,0.00000,0.00000,55,11,18,1,65,-1,65,-13,ok,2,0,0.001,3,-0.5891,0.18,-1.10,10.35,24,0.177,8.45
3.2308,-0.12043,0.04014,0.27402,0.00000,0.00000,0.00000,55,11,16,3,66,0,63,-13,ok,2,0,0.001,3,-0.5929,0.18,-1.10,10.35,24,0.189,8.45
3.2344,-0.06283,0.00349,0.22166,0.00000,0.00000,0.00000,55,12,14,6,66,0,60,-14,ok,2,0,0.001,3,-0.5891,0.31,-0.47,10.02,25,0.000,8.45
3.2468,-0.06283,0.00349,0.22166,0.00000,0.00000,0.00000,55,13,13,10,67,0,58,-15,ok,2,0,0.001,3,-0.5854,0.31,-0.47,10.02,25,0.013,8.45
3.2668,-0.06283,0.00349,0.22166,0.00000,0.00000,0.00000,55,14,11,12,67,0,55,-13,ok,2,0,0.001,3,-0.5816,0.31,-0.47,10.02,25,0.025,8.45
3.2718,-0.06283,0.00349,0.22166,0.00000,0.00000,0.00000,56,15,13,12,68,0,53,-13,ok,2,0,0.001,3,-0.5779,0.31,-0.47,10.02,25,0.038,8.45
3.2842,-0.06283,0.00349,0.22166,0.00000,0.00000,0.00000,56,16,13,12,69,1,50,-12,ok,2,0,0.001,3,-0.5741,0.31,-0.47,10.02,25,0.050,8.45
3.3068,-0.06283,0.00349,0.22166,0.00000,0.00000,0.00000,56,17,14,11,69,1,47,-11,ok,2,0,0.001,3,-0.5704,0.31,-0.47,10.02,25,0.063,8.45
3.3101,-0.06283,0.00349,0.22166,0.00000,0.00000,0.00000,57,18,15,10,69,2,45,-11,ok,2,0,0.001,3,-0.5666,0.31,-0.47,10.02,25,0.076,8.45
3.3228,-0.06283,0.00349,0.22166,0.00000,0.00000,0.00000,57,18,16,10,69,2,41,-9,ok,2,0,0.001,3,-0.5629,0.31,-0.47,10.02,25,0.089,8.45
3.3428,-0.06283,0.00349,0.22166,0.00000,0.00000,0.00000,57,18,17,9,70,3,39,-9,ok,2,0,0.001,3,-0.5591,0.31,-0.47,10.02,25,0.101,8.45
3.3477,-0.06283,0.00349,0.22166,0.00000,0.00000,0.00000,57,20,18,8,70,4,35,-7,ok,2,0,0.001,3,-0.5554,0.31,-0.47,10.02,25,0.114,8.45
3.3602,-0.06283,0.00349,0.22166,0.00000,0.00000,0.00000,58,21,20,7,71,4,34,-5,ok,2,0,0.001,3,-0.5516,0.31,-0.47,10.02,25,0.126,8.45
3.3829,-0.06283,0.00349,0.22166,0.00000,0.00000,0.00000,58,22,21,6,71,6,32,-4,ok,2,0,0.001,3,-0.5479,0.31,-0.47,10.02,25,0.139,8.45
3.3861,-0.06283,0.00349,0.22166,0.00000,0.00000,0.00000,57,23,22,6,71,7,29,-1,ok,2,0,0.001,3,-0.5441,0.31,-0.47,10.02,25,0.152,8.45
3.3990,-0.06283,0.00349,0.22166,0.00000,0.00000,0.00000,57,24,23,6,71,8,28,2,ok,2,0,0.001,3,-0.5404,0.31,-0.47,10.02,25,0.165,8.45
3.4188,-0.06283,0.00349,0.22166,0.00000,0.00000,0.00000,57,25,25,5,72,9,27,5,ok,2,0,0.001,3,-0.5366,0.31,-0.47,10.02,25,0.177,8.45
3.4238,-0.06283,0.00349,0.22166,0.00000,0.00000,0.00000,57,28,26,5,72,10,26,7,ok,2,0,0.001,3,-0.5329,0.31,-0.47,10.02,25,0.190,8.45
3.4365,-0.12566,0.03840,0.24784,0.00000,0.00000,0.00000,57,29,27,4,72,11,29,6,ok,2,0,0.001,3,-0.5291,-0.23,-1.74,10.15,26,0.000,8.45
3.4588,-0.12566,0.03840,0.24784,0.00000,0.00000,0.00000,57,28,28,3,72,13,29,6,ok,2,0,0.001,3,-0.5254,-0.23,-1.74,10.15,26,0.013,8.45
3.4620,-0.12566,0.03840,0.24784,0.00000,0.00000,0.00000,59,25,30,3,72,14,30,4,ok,2,0,0.001,3,-0.5216,-0.23,-1.74,10.15,26,0.026,8.45
3.4748,-0.12566,0.03840,0.24784,0.00000,0.00000,0.00000,60,21,31,2,72,15,31,3,ok,2,0,0.001,3,-0.5179,-0.23,-1.74,10.15,26,0.038,8.45
3.4948,-0.12566,0.03840,0.24784,0.00000,0.00000,0.00000,60,17,32,2,72,17,33,3,ok,2,0,0.001,3,-0.5141,-0.23,-1.74,10.15,26,0.051,8.45
3.4997,-0.12566,0.03840,0.24784,0.00000,0.00000,0.00000,60,15,34,2,72,18,34,2,ok,2,0,0.001,3,-0.5104,-0.23,-1.74,10.15,26,0.063,8.45
3.5122,-0.12566,0.03840,0.24784,0.00000,0.00000,0.00000,60,14,35,1,71,20,36,1,ok,2,0,0.001,3,-0.5066,-0.23,-1.74,10.15,26,0.076,8.45
3.5348,-0.12566,0.03840,0.24784,0.00000,0.00000,0.00000,60,11,36,1,71,22,38,1,ok,2,0,0.001,3,-0.5029,-0.23,-1.74,10.15,26,0.088,8.45
3.5381,-0.12566,0.03840,0.24784,0.00000,0.00000,0.00000,60,7,38,2,72,23,38,2,ok,2,0,0.001,3,-0.4991,-0.23,-1.74,10.15,26,0.102,8.45
3.5510,-0.12566,0.03840,0.24784,0.00000,0.00000,0.00000,60,5,39,2,72,25,40,1,ok,2,0,0.001,3,-0.4954,-0.23,-1.74,10.15,26,0.114,8.45
3.5708,-0.12566,0.03840,0.24784,0.00000,0.00000,0.00000,59,1,41,1,71,27,41,1,ok,2,0,0.001,4,-0.4916,-0.23,-1.74,10.15,26,0.127,8.45
3.5758,-0.12566,0.03840,0.24784,0.00000,0.00000,0.00000,59,-1,42,1,71,28,42,2,ok,2,0,0.001,4,-0.4879,-0.23,-1.74,10.15,26,0.139,8.45
3.5882,-0.12566,0.03840,0.24784,0.00000,0.00000,0.00000,58,-3,44,1,72,28,43,1,ok,2,0,0.001,4,-0.4841,-0.23,-1.74,10.15,26,0.152,8.45
3.6108,-0.12566,0.03840,0.24784,0.00000,0.00000,0.00000,57,-4,44,1,73,28,44,1,ok,2,0,0.001,4,-0.4804,-0.23,-1.74,10.15,26,0.164,8.45
3.6140,-0.12566,0.03840,0.24784,0.00000,0.00000,0.00000,57,-6,46,2,74,26,45,0,ok,2,0,0.001,4,-0.4766,-0.23,-1.74,10.15,26,0.178,8.45
3.6268,-0.12566,0.03840,0.24784,0.00000,0.00000,0.00000,56,-8,47,2,76,21,47,0,ok,2,0,0.001,4,-0.4761,-0.23,-1.74,10.15,26,0.190,8.45
3.6468,-0.02443,-0.04014,0.24784,0.00000,0.00000,0.00000,55,-9,48,3,78,16,48,0,ok,2,0,0.001,4,-0.4771,1.45,0.34,11.57,27,0.000,8.45
3.6517,-0.02443,-0.04014,0.24784,0.00000,0.00000,0.00000,54,-11,50,3,79,14,48,0,ok,2,0,0.001,4,-0.4781,1.45,0.34,11.57,27,0.013,8.45
3.6642,-0.02443,-0.04014,0.24784,0.00000,0.00000,0.00000,53,-11,51,2,79,13,49,0,ok,2,0,0.001,4,-0.4792,1.45,0.34,11.57,27,0.025,8.45
3.6868,-0.02443,-0.04014,0.24784,0.00000,0.00000,0.00000,52,-12,51,5,79,11,50,0,ok,2,0,0.001,4,-0.4802,1.45,0.34,11.57,27,0.038,8.45
3.6900,-0.02443,-0.04014,0.24784,0.00000,0.00000,0.00000,50,-12,52,5,79,7,51,0,ok,2,0,0.001,4,-0.4812,1.45,0.34,11.57,27,0.051,8.45
3.7027,-0.02443,-0.04014,0.24784,0.00000,0.00000,0.00000,48,-12,53,5,79,4,52,0,ok,2,0,0.001,4,-0.4822,1.45,0.34,11.57,27,0.064,8.45
3.7228,-0.02443,-0.04014,0.24784,0.00000,0.00000,0.00000,47,-11,54,6,78,2,53,0,ok,2,0,0.001,4,-0.4833,1.45,0.34,11.57,27,0.076,8.45
3.7277,-0.02443,-0.04014,0.24784,0.00000,0.00000,0.00000,46,-11,54,7,77,-2,54,0,ok,2,0,0.001,4,-0.4843,1.45,0.34,11.57,27,0.089,8.45
3.7402,-0.02443,-0.04014,0.24784,0.00000,0.00000,0.00000,45,-11,56,7,76,-4,54,-1,ok,2,0,0.001,4,-0.4853,1.45,0.34,11.57,27,0.101,8.45
3.7628,-0.02443,-0.04014,0.24784,0.00000,0.00000,0.00000,44,-10,56,7,75,-5,56,0,ok,2,0,0.001,4,-0.4863,1.45,0.34,11.57,27,0.114,8.45
3.7661,-0.02443,-0.04014,0.24784,0.00000,0.00000,0.00000,42,-9,57,7,74,-8,56,-1,ok,2,0,0.001,4,-0.4874,1.45,0.34,11.57,27,0.127,8.45
3.7787,-0.02443,-0.04014,0.24784,0.00000,0.00000,0.00000,41,-8,58,8,71,-8,57,0,ok,2,0,0.001,4,-0.4884,1.45,0.34,11.57,27,0.140,8.45
3.7988,-0.02443,-0.04014,0.24784,0.00000,0.00000,0.00000,39,-6,59,8,70,-10,57,0,ok,2,0,0.001,4,-0.4894,1.45,0.34,11.57,27,0.152,8.45
3.8039,-0.02443,-0.04014,0.24784,0.00000,0.00000,0.00000,38,-4,59,9,68,-12,59,0,ok,2,0,0.001,4,-0.4904,1.45,0.34,11.57,27,0.165,8.45
3.8162,-0.02443,-0.04014,0.24784,0.00000,0.00000,0.00000,36,-2,60,11,66,-13,59,0,ok,2,0,0.001,4,-0.4915,1.45,0.34,11.57,27,0.177,8.45
3.8388,-0.02443,-0.04014,0.24784,0.00000,0.00000,0.00000,35,-1,61,11,64,-14,60,0,ok,2,0,0.001,4,-0.4925,1.45,0.34,11.57,27,0.190,8.45
3.8423,0.03665,-0.02443,0.26180,0.00000,0.00000,0.00000,34,0,62,11,62,-14,63,-3,ok,2,0,0.001,4,-0.4887,0.54,0.21,10.37,28,0.000,8.45
3.8548,0.03665,-0.02443,0.26180,0.00000,0.00000,0.00000,33,3,63,12,59,-14,63,-2,ok,2,0,0.001,4,-0.4890,0.54,0.21,10.37,28,0.013,8.45
3.8748,0.03665,-0.02443,0.26180,0.00000,0.00000,0.00000,32,6,63,13,58,-15,64,-2,ok,2,0,0.001,4,-0.4901,0.54,0.21,10.37,28,0.025,8.45
3.8798,0.03665,-0.02443,0.26180,0.00000,0.00000,0.00000,31,10,63,14,55,-14,65,-1,ok,2,0,0.001,4,-0.4912,0.54,0.21,10.37,28,0.038,8.45
3.8922,0.03665,-0.02443,0.26180,0.00000,0.00000,0.00000,30,13,64,15,52,-13,65,-1,ok,2,0,0.001,4,-0.4924,0.54,0.21,10.37,28,0.050,8.45
3.9148,0.03665,-0.02443,0.26180,0.00000,0.00000,0.00000,31,13,64,16,50,-13,66,0,ok,2,0,0.001,4,-0.4935,0.54,0.21,10.37,28,0.063,8.45
3.9180,0.03665,-0.02443,0.26180,0.00000,0.00000,0.00000,31,13,64,17,47,-12,67,-1,ok,2,0,0.001,4,-0.4946,0.54,0.21,10.37,28,0.076,8.45
3.9307,0.03665,-0.02443,0.26180,0.00000,0.00000,0.00000,32,12,65,17,44,-12,67,0,ok,2,0,0.001,4,-0.4957,0.54,0.21,10.37,28,0.089,8.45
3.9508,0.03665,-0.02443,0.26180,0.00000,0.00000,0.00000,32,12,65,18,41,-11,68,0,ok,2,0,0.001,4,-0.4969,0.54,0.21,10.37,28,0.101,8.45
3.9557,0.03665,-0.02443,0.26180,0.00000,0.00000,0.00000,33,11,65,19,38,-10,69,1,ok,2,0,0.001,4,-0.4980,0.54,0.21,10.37,28,0.114,8.45
3.9682,0.03665,-0.02443,0.26180,0.00000,0.00000,0.00000,34,10,66,19,35,-8,69,2,ok,2,0,0.001,4,-0.4991,0.54,0.21,10.37,28,0.126,8.45
3.9908,0.03665,-0.02443,0.26180,0.00000,0.00000,0.00000,34,10,66,20,33,-7,70,3,ok,2,0,0.001,4,-0.5002,0.54,0.21,10.37,28,0.139,8.45
3.9942,0.03665,-0.02443,0.26180,0.00000,0.00000,0.00000,36,8,66,21,32,-5,71,4,ok,2,0,0.001,4,-0.5014,0.54,0.21,10.37,28,0.152,8.45
4.0068,0.03665,-0.02443,0.26180,0.00000,0.00000,0.00000,36,8,66,22,29,-2,71,5,ok,2,0,0.001,4,-0.5025,0.54,0.21,10.37,28,0.165,8.45
4.0268,0.03665,-0.02443,0.26180,0.00000,0.00000,0.00000,37,7,66,23,28,0,71,6,ok,2,0,0.001,4,-0.5036,0.54,0.21,10.37,28,0.177,8.45
4.0317,0.03665,-0.02443,0.26180,0.00000,0.00000,0.00000,37,6,66,24,27,3,71,7,ok,2,0,0.001,4,-0.5047,0.54,0.21,10.37,28,0.190,8.45
4.0445,-0.08901,-0.06807,0.28449,0.00000,0.00000,0.00000,38,6,65,25,26,6,72,8,ok,2,0,0.001,4,-0.5085,0.32,-1.31,11.93,29,0.000,8.45
4.0668,-0.08901,-0.06807,0.28449,0.00000,0.00000,0.00000,39,5,64,28,28,5,72,9,ok,2,0,0.001,4,-0.5122,0.32,-1.31,11.93,29,0.013,8.45
4.0701,-0.08901,-0.06807,0.28449,0.00000,0.00000,0.00000,39,4,64,29,28,4,72,11,ok,2,0,0.001,4,-0.5160,0.32,-1.31,11.93,29,0.026,8.45
4.0829,-0.08901,-0.06807,0.28449,0.00000,0.00000,0.00000,40,4,65,28,30,2,72,13,ok,2,0,0.001,4,-0.5197,0.32,-1.31,11.93,29,0.039,8.45
4.1028,-0.08901,-0.06807,0.28449,0.00000,0.00000,0.00000,41,3,68,25,31,1,73,15,ok,2,0,0.001,4,-0.5235,0.32,-1.31,11.93,29,0.051,8.45
4.1077,-0.08901,-0.06807,0.28449,0.00000,0.00000,0.00000,41,2,70,21,32,2,73,16,ok,2,0,0.001,4,-0.5272,0.32,-1.31,11.93,29,0.064,8.45
4.1202,-0.08901,-0.06807,0.28449,0.00000,0.00000,0.00000,42,2,71,17,33,1,72,17,ok,2,0,0.001,4,-0.5310,0.32,-1.31,11.93,29,0.076,8.45
4.1428,-0.08901,-0.06807,0.28449,0.00000,0.00000,0.00000,43,2,72,15,34,0,72,19,ok,2,0,0.001,4,-0.5347,0.32,-1.31,11.93,29,0.089,8.45
4.1461,-0.08901,-0.06807,0.28449,0.00000,0.00000,0.00000,44,1,72,14,37,0,73,20,ok,2,0,0.001,4,-0.5385,0.32,-1.31,11.93,29,0.102,8.45
4.1588,-0.08901,-0.06807,0.28449,0.00000,0.00000,0.00000,44,1,72,11,37,0,72,22,ok,2,0,0.001,4,-0.5422,0.32,-1.31,11.93,29,0.115,8.45
4.1788,-0.08901,-0.06807,0.28449,0.00000,0.00000,0.00000,45,1,71,8,39,1,72,23,ok,2,0,0.001,4,-0.5460,0.32,-1.31,11.93,29,0.127,8.45
4.1838,-0.08901,-0.06807,0.28449,0.00000,0.00000,0.00000,45,1,71,5,40,0,72,24,ok,2,0,0.001,4,-0.5497,0.32,-1.31,11.93,29,0.140,8.45
4.1964,-0.08901,-0.06807,0.28449,0.00000,0.00000,0.00000,46,0,70,3,41,1,72,26,ok,2,0,0.001,4,-0.5535,0.32,-1.31,11.93,29,0.152,8.45
4.2188,-0.08901,-0.06807,0.28449,0.00000,0.00000,0.00000,47,0,69,1,42,0,71,27,ok,2,0,0.001,4,-0.5572,0.32,-1.31,11.93,29,0.165,8.45
4.2220,-0.08901,-0.06807,0.28449,0.00000,0.00000,0.00000,47,0,68,-1,44,0,71,29,ok,2,0,0.001,4,-0.5610,0.32,-1.31,11.93,29,0.178,8.45
4.2347,-0.08901,-0.06807,0.28449,0.00000,0.00000,0.00000,48,0,66,-2,45,-1,72,29,ok,2,0,0.001,4,-0.5647,0.32,-1.31,11.93,29,0.190,8.45
4.2548,-0.16930,-0.01222,0.27576,0.00000,0.00000,0.00000,48,1,65,-4,46,-1,73,28,ok,2,0,0.001,4,-0.5610,0.75,-1.72,10.07,30,0.000,8.45
4.2598,-0.16930,-0.01222,0.27576,0.00000,0.00000,0.00000,49,1,64,-6,48,-1,75,26,ok,2,0,0.001,4,-0.5572,0.75,-1.72,10.07,30,0.012,8.45
4.2722,-0.16930,-0.01222,0.27576,0.00000,0.00000,0.00000,50,2,61,-7,48,-1,77,21,ok,2,0,0.001,4,-0.5535,0.75,-1.72,10.07,30,0.025,8.45
4.2948,-0.16930,-0.01222,0.27576,0.00000,0.00000,0.00000,50,1,59,-8,49,-1,78,17,ok,2,0,0.001,4,-0.5497,0.75,-1.72,10.07,30,0.037,8.45
4.2980,-0.16930,-0.01222,0.27576,0.00000,0.00000,0.00000,50,1,56,-9,51,-1,80,14,ok,2,0,0.001,4,-0.5460,0.75,-1.72,10.07,30,0.051,8.45
4.3109,-0.16930,-0.01222,0.27576,0.00000,0.00000,0.00000,50,4,54,-10,52,-1,80,13,ok,2,0,0.001,4,-0.5422,0.75,-1.72,10.07,30,0.064,8.45
4.3308,-0.16930,-0.01222,0.27576,0.00000,0.00000,0.00000,51,4,51,-9,53,-1,80,10,ok,2,0,0.001,4,-0.5385,0.75,-1.72,10.07,30,0.076,8.45
4.3357,-0.16930,-0.01222,0.27576,0.00000,0.00000,0.00000,51,4,49,-9,54,-1,80,7,ok,2,0,0.001,4,-0.5347,0.75,-1.72,10.07,30,0.088,8.45
4.3482,-0.16930,-0.01222,0.27576,0.00000,0.00000,0.00000,51,5,46,-9,55,0,79,4,ok,2,0,0.001,4,-0.5310,0.75,-1.72,10.07,30,0.101,8.45
4.3708,-0.16930,-0.01222,0.27576,0.00000,0.00000,0.00000,51,6,43,-9,56,0,79,2,ok,2,0,0.001,4,-0.5272,0.75,-1.72,10.07,30,0.114,8.45
4.3741,-0.16930,-0.01222,0.27576,0.00000,0.00000,0.00000,52,6,41,-9,57,1,77,-2,ok,2,0,0.001,4,-0.5235,0.75,-1.72,10.07,30,0.127,8.45
4.3867,-0.16930,-0.01222,0.27576,0.00000,0.00000,0.00000,52,6,39,-8,58,0,77,-3,ok,2,0,0.001,4,-0.5240,0.75,-1.72,10.07,30,0.139,8.45
4.4068,-0.16930,-0.01222,0.27576,0.00000,0.00000,0.00000,53,7,36,-7,59,0,76,-5,ok,2,0,0.001,4,-0.5253,0.75,-1.72,10.07,30,0.152,8.45
4.4118,-0.16930,-0.01222,0.27576,0.00000,0.00000,0.00000,53,8,33,-6,60,1,74,-7,ok,2,0,0.001,4,-0.5265,0.75,-1.72,10.07,30,0.164,8.45
4.4242,-0.16930,-0.01222,0.27576,0.00000,0.00000,0.00000,54,8,29,-5,61,1,71,-7,ok,2,0,0.001,4,-0.5277,0.75,-1.72,10.07,30,0.177,8.45
4.4468,-0.16930,-0.01222,0.27576,0.00000,0.00000,0.00000,54,9,26,-3,61,1,70,-9,ok,2,0,0.001,4,-0.5289,0.75,-1.72,10.07,30,0.189,8.45
4.4503,-0.07679,-0.01745,0.25133,0.00000,0.00000,0.00000,55,10,22,-1,62,0,69,-11,ok,2,0,0.001,4,-0.5252,-0.27,-0.60,9.46,31,0.000,8.45
4.4628,-0.07679,-0.01745,0.25133,0.00000,0.00000,0.00000,55,10,20,0,64,-2,67,-12,ok,2,0,0.001,4,-0.5214,-0.27,-0.60,9.46,31,0.013,8.45
4.4828,-0.07679,-0.01745,0.25133,0.00000,0.00000,0.00000,55,11,19,1,65,-1,64,-13,ok,2,0,0.001,4,-0.5177,-0.27,-0.60,9.46,31,0.025,8.45
4.4879,-0.07679,-0.01745,0.25133,0.00000,0.00000,0.00000,56,11,17,3,66,0,63,-14,ok,2,0,0.001,4,-0.5139,-0.27,-0.60,9.46,31,0.038,8.45
4.5002,-0.07679,-0.01745,0.25133,0.00000,0.00000,0.00000,56,12,15,6,66,0,60,-14,ok,2,0,0.001,4,-0.5102,-0.27,-0.60,9.46,31,0.050,8.45
4.5228,-0.07679,-0.01745,0.25133,0.00000,0.00000,0.00000,56,13,13,10,67,0,58,-15,ok,2,0,0.001,4,-0.5064,-0.27,-0.60,9.46,31,0.063,8.45
4.5261,-0.07679,-0.01745,0.25133,0.00000,0.00000,0.00000,56,14,11,12,67,0,55,-13,ok,2,0,0.001,4,-0.5027,-0.27,-0.60,9.46,31,0.076,8.45
4.5387,-0.07679,-0.01745,0.25133,0.00000,0.00000,0.00000,57,15,13,12,68,0,52,-13,ok,2,0,0.001,4,-0.4989,-0.27,-0.60,9.46,31,0.089,8.45
4.5588,-0.07679,-0.01745,0.25133,0.00000,0.00000,0.00000,57,16,13,12,69,0,50,-12,ok,2,0,0.001,4,-0.4952,-0.27,-0.60,9.46,31,0.101,8.45
4.5637,-0.07679,-0.01745,0.25133,0.00000,0.00000,0.00000,58,17,14,11,69,1,47,-11,ok,2,0,0.001,4,-0.4914,-0.27,-0.60,9.46,31,0.114,8.45
4.5764,-0.07679,-0.01745,0.25133,0.00000,0.00000,0.00000,58,18,15,10,69,1,45,-11,ok,2,0,0.001,5,-0.4877,-0.27,-0.60,9.46,31,0.126,8.45
4.5988,-0.07679,-0.01745,0.25133,0.00000,0.00000,0.00000,58,18,16,10,69,2,41,-9,ok,2,0,0.001,5,-0.4839,-0.27,-0.60,9.46,31,0.139,8.45
4.6020,-0.07679,-0.01745,0.25133,0.00000,0.00000,0.00000,58,18,17,9,70,3,39,-9,ok,2,0,0.001,5,-0.4802,-0.27,-0.60,9.46,31,0.152,8.45
4.6148,-0.07679,-0.01745,0.25133,0.00000,0.00000,0.00000,58,20,18,8,70,4,35,-7,ok,2,0,0.001,5,-0.4764,-0.27,-0.60,9.46,31,0.165,8.45
4.6348,-0.07679,-0.01745,0.25133,0.00000,0.00000,0.00000,59,21,20,7,71,4,34,-6,ok,2,0,0.001,5,-0.4727,-0.27,-0.60,9.46,31,0.177,8.45
4.6397,-0.07679,-0.01745,0.25133,0.00000,0.00000,0.00000,59,22,21,7,71,6,32,-4,ok,2,0,0.001,5,-0.4689,-0.27,-0.60,9.46,31,0.190,8.45
4.6525,-0.05061,0.00873,0.22515,0.00000,0.00000,0.00000,59,23,22,6,71,7,29,-1,ok,2,0,0.001,5,-0.4652,0.79,-0.27,10.10,32,0.000,8.45
4.6748,-0.05061,0.00873,0.22515,0.00000,0.00000,0.00000,59,24,23,6,71,8,28,2,ok,2,0,0.001,5,-0.4614,0.79,-0.27,10.10,32,0.013,8.45
4.6780,-0.05061,0.00873,0.22515,0.00000,0.00000,0.00000,59,25,25,5,72,9,27,5,ok,2,0,0.001,5,-0.4577,0.79,-0.27,10.10,32,0.026,8.45
4.6907,-0.05061,0.00873,0.22515,0.00000,0.00000,0.00000,58,28,26,5,72,10,26,7,ok,2,0,0.001,5,-0.4539,0.79,-0.27,10.10,32,0.039,8.45
4.7108,-0.05061,0.00873,0.22515,0.00000,0.00000,0.00000,58,29,27,3,71,11,28,6,ok,2,0,0.001,5,-0.4502,0.79,-0.27,10.10,32,0.051,8.45
4.7157,-0.05061,0.00873,0.22515,0.00000,0.00000,0.00000,58,28,28,3,72,13,29,5,ok,2,0,0.001,5,-0.4464,0.79,-0.27,10.10,32,0.064,8.45
4.7282,-0.05061,0.00873,0.22515,0.00000,0.00000,0.00000,60,25,30,3,72,14,30,3,ok,2,0,0.001,5,-0.4427,0.79,-0.27,10.10,32,0.076,8.45
4.7508,-0.05061,0.00873,0.22515,0.00000,0.00000,0.00000,61,21,31,2,72,15,31,3,ok,2,0,0.001,5,-0.4389,0.79,-0.27,10.10,32,0.089,8.45
4.7540,-0.05061,0.00873,0.22515,0.00000,0.00000,0.00000,62,17,33,2,71,17,33,3,ok,2,0,0.001,5,-0.4352,0.79,-0.27,10.10,32,0.102,8.45
4.7667,-0.05061,0.00873,0.22515,0.00000,0.00000,0.00000,62,15,34,2,72,18,34,2,ok,2,0,0.001,5,-0.4314,0.79,-0.27,10.10,32,0.114,8.45
4.7868,-0.05061,0.00873,0.22515,0.00000,0.00000,0.00000,62,14,35,1,71,20,36,1,ok,2,0,0.001,5,-0.4277,0.79,-0.27,10.10,32,0.127,8.45
4.7917,-0.05061,0.00873,0.22515,0.00000,0.00000,0.00000,62,11,37,1,71,22,38,1,ok,2,0,0.001,5,-0.4239,0.79,-0.27,10.10,32,0.139,8.45
4.8042,-0.05061,0.00873,0.22515,0.00000,0.00000,0.00000,62,7,38,2,71,23,38,2,ok,2,0,0.001,5,-0.4202,0.79,-0.27,10.10,32,0.152,8.45
4.8268,-0.05061,0.00873,0.22515,0.00000,0.00000,0.00000,61,5,39,2,72,25,40,1,ok,2,0,0.001,5,-0.4164,0.79,-0.27,10.10,32,0.165,8.45
4.8300,-0.05061,0.00873,0.22515,0.00000,0.00000,0.00000,61,1,41,1,71,27,41,1,ok,2,0,0.001,5,-0.4127,0.79,-0.27,10.10,32,0.178,8.45
4.8427,-0.05061,0.00873,0.22515,0.00000,0.00000,0.00000,60,-1,42,1,71,28,42,1,ok,2,0,0.001,5,-0.4089,0.79,-0.27,10.10,32,0.191,8.45
4.8628,-0.05061,0.00873,0.22515,0.00000,0.00000,0.00000,60,-3,44,2,71,28,43,1,ok,2,0,0.001,5,-0.4052,0.79,-0.27,10.10,32,0.203,8.45
4.8680,-0.08378,-0.03840,0.28798,0.00000,0.00000,0.00000,58,-4,44,2,72,28,44,1,ok,2,0,0.001,5,-0.4089,-0.04,-1.17,10.27,33,0.000,8.45
4.8802,-0.08378,-0.03840,0.28798,0.00000,0.00000,0.00000,58,-6,46,2,74,25,46,0,ok,2,0,0.001,5,-0.4127,-0.04,-1.17,10.27,33,0.013,8.45
4.9028,-0.08378,-0.03840,0.28798,0.00000,0.00000,0.00000,57,-8,47,2,76,21,47,0,ok,2,0,0.001,5,-0.4164,-0.04,-1.17,10.27,33,0.025,8.45
4.9060,-0.08378,-0.03840,0.28798,0.00000,0.00000,0.00000,56,-9,48,3,77,16,48,0,ok,2,0,0.001,5,-0.4202,-0.04,-1.17,10.27,33,0.038,8.45
4.9187,-0.08378,-0.03840,0.28798,0.00000,0.00000,0.00000,55,-11,50,3,79,13,49,0,ok,2,0,0.001,5,-0.4239,-0.04,-1.17,10.27,33,0.051,8.45
4.9388,-0.08378,-0.03840,0.28798,0.00000,0.00000,0.00000,53,-11,50,3,79,13,49,0,ok,2,0,0.001,5,-0.4277,-0.04,-1.17,10.27,33,0.064,8.45
4.9439,-0.08378,-0.03840,0.28798,0.00000,0.00000,0.00000,52,-12,51,5,79,10,51,0,ok,2,0,0.001,5,-0.4314,-0.04,-1.17,10.27,33,0.076,8.45
4.9562,-0.08378,-0.03840,0.28798,0.00000,0.00000,0.00000,50,-12,52,6,79,7,51,0,ok,2,0,0.001,5,-0.4352,-0.04,-1.17,10.27,33,0.088,8.45
4.9788,-0.08378,-0.03840,0.28798,0.00000,0.00000,0.00000,48,-12,53,5,78,4,52,0,ok,2,0,0.001,5,-0.4389,-0.04,-1.17,10.27,33,0.101,8.45
4.9820,-0.08378,-0.03840,0.28798,0.00000,0.00000,0.00000,47,-11,54,6,78,2,53,0,ok,2,0,0.001,5,-0.4427,-0.04,-1.17,10.27,33,0.114,8.45
4.9949,-0.08378,-0.03840,0.28798,0.00000,0.00000,0.00000,46,-11,54,7,77,-2,54,1,ok,2,0,0.001,5,-0.4464,-0.04,-1.17,10.27,33,0.127,8.45
5.0148,-0.08378,-0.03840,0.28798,0.00000,0.00000,0.00000,45,-11,56,7,76,-4,54,-1,ok,2,0,0.001,5,-0.4502,-0.04,-1.17,10.27,33,0.139,8.45
5.0267,-0.08378,-0.03840,0.28798,0.00000,0.00000,0.00000,43,-10,56,7,75,-5,55,0,ok,2,0,0.001,5,-0.4539,-0.04,-1.17,10.27,33,0.152,8.45
5.0321,-0.08378,-0.03840,0.28798,0.00000,0.00000,0.00000,42,-9,57,8,74,-8,56,-1,ok,2,0,0.001,5,-0.4577,-0.04,-1.17,10.27,33,0.164,8.45
5.0548,-0.08378,-0.03840,0.28798,0.00000,0.00000,0.00000,40,-8,58,8,71,-8,57,0,ok,2,0,0.001,5,-0.4614,-0.04,-1.17,10.27,33,0.177,8.45
5.0580,-0.08378,-0.03840,0.28798,0.00000,0.00000,0.00000,39,-6,59,9,70,-10,57,0,ok,2,0,0.001,5,-0.4652,-0.04,-1.17,10.27,33,0.190,8.45
5.0710,0.05760,0.03316,0.29496,0.00000,0.00000,0.00000,37,-4,59,9,69,-12,58,0,ok,2,0,0.001,5,-0.4689,-0.14,0.16,10.10,34,0.000,8.45
5.0908,0.05760,0.03316,0.29496,0.00000,0.00000,0.00000,35,-2,60,11,66,-13,59,0,ok,2,0,0.001,5,-0.4727,-0.14,0.16,10.10,34,0.013,8.45
5.0958,0.05760,0.03316,0.29496,0.00000,0.00000,0.00000,34,-1,62,11,64,-13,60,-1,ok,2,0,0.001,5,-0.4764,-0.14,0.16,10.10,34,0.025,8.45
5.1082,0.05760,0.03316,0.29496,0.00000,0.00000,0.00000,33,0,62,11,62,-13,63,-3,ok,2,0,0.001,5,-0.4802,-0.14,0.16,10.10,34,0.038,8.45
5.1308,0.05760,0.03316,0.29496,0.00000,0.00000,0.00000,32,3,63,12,59,-14,63,-2,ok,2,0,0.001,5,-0.4839,-0.14,0.16,10.10,34,0.050,8.45
5.1341,0.05760,0.03316,0.29496,0.00000,0.00000,0.00000,32,7,63,13,58,-15,64,-2,ok,2,0,0.001,5,-0.4877,-0.14,0.16,10.10,34,0.063,8.45
5.1467,0.05760,0.03316,0.29496,0.00000,0.00000,0.00000,31,10,63,14,55,-14,64,-1,ok,2,0,0.001,5,-0.4914,-0.14,0.16,10.10,34,0.076,8.45
5.1668,0.05760,0.03316,0.29496,0.00000,0.00000,0.00000,30,13,63,14,52,-13,65,-1,ok,2,0,0.001,5,-0.4952,-0.14,0.16,10.10,34,0.089,8.45
5.1718,0.05760,0.03316,0.29496,0.00000,0.00000,0.00000,31,13,64,15,50,-13,66,0,ok,2,0,0.001,5,-0.4989,-0.14,0.16,10.10,34,0.101,8.45
5.1842,0.05760,0.03316,0.29496,0.00000,0.00000,0.00000,31,13,64,16,47,-12,67,0,ok,2,0,0.001,5,-0.5027,-0.14,0.16,10.10,34,0.114,8.45
5.2068,0.05760,0.03316,0.29496,0.00000,0.00000,0.00000,32,12,64,17,44,-11,68,0,ok,2,0,0.001,5,-0.5064,-0.14,0.16,10.10,34,0.126,8.45
5.2102,0.05760,0.03316,0.29496,0.00000,0.00000,0.00000,33,12,65,18,41,-10,69,1,ok,2,0,0.001,5,-0.5102,-0.14,0.16,10.10,34,0.139,8.45
5.2228,0.05760,0.03316,0.29496,0.00000,0.00000,0.00000,33,11,65,19,38,-9,69,2,ok,2,0,0.001,5,-0.5139,-0.14,0.16,10.10,34,0.152,8.45
5.2428,0.05760,0.03316,0.29496,0.00000,0.00000,0.00000,35,10,65,19,35,-8,70,2,ok,2,0,0.001,5,-0.5177,-0.14,0.16,10.10,34,0.165,8.45
5.2477,0.05760,0.03316,0.29496,0.00000,0.00000,0.00000,35,10,65,20,33,-6,71,3,ok,2,0,0.001,5,-0.5214,-0.14,0.16,10.10,34,0.177,8.45
5.2602,0.05760,0.03316,0.29496,0.00000,0.00000,0.00000,36,8,66,21,32,-5,71,4,ok,2,0,0.001,5,-0.5252,-0.14,0.16,10.10,34,0.190,8.45
5.2828,0.05760,0.03316,0.29496,0.00000,0.00000,0.00000,37,8,66,22,29,-2,72,5,ok,2,0,0.001,5,-0.5289,-0.14,0.16,10.10,34,0.202,8.45
5.2863,0.00000,-0.00873,0.29845,0.00000,0.00000,0.00000,37,7,65,23,28,0,72,6,ok,2,0,0.001,5,-0.5327,1.48,0.50,10.35,35,0.000,8.45
5.2989,0.00000,-0.00873,0.29845,0.00000,0.00000,0.00000,38,6,65,24,27,4,72,7,ok,2,0,0.001,5,-0.5364,1.48,0.50,10.35,35,0.013,8.45
5.3188,0.00000,-0.00873,0.29845,0.00000,0.00000,0.00000,39,6,65,25,26,6,72,8,ok,2,0,0.001,5,-0.5402,1.48,0.50,10.35,35,0.025,8.45
5.3237,0.00000,-0.00873,0.29845,0.00000,0.00000,0.00000,40,5,64,28,28,6,72,9,ok,2,0,0.002,5,-0.5439,1.48,0.50,10.35,35,0.038,8.45
5.3362,0.00000,-0.00873,0.29845,0.00000,0.00000,0.00000,40,4,64,29,29,5,73,11,ok,2,0,0.002,5,-0.5477,1.48,0.50,10.35,35,0.050,8.45
5.3588,0.00000,-0.00873,0.29845,0.00000,0.00000,0.00000,41,4,65,27,30,3,72,12,ok,2,0,0.002,5,-0.5514,1.48,0.50,10.35,35,0.063,8.45
5.3620,0.00000,-0.00873,0.29845,0.00000,0.00000,0.00000,41,3,68,24,31,2,73,14,ok,2,0,0.002,5,-0.5552,1.48,0.50,10.35,35,0.076,8.45
5.3748,0.00000,-0.00873,0.29845,0.00000,0.00000,0.00000,42,3,70,21,32,2,73,16,ok,2,0,0.002,5,-0.5589,1.48,0.50,10.35,35,0.089,8.45
5.3948,0.00000,-0.00873,0.29845,0.00000,0.00000,0.00000,43,2,71,17,33,2,72,17,ok,2,0,0.002,5,-0.5627,1.48,0.50,10.35,35,0.101,8.45
5.3998,0.00000,-0.00873,0.29845,0.00000,0.00000,0.00000,43,2,72,15,34,1,72,19,ok,2,0,0.002,5,-0.5664,1.48,0.50,10.35,35,0.114,8.45
5.4122,0.00000,-0.00873,0.29845,0.00000,0.00000,0.00000,44,1,72,14,37,1,73,20,ok,2,0,0.002,5,-0.5702,1.48,0.50,10.35,35,0.126,8.45
5.4348,0.00000,-0.00873,0.29845,0.00000,0.00000,0.00000,44,1,72,11,37,1,72,22,ok,2,0,0.002,5,-0.5739,1.48,0.50,10.35,35,0.139,8.45
5.4380,0.00000,-0.00873,0.29845,0.00000,0.00000,0.00000,45,1,71,8,39,1,72,23,ok,2,0,0.002,5,-0.5777,1.48,0.50,10.35,35,0.152,8.45
5.4509,0.00000,-0.00873,0.29845,0.00000,0.00000,0.00000,46,1,70,5,40,1,72,24,ok,2,0,0.002,5,-0.5814,1.48,0.50,10.35,35,0.165,8.45
5.4708,0.00000,-0.00873,0.29845,0.00000,0.00000,0.00000,47,0,70,3,41,1,72,26,ok,2,0,0.002,5,-0.5852,1.48,0.50,10.35,35,0.177,8.45
5.4760,-0.15359,-0.04712,0.31241,0.00000,0.00000,0.00000,47,0,69,1,42,0,72,27,ok,2,0,0.002,5,-0.5889,0.38,-1.69,10.49,36,0.000,8.45
5.4882,-0.15359,-0.04712,0.31241,0.00000,0.00000,0.00000,48,0,68,-1,44,0,72,29,ok,2,0,0.002,5,-0.5927,0.38,-1.69,10.49,36,0.013,8.45
5.5108,-0.15359,-0.04712,0.31241,0.00000,0.00000,0.00000,48,0,65,-2,45,-1,73,29,ok,2,0,0.002,5,-0.5964,0.38,-1.69,10.49,36,0.025,8.45
5.5142,-0.15359,-0.04712,0.31241,0.00000,0.00000,0.00000,49,0,64,-4,46,-1,74,29,ok,2,0,0.002,5,-0.6000,0.38,-1.69,10.49,36,0.038,8.45
5.5267,-0.15359,-0.04712,0.31241,0.00000,0.00000,0.00000,49,0,64,-6,48,-1,76,26,ok,2,0,0.002,5,-0.6000,0.38,-1.69,10.49,36,0.051,8.45
5.5468,-0.15359,-0.04712,0.31241,0.00000,0.00000,0.00000,50,1,62,-7,48,-1,77,21,ok,2,0,0.002,5,-0.6000,0.38,-1.69,10.49,36,0.064,8.45
5.5517,-0.15359,-0.04712,0.31241,0.00000,0.00000,0.00000,50,1,59,-8,49,-1,79,17,ok,2,0,0.002,5,-0.6000,0.38,-1.69,10.49,36,0.076,8.45
5.5642,-0.15359,-0.04712,0.31241,0.00000,0.00000,0.00000,50,1,57,-8,50,-1,80,14,ok,2,0,0.002,5,-0.6000,0.38,-1.69,10.49,36,0.089,8.45
5.5868,-0.15359,-0.04712,0.31241,0.00000,0.00000,0.00000,50,3,55,-9,52,-1,80,13,ok,2,0,0.002,5,-0.6000,0.38,-1.69,10.49,36,0.101,8.45
5.5902,-0.15359,-0.04712,0.31241,0.00000,0.00000,0.00000,50,4,52,-9,53,-1,80,10,ok,2,0,0.002,6,-0.6000,0.38,-1.69,10.49,36,0.114,8.45
5.6027,-0.15359,-0.04712,0.31241,0.00000,0.00000,0.00000,51,4,49,-9,54,0,80,7,ok,2,0,0.002,6,-0.6000,0.38,-1.69,10.49,36,0.127,8.45
5.6228,-0.15359,-0.04712,0.31241,0.00000,0.00000,0.00000,51,5,46,-9,55,0,79,4,ok,2,0,0.002,6,-0.6000,0.38,-1.69,10.49,36,0.140,8.45
5.6278,-0.15359,-0.04712,0.31241,0.00000,0.00000,0.00000,51,6,44,-9,56,0,79,2,ok,2,0,0.002,6,-0.6000,0.38,-1.69,10.49,36,0.152,8.45
5.6402,-0.15359,-0.04712,0.31241,0.00000,0.00000,0.00000,52,6,41,-9,57,0,77,-2,ok,2,0,0.002,6,-0.6000,0.38,-1.69,10.49,36,0.165,8.45
5.6628,-0.15359,-0.04712,0.31241,0.00000,0.00000,0.00000,52,6,39,-8,58,0,77,-3,ok,2,0,0.002,6,-0.6000,0.38,-1.69,10.49,36,0.177,8.45
5.6660,-0.15359,-0.04712,0.31241,0.00000,0.00000,0.00000,53,7,36,-7,58,0,76,-5,ok,2,0,0.002,6,-0.6000,0.38,-1.69,10.49,36,0.190,8.45
5.6790,-0.06632,0.02269,0.30369,0.00000,0.00000,0.00000,53,8,33,-6,59,1,74,-7,ok,2,0,0.002,6,-0.6000,0.50,-0.12,10.60,37,0.000,8.45
5.6988,-0.06632,0.02269,0.30369,0.00000,0.00000,0.00000,53,8,29,-5,60,1,71,-7,ok,2,0,0.002,6,-0.6000,0.50,-0.12,10.60,37,0.013,8.45
5.7039,-0.06632,0.02269,0.30369,0.00000,0.00000,0.00000,54,9,26,-3,61,1,70,-9,ok,2,0,0.002,6,-0.6000,0.50,-0.12,10.60,37,0.025,8.45
5.7162,-0.06632,0.02269,0.30369,0.00000,0.00000,0.00000,54,10,22,-2,62,0,69,-11,ok,2,0,0.002,6,-0.6000,0.50,-0.12,10.60,37,0.038,8.45
5.7388,-0.06632,0.02269,0.30369,0.00000,0.00000,0.00000,54,10,20,0,64,-2,67,-12,ok,2,0,0.002,6,-0.6000,0.50,-0.12,10.60,37,0.050,8.45
5.7420,-0.06632,0.02269,0.30369,0.00000,0.00000,0.00000,55,11,18,1,65,-1,64,-13,ok,2,0,0.002,6,-0.6000,0.50,-0.12,10.60,37,0.063,8.45
5.7549,-0.06632,0.02269,0.30369,0.00000,0.00000,0.00000,55,12,16,3,65,0,63,-14,ok,2,0,0.002,6,-0.6000,0.50,-0.12,10.60,37,0.076,8.45
5.7748,-0.06632,0.02269,0.30369,0.00000,0.00000,0.00000,55,12,14,6,66,0,60,-14,ok,2,0,0.002,6,-0.6000,0.50,-0.12,10.60,37,0.089,8.45
5.7797,-0.06632,0.02269,0.30369,0.00000,0.00000,0.00000,55,14,13,10,66,0,58,-15,ok,2,0,0.002,6,-0.6000,0.50,-0.12,10.60,37,0.101,8.45
5.7922,-0.06632,0.02269,0.30369,0.00000,0.00000,0.00000,56,14,11,12,67,0,55,-13,ok,2,0,0.002,6,-0.6000,0.50,-0.12,10.60,37,0.114,8.45
5.8148,-0.06632,0.02269,0.30369,0.00000,0.00000,0.00000,56,15,12,12,67,0,53,-12,ok,2,0,0.002,6,-0.6000,0.50,-0.12,10.60,37,0.126,8.45
5.8181,-0.06632,0.02269,0.30369,0.00000,0.00000,0.00000,56,16,12,12,68,1,50,-12,ok,2,0,0.002,6,-0.6000,0.50,-0.12,10.60,37,0.139,8.45
5.8307,-0.06632,0.02269,0.30369,0.00000,0.00000,0.00000,56,17,14,11,69,1,47,-11,ok,2,0,0.002,6,-0.6000,0.50,-0.12,10.60,37,0.152,8.45
5.8508,-0.06632,0.02269,0.30369,0.00000,0.00000,0.00000,56,17,15,10,69,2,45,-11,ok,2,0,0.002,6,-0.6000,0.50,-0.12,10.60,37,0.165,8.45
5.8557,-0.06632,0.02269,0.30369,0.00000,0.00000,0.00000,56,18,16,10,69,3,41,-9,ok,2,0,0.002,6,-0.6000,0.50,-0.12,10.60,37,0.177,8.45
5.8682,-0.06632,0.02269,0.30369,0.00000,0.00000,0.00000,56,18,17,9,70,3,39,-9,ok,2,0,0.002,6,-0.6000,0.50,-0.12,10.60,37,0.190,8.45
5.8908,-0.03840,-0.00349,0.30369,0.00000,0.00000,0.00000,56,20,18,8,70,5,35,-7,ok,2,0,0.002,6,-0.6000,0.48,-1.30,10.83,38,0.000,8.45
5.8940,-0.03840,-0.00349,0.30369,0.00000,0.00000,0.00000,57,21,20,7,71,5,34,-6,ok,2,0,0.002,6,-0.6000,0.48,-1.30,10.83,38,0.013,8.45
5.9067,-0.03840,-0.00349,0.30369,0.00000,0.00000,0.00000,57,22,21,7,71,6,32,-4,ok,2,0,0.002,6,-0.6000,0.48,-1.30,10.83,38,0.026,8.45
5.9268,-0.03840,-0.00349,0.30369,0.00000,0.00000,0.00000,56,23,22,6,71,7,30,-1,ok,2,0,0.002,6,-0.6000,0.48,-1.30,10.83,38,0.038,8.45
5.9318,-0.03840,-0.00349,0.30369,0.00000,0.00000,0.00000,56,24,24,6,71,8,29,1,ok,2,0,0.002,6,-0.6000,0.48,-1.30,10.83,38,0.051,8.45
5.9441,-0.03840,-0.00349,0.30369,0.00000,0.00000,0.00000,56,25,25,5,72,9,27,5,ok,2,0,0.002,6,-0.6000,0.48,-1.30,10.83,38,0.063,8.45
5.9668,-0.03840,-0.00349,0.30369,0.00000,0.00000,0.00000,56,28,26,5,72,10,27,7,ok,2,0,0.002,6,-0.6000,0.48,-1.30,10.83,38,0.076,8.45
5.9700,-0.03840,-0.00349,0.30369,0.00000,0.00000,0.00000,56,29,27,4,71,12,29,6,ok,2,0,0.002,6,-0.6000,0.48,-1.30,10.83,38,0.089,8.45
5.9827,-0.03840,-0.00349,0.30369,0.00000,0.00000,0.00000,56,28,28,3,71,13,29,5,ok,2,0,0.002,6,-0.6000,0.48,-1.30,10.83,38,0.102,8.45
6.0028,-0.03840,-0.00349,0.30369,0.00000,0.00000,0.00000,57,25,30,3,72,14,30,3,ok,2,0,0.002,6,-0.6000,0.48,-1.30,10.83,38,0.114,8.45
6.0079,-0.03840,-0.00349,0.30369,0.00000,0.00000,0.00000,58,21,31,2,71,15,31,3,ok,2,0,0.002,6,-0.6000,0.48,-1.30,10.83,38,0.127,8.45
6.0202,-0.03840,-0.00349,0.30369,0.00000,0.00000,0.00000,58,17,33,2,71,17,33,3,ok,2,0,0.002,6,-0.6000,0.48,-1.30,10.83,38,0.139,8.45
6.0428,-0.03840,-0.00349,0.30369,0.00000,0.00000,0.00000,58,15,34,2,72,18,34,2,ok,2,0,0.002,6,-0.6000,0.48,-1.30,10.83,38,0.152,8.45
6.0460,-0.03840,-0.00349,0.30369,0.00000,0.00000,0.00000,58,14,35,1,71,20,36,1,ok,2,0,0.002,6,-0.6000,0.48,-1.30,10.83,38,0.165,8.45
6.0587,-0.03840,-0.00349,0.30369,0.00000,0.00000,0.00000,58,11,37,1,71,22,38,1,ok,2,0,0.002,6,-0.6000,0.48,-1.30,10.83,38,0.178,8.45
6.0788,-0.03840,-0.00349,0.30369,0.00000,0.00000,0.00000,58,7,38,2,71,23,38,2,ok,2,0,0.002,6,-0.6000,0.48,-1.30,10.83,38,0.190,8.45
6.0840,-0.17453,0.02618,0.32987,0.00000,0.00000,0.00000,58,5,39,2,72,25,40,1,ok,2,0,0.002,6,-0.6000,-0.36,-1.60,10.83,39,0.000,8.45
6.0962,-0.17453,0.02618,0.32987,0.00000,0.00000,0.00000,58,1,41,2,71,27,41,2,ok,2,0,0.002,6,-0.6000,-0.36,-1.60,10.83,39,0.013,8.45
6.1188,-0.17453,0.02618,0.32987,0.00000,0.00000,0.00000,57,-1,42,1,71,28,42,2,ok,2,0,0.002,6,-0.6000,-0.36,-1.60,10.83,39,0.025,8.45
6.1220,-0.17453,0.02618,0.32987,0.00000,0.00000,0.00000,56,-3,43,2,71,28,43,1,ok,2,0,0.002,6,-0.6000,-0.36,-1.60,10.83,39,0.038,8.45
6.1349,-0.17453,0.02618,0.32987,0.00000,0.00000,0.00000,56,-4,44,2,73,28,44,1,ok,2,0,0.002,6,-0.6000,-0.36,-1.60,10.83,39,0.051,8.45
6.1548,-0.17453,0.02618,0.32987,0.00000,0.00000,0.00000,55,-6,45,2,74,25,46,0,ok,2,0,0.002,6,-0.6000,-0.36,-1.60,10.83,39,0.064,8.45
6.1598,-0.17453,0.02618,0.32987,0.00000,0.00000,0.00000,55,-8,47,2,76,21,47,0,ok,2,0,0.002,6,-0.6000,-0.36,-1.60,10.83,39,0.076,8.45
6.1722,-0.17453,0.02618,0.32987,0.00000,0.00000,0.00000,54,-9,48,3,77,16,48,0,ok,2,0,0.002,6,-0.6000,-0.36,-1.60,10.83,39,0.089,8.45
6.1948,-0.17453,0.02618,0.32987,0.00000,0.00000,0.00000,53,-11,50,3,79,14,49,0,ok,2,0,0.002,6,-0.6000,-0.36,-1.60,10.83,39,0.101,8.45
6.1981,-0.17453,0.02618,0.32987,0.00000,0.00000,0.00000,52,-11,50,3,79,13,49,0,ok,2,0,0.002,6,-0.6000,-0.36,-1.60,10.83,39,0.114,8.45
6.2107,-0.17453,0.02618,0.32987,0.00000,0.00000,0.00000,51,-12,51,5,79,11,50,0,ok,2,0,0.002,6,-0.6000,-0.36,-1.60,10.83,39,0.127,8.45
6.2308,-0.17453,0.02618,0.32987,0.00000,0.00000,0.00000,50,-12,52,6,79,7,51,0,ok,2,0,0.002,6,-0.6000,-0.36,-1.60,10.83,39,0.140,8.45
6.2357,-0.17453,0.02618,0.32987,0.00000,0.00000,0.00000,49,-12,53,5,79,4,52,0,ok,2,0,0.002,6,-0.6000,-0.36,-1.60,10.83,39,0.152,8.45
6.2483,-0.17453,0.02618,0.32987,0.00000,0.00000,0.00000,48,-11,54,6,78,2,53,0,ok,2,0,0.002,6,-0.6000,-0.36,-1.60,10.83,39,0.165,8.45
6.2708,-0.17453,0.02618,0.32987,0.00000,0.00000,0.00000,47,-11,54,7,77,-1,54,1,ok,2,0,0.002,6,-0.6000,-0.36,-1.60,10.83,39,0.177,8.45
6.2742,-0.17453,0.02618,0.32987,0.00000,0.00000,0.00000,46,-12,56,7,77,-4,54,0,ok,2,0,0.002,6,-0.6000,-0.36,-1.60,10.83,39,0.190,8.45
6.2872,0.00175,-0.06283,0.33336,0.00000,0.00000,0.00000,45,-11,56,7,75,-5,55,1,ok,2,0,0.002,6,-0.6000,0.78,0.28,10.13,40,0.000,8.45
6.3068,0.00175,-0.06283,0.33336,0.00000,0.00000,0.00000,44,-9,58,7,74,-8,56,-1,ok,2,0,0.002,6,-0.6000,0.78,0.28,10.13,40,0.012,8.45
6.3118,0.00175,-0.06283,0.33336,0.00000,0.00000,0.00000,43,-8,58,8,71,-7,57,-1,ok,2,0,0.002,6,-0.6000,0.78,0.28,10.13,40,0.025,8.45
6.3243,0.00175,-0.06283,0.33336,0.00000,0.00000,0.00000,41,-6,59,8,70,-10,57,-1,ok,2,0,0.002,6,-0.6000,0.78,0.28,10.13,40,0.038,8.45
6.3468,0.00175,-0.06283,0.33336,0.00000,0.00000,0.00000,40,-4,60,9,68,-11,58,0,ok,2,0,0.002,6,-0.6000,0.78,0.28,10.13,40,0.050,8.45
6.3501,0.00175,-0.06283,0.33336,0.00000,0.00000,0.00000,39,-2,61,11,66,-13,59,0,ok,2,0,0.002,6,-0.6000,0.78,0.28,10.13,40,0.063,8.45
6.3628,0.00175,-0.06283,0.33336,0.00000,0.00000,0.00000,38,-1,62,11,64,-13,60,0,ok,2,0,0.002,6,-0.6000,0.78,0.28,10.13,40,0.076,8.45
6.3828,0.00175,-0.06283,0.33336,0.00000,0.00000,0.00000,37,0,62,11,62,-14,62,-3,ok,2,0,0.002,6,-0.6000,0.78,0.28,10.13,40,0.088,8.45
6.3877,0.00175,-0.06283,0.33336,0.00000,0.00000,0.00000,36,3,63,12,60,-15,63,-2,ok,2,0,0.002,6,-0.6000,0.78,0.28,10.13,40,0.101,8.45
6.4002,0.00175,-0.06283,0.33336,0.00000,0.00000,0.00000,36,7,63,13,58,-15,64,-2,ok,2,0,0.002,6,-0.6000,0.78,0.28,10.13,40,0.113,8.45
6.4228,0.00175,-0.06283,0.33336,0.00000,0.00000,0.00000,35,10,63,14,55,-15,64,-1,ok,2,0,0.002,6,-0.6000,0.78,0.28,10.13,40,0.126,8.45
6.4261,0.00175,-0.06283,0.33336,0.00000,0.00000,0.00000,34,13,64,15,52,-14,65,-1,ok,2,0,0.002,6,-0.6000,0.78,0.28,10.13,40,0.139,8.45
6.4387,0.00175,-0.06283,0.33336,0.00000,0.00000,0.00000,35,13,64,16,50,-13,66,0,ok,2,0,0.002,6,-0.6000,0.78,0.28,10.13,40,0.152,8.45
6.4588,0.00175,-0.06283,0.33336,0.00000,0.00000,0.00000,35,13,64,17,46,-12,67,-1,ok,2,0,0.002,6,-0.6000,0.78,0.28,10.13,40,0.164,8.45
6.4639,0.00175,-0.06283,0.33336,0.00000,0.00000,0.00000,36,12,65,17,44,-12,68,0,ok,2,0,0.002,6,-0.6000,0.78,0.28,10.13,40,0.177,8.45
6.4764,0.00175,-0.06283,0.33336,0.00000,0.00000,0.00000,36,12,65,18,41,-11,68,0,ok,2,0,0.002,6,-0.6000,0.78,0.28,10.13,40,0.189,8.45
6.4988,0.03491,-0.03491,0.35081,0.00000,0.00000,0.00000,36,11,66,19,38,-10,69,1,ok,2,0,0.002,6,-0.6000,-0.38,-0.20,8.04,41,0.000,8.45
6.5020,0.03491,-0.03491,0.35081,0.00000,0.00000,0.00000,37,10,66,19,35,-8,69,2,ok,2,0,0.002,6,-0.6000,-0.38,-0.20,8.04,41,0.013,8.45
6.5147,0.03491,-0.03491,0.35081,0.00000,0.00000,0.00000,37,10,66,21,33,-7,70,3,ok,2,0,0.002,6,-0.6000,-0.38,-0.20,8.04,41,0.026,8.45
6.5348,0.03491,-0.03491,0.35081,0.00000,0.00000,0.00000,38,8,66,21,31,-5,70,4,ok,2,0,0.002,6,-0.6000,-0.38,-0.20,8.04,41,0.038,8.45
6.5397,0.03491,-0.03491,0.35081,0.00000,0.00000,0.00000,39,8,66,22,29,-2,71,4,ok,2,0,0.002,6,-0.6000,-0.38,-0.20,8.04,41,0.051,8.45
6.5524,0.03491,-0.03491,0.35081,0.00000,0.00000,0.00000,39,7,66,23,28,0,71,6,ok,2,0,0.002,6,-0.6000,-0.38,-0.20,8.04,41,0.063,8.45
6.5749,0.03491,-0.03491,0.35081,0.00000,0.00000,0.00000,40,6,66,24,27,3,71,7,ok,2,0,0.002,6,-0.6000,-0.38,-0.20,8.04,41,0.076,8.45
6.5782,0.03491,-0.03491,0.35081,0.00000,0.00000,0.00000,40,6,65,25,26,6,72,8,ok,2,0,0.002,6,-0.6000,-0.38,-0.20,8.04,41,0.089,8.45
6.5909,0.03491,-0.03491,0.35081,0.00000,0.00000,0.00000,41,6,64,28,28,5,72,9,ok,2,0,0.002,6,-0.6000,-0.38,-0.20,8.04,41,0.102,8.45
6.6108,0.03491,-0.03491,0.35081,0.00000,0.00000,0.00000,41,5,64,29,28,5,72,11,ok,2,0,0.002,7,-0.6000,-0.38,-0.20,8.04,41,0.115,8.45
6.6160,0.03491,-0.03491,0.35081,0.00000,0.00000,0.00000,42,4,65,27,30,3,72,12,ok,2,0,0.002,7,-0.6000,-0.38,-0.20,8.04,41,0.127,8.45
6.6282,0.03491,-0.03491,0.35081,0.00000,0.00000,0.00000,42,3,68,24,30,2,73,14,ok,2,0,0.002,7,-0.6000,-0.38,-0.20,8.04,41,0.140,8.45
6.6508,0.03491,-0.03491,0.35081,0.00000,0.00000,0.00000,43,3,70,21,32,2,73,15,ok,2,0,0.002,7,-0.6000,-0.38,-0.20,8.04,41,0.152,8.45
6.6540,0.03491,-0.03491,0.35081,0.00000,0.00000,0.00000,43,2,71,17,33,2,72,17,ok,2,0,0.002,7,-0.6000,-0.38,-0.20,8.04,41,0.165,8.45
6.6668,0.03491,-0.03491,0.35081,0.00000,0.00000,0.00000,44,2,72,15,34,1,72,19,ok,2,0,0.002,7,-0.6000,-0.38,-0.20,8.04,41,0.178,8.45
6.6868,0.03491,-0.03491,0.35081,0.00000,0.00000,0.00000,44,1,71,14,37,1,73,20,ok,2,0,0.002,7,-0.6000,-0.38,-0.20,8.04,41,0.190,8.45
6.6920,-0.10297,-0.06458,0.28100,0.00000,0.00000,0.00000,45,1,71,11,37,1,72,22,ok,2,0,0.002,7,-0.5962,-1.03,-2.21,10.03,42,0.000,8.45
6.7044,-0.10297,-0.06458,0.28100,0.00000,0.00000,0.00000,46,1,71,8,39,1,72,23,ok,2,0,0.002,7,-0.5925,-1.03,-2.21,10.03,42,0.013,8.45
6.7268,-0.10297,-0.06458,0.28100,0.00000,0.00000,0.00000,46,1,70,6,40,0,72,25,ok,2,0,0.002,7,-0.5887,-1.03,-2.21,10.03,42,0.025,8.45
6.7300,-0.10297,-0.06458,0.28100,0.00000,0.00000,0.00000,47,0,70,3,41,0,72,26,ok,2,0,0.002,7,-0.5850,-1.03,-2.21,10.03,42,0.038,8.45
6.7428,-0.10297,-0.06458,0.28100,0.00000,0.00000,0.00000,47,0,69,1,42,0,72,28,ok,2,0,0.002,7,-0.5812,-1.03,-2.21,10.03,42,0.051,8.45
6.7628,-0.10297,-0.06458,0.28100,0.00000,0.00000,0.00000,48,0,68,-1,43,0,72,29,ok,2,0,0.002,7,-0.5775,-1.03,-2.21,10.03,42,0.064,8.45
6.7678,-0.10297,-0.06458,0.28100,0.00000,0.00000,0.00000,48,0,66,-2,45,-1,73,29,ok,2,0,0.002,7,-0.5737,-1.03,-2.21,10.03,42,0.076,8.45
6.7802,-0.10297,-0.06458,0.28100,0.00000,0.00000,0.00000,48,0,65,-4,46,-1,74,28,ok,2,0,0.002,7,-0.5700,-1.03,-2.21,10.03,42,0.089,8.45
6.8028,-0.10297,-0.06458,0.28100,0.00000,0.00000,0.00000,49,0,64,-6,47,-1,76,26,ok,2,0,0.002,7,-0.5662,-1.03,-2.21,10.03,42,0.101,8.45
6.8060,-0.10297,-0.06458,0.28100,0.00000,0.00000,0.00000,50,1,62,-7,48,-1,77,20,ok,2,0,0.002,7,-0.5625,-1.03,-2.21,10.03,42,0.114,8.45
6.8187,-0.10297,-0.06458,0.28100,0.00000,0.00000,0.00000,50,1,59,-8,49,-1,78,17,ok,2,0,0.002,7,-0.5587,-1.03,-2.21,10.03,42,0.127,8.45
6.8388,-0.10297,-0.06458,0.28100,0.00000,0.00000,0.00000,50,1,57,-8,51,-1,80,13,ok,2,0,0.002,7,-0.5550,-1.03,-2.21,10.03,42,0.140,8.45
6.8437,-0.10297,-0.06458,0.28100,0.00000,0.00000,0.00000,50,4,54,-9,52,-1,80,13,ok,2,0,0.002,7,-0.5512,-1.03,-2.21,10.03,42,0.152,8.45
6.8564,-0.10297,-0.06458,0.28100,0.00000,0.00000,0.00000,50,5,52,-9,53,-1,80,10,ok,2,0,0.002,7,-0.5475,-1.03,-2.21,10.03,42,0.165,8.45
6.8788,-0.10297,-0.06458,0.28100,0.00000,0.00000,0.00000,51,4,49,-9,54,-1,80,7,ok,2,0,0.002,7,-0.5437,-1.03,-2.21,10.03,42,0.177,8.45
6.8822,-0.10297,-0.06458,0.28100,0.00000,0.00000,0.00000,51,5,46,-9,55,0,79,3,ok,2,0,0.002,7,-0.5400,-1.03,-2.21,10.03,42,0.190,8.45
6.8950,-0.12043,-0.05061,0.29322,0.00000,0.00000,0.00000,51,6,44,-9,56,0,79,2,ok,2,0,0.002,7,-0.5362,-0.75,-0.14,10.92,43,0.000,8.45
6.9148,-0.12043,-0.05061,0.29322,0.00000,0.00000,0.00000,52,6,41,-9,57,0,78,-2,ok,2,0,0.002,7,-0.5325,-0.75,-0.14,10.92,43,0.012,8.45
6.9197,-0.12043,-0.05061,0.29322,0.00000,0.00000,0.00000,53,6,39,-8,58,-1,77,-3,ok,2,0,0.002,7,-0.5287,-0.75,-0.14,10.92,43,0.025,8.45
6.9322,-0.12043,-0.05061,0.29322,0.00000,0.00000,0.00000,53,7,36,-7,58,0,76,-5,ok,2,0,0.002,7,-0.5250,-0.75,-0.14,10.92,43,0.038,8.45
6.9548,-0.12043,-0.05061,0.29322,0.00000,0.00000,0.00000,53,8,33,-6,59,1,74,-7,ok,2,0,0.002,7,-0.5212,-0.75,-0.14,10.92,43,0.050,8.45
6.9581,-0.12043,-0.05061,0.29322,0.00000,0.00000,0.00000,54,8,29,-5,60,1,71,-7,ok,2,0,0.002,7,-0.5175,-0.75,-0.14,10.92,43,0.063,8.45
6.9707,-0.12043,-0.05061,0.29322,0.00000,0.00000,0.00000,54,9,26,-3,61,1,70,-9,ok,2,0,0.002,7,-0.5160,-0.75,-0.14,10.92,43,0.076,8.45
6.9908,-0.12043,-0.05061,0.29322,0.00000,0.00000,0.00000,55,10,22,-1,62,0,69,-11,ok,2,0,0.002,7,-0.5160,-0.75,-0.14,10.92,43,0.089,8.45
6.9957,-0.12043,-0.05061,0.29322,0.00000,0.00000,0.00000,55,10,20,0,64,-2,67,-12,ok,2,0,0.002,7,-0.5160,-0.75,-0.14,10.92,43,0.101,8.45
7.0084,-0.12043,-0.05061,0.29322,0.00000,0.00000,0.00000,56,11,19,1,65,-1,64,-13,ok,2,0,0.002,7,-0.5160,-0.75,-0.14,10.92,43,0.113,8.45
7.0308,-0.12043,-0.05061,0.29322,0.00000,0.00000,0.00000,56,12,17,3,65,-1,63,-14,ok,2,0,0.002,7,-0.5160,-0.75,-0.14,10.92,43,0.126,8.45
7.0341,-0.12043,-0.05061,0.29322,0.00000,0.00000,0.00000,56,12,15,7,66,-1,60,-14,ok,2,0,0.002,7,-0.5160,-0.75,-0.14,10.92,43,0.139,8.45
7.0467,-0.12043,-0.05061,0.29322,0.00000,0.00000,0.00000,56,13,13,10,66,0,58,-15,ok,2,0,0.002,7,-0.5160,-0.75,-0.14,10.92,43,0.152,8.45
7.0668,-0.12043,-0.05061,0.29322,0.00000,0.00000,0.00000,57,14,11,12,67,0,55,-13,ok,2,0,0.002,7,-0.5160,-0.75,-0.14,10.92,43,0.164,8.45
7.0719,-0.12043,-0.05061,0.29322,0.00000,0.00000,0.00000,57,15,13,13,67,0,52,-13,ok,2,0,0.002,7,-0.5160,-0.75,-0.14,10.92,43,0.177,8.45
7.0843,-0.12043,-0.05061,0.29322,0.00000,0.00000,0.00000,57,16,13,13,68,0,50,-12,ok,2,0,0.002,7,-0.5160,-0.75,-0.14,10.92,43,0.189,8.45
7.1068,-0.02269,-0.01047,0.23387,0.00000,0.00000,0.00000,57,16,14,11,69,0,47,-11,ok,2,0,0.002,7,-0.5010,-0.80,0.28,10.03,44,0.000,8.45
7.1100,-0.02269,-0.01047,0.23387,0.00000,0.00000,0.00000,58,17,15,11,69,2,45,-11,ok,2,0,0.002,7,-0.4860,-0.80,0.28,10.03,44,0.013,8.45
7.1227,-0.02269,-0.01047,0.23387,0.00000,0.00000,0.00000,58,18,16,10,69,2,41,-10,ok,2,0,0.002,7,-0.4710,-0.80,0.28,10.03,44,0.026,8.45
7.1428,-0.02269,-0.01047,0.23387,0.00000,0.00000,0.00000,59,18,18,9,70,3,39,-9,ok,2,0,0.002,7,-0.4560,-0.80,0.28,10.03,44,0.039,8.45
7.1477,-0.02269,-0.01047,0.23387,0.00000,0.00000,0.00000,59,20,18,8,70,4,35,-7,ok,2,0,0.002,7,-0.4410,-0.80,0.28,10.03,44,0.051,8.45
7.1602,-0.02269,-0.01047,0.23387,0.00000,0.00000,0.00000,60,21,20,7,71,5,34,-6,ok,2,0,0.002,7,-0.4260,-0.80,0.28,10.03,44,0.064,8.45
7.1828,-0.02269,-0.01047,0.23387,0.00000,0.00000,0.00000,60,22,21,6,71,6,31,-4,ok,2,0,0.002,7,-0.4110,-0.80,0.28,10.03,44,0.076,8.45
7.1862,-0.02269,-0.01047,0.23387,0.00000,0.00000,0.00000,60,23,22,6,71,7,29,-1,ok,2,0,0.002,7,-0.3960,-0.80,0.28,10.03,44,0.089,8.45
7.1987,-0.02269,-0.01047,0.23387,0.00000,0.00000,0.00000,60,24,23,6,71,7,28,1,ok,2,0,0.002,7,-0.3810,-0.80,0.28,10.03,44,0.102,8.45
7.2188,-0.02269,-0.01047,0.23387,0.00000,0.00000,0.00000,60,25,25,5,71,8,27,5,ok,2,0,0.002,7,-0.3660,-0.80,0.28,10.03,44,0.115,8.45
7.2237,-0.02269,-0.01047,0.23387,0.00000,0.00000,0.00000,60,28,26,5,71,9,26,7,ok,2,0,0.002,7,-0.3510,-0.80,0.28,10.03,44,0.127,8.45
7.2363,-0.02269,-0.01047,0.23387,0.00000,0.00000,0.00000,59,29,27,3,71,11,29,6,ok,2,0,0.002,7,-0.3360,-0.80,0.28,10.03,44,0.140,8.45
7.2588,-0.02269,-0.01047,0.23387,0.00000,0.00000,0.00000,61,28,28,3,71,12,29,5,ok,2,0,0.002,7,-0.3210,-0.80,0.28,10.03,44,0.152,8.45
7.2620,-0.02269,-0.01047,0.23387,0.00000,0.00000,0.00000,62,25,30,3,72,14,30,3,ok,2,0,0.002,7,-0.3060,-0.80,0.28,10.03,44,0.165,8.45
7.2747,-0.02269,-0.01047,0.23387,0.00000,0.00000,0.00000,64,21,31,2,71,15,31,3,ok,2,0,0.002,7,-0.2910,-0.80,0.28,10.03,44,0.178,8.45
7.2948,-0.02269,-0.01047,0.23387,0.00000,0.00000,0.00000,65,17,33,2,71,17,33,3,ok,2,0,0.002,7,-0.2760,-0.80,0.28,10.03,44,0.191,8.45
7.3001,-0.01571,-0.04712,0.27751,0.00000,0.00000,0.00000,65,15,34,2,72,18,34,2,ok,2,0,0.002,7,-0.2722,-0.12,-0.11,11.72,45,0.000,8.45
7.3122,-0.01571,-0.04712,0.27751,0.00000,0.00000,0.00000,65,14,35,1,71,20,36,1,ok,2,0,0.002,7,-0.2685,-0.12,-0.11,11.72,45,0.013,8.45
7.3348,-0.01571,-0.04712,0.27751,0.00000,0.00000,0.00000,65,11,37,1,71,21,38,1,ok,2,0,0.002,7,-0.2647,-0.12,-0.11,11.72,45,0.025,8.45
7.3380,-0.01571,-0.04712,0.27751,0.00000,0.00000,0.00000,65,7,38,2,71,23,39,1,ok,2,0,0.002,7,-0.2610,-0.12,-0.11,11.72,45,0.038,8.45
7.3509,-0.01571,-0.04712,0.27751,0.00000,0.00000,0.00000,65,5,39,2,71,25,40,1,ok,2,0,0.002,7,-0.2572,-0.12,-0.11,11.72,45,0.051,8.45
7.3708,-0.01571,-0.04712,0.27751,0.00000,0.00000,0.00000,64,1,41,2,71,27,42,1,ok,2,0,0.002,7,-0.2535,-0.12,-0.11,11.72,45,0.064,8.45
7.3757,-0.01571,-0.04712,0.27751,0.00000,0.00000,0.00000,64,-1,42,1,71,28,42,1,ok,2,0,0.002,7,-0.2497,-0.12,-0.11,11.72,45,0.076,8.45
7.3882,-0.01571,-0.04712,0.27751,0.00000,0.00000,0.00000,62,-3,44,2,71,28,43,1,ok,2,0,0.002,7,-0.2460,-0.12,-0.11,11.72,45,0.089,8.45
7.4108,-0.01571,-0.04712,0.27751,0.00000,0.00000,0.00000,61,-4,44,2,72,28,45,0,ok,2,0,0.002,7,-0.2422,-0.12,-0.11,11.72,45,0.101,8.45
7.4141,-0.01571,-0.04712,0.27751,0.00000,0.00000,0.00000,60,-6,46,2,74,25,46,0,ok,2,0,0.002,7,-0.2385,-0.12,-0.11,11.72,45,0.114,8.45
7.4267,-0.01571,-0.04712,0.27751,0.00000,0.00000,0.00000,59,-8,47,2,76,21,47,0,ok,2,0,0.002,7,-0.2347,-0.12,-0.11,11.72,45,0.127,8.45
7.4468,-0.01571,-0.04712,0.27751,0.00000,0.00000,0.00000,58,-9,48,3,77,16,48,0,ok,2,0,0.002,7,-0.2310,-0.12,-0.11,11.72,45,0.140,8.45
7.4517,-0.01571,-0.04712,0.27751,0.00000,0.00000,0.00000,56,-10,50,3,79,13,49,0,ok,2,0,0.002,7,-0.2272,-0.12,-0.11,11.72,45,0.152,8.45
7.4642,-0.01571,-0.04712,0.27751,0.00000,0.00000,0.00000,54,-11,50,3,79,13,49,0,ok,2,0,0.002,7,-0.2235,-0.12,-0.11,11.72,45,0.165,8.45
7.4868,-0.01571,-0.04712,0.27751,0.00000,0.00000,0.00000,52,-12,50,5,79,10,51,0,ok,2,0,0.002,7,-0.2197,-0.12,-0.11,11.72,45,0.177,8.45
7.4903,-0.04363,0.04014,0.32463,0.00000,0.00000,0.00000,50,-12,52,6,79,7,51,0,ok,2,0,0.002,7,-0.2235,-0.20,-0.02,9.61,46,0.000,8.45
7.5028,-0.04363,0.04014,0.32463,0.00000,0.00000,0.00000,48,-11,53,5,78,4,52,0,ok,2,0,0.002,7,-0.2272,-0.20,-0.02,9.61,46,0.013,8.45
7.5228,-0.04363,0.04014,0.32463,0.00000,0.00000,0.00000,47,-11,53,6,77,2,53,0,ok,2,0,0.002,7,-0.2310,-0.20,-0.02,9.61,46,0.025,8.45
7.5279,-0.04363,0.04014,0.32463,0.00000,0.00000,0.00000,45,-11,54,7,77,-2,54,1,ok,2,0,0.002,7,-0.2347,-0.20,-0.02,9.61,46,0.038,8.45
7.5402,-0.04363,0.04014,0.32463,0.00000,0.00000,0.00000,43,-11,56,7,76,-4,54,0,ok,2,0,0.002,7,-0.2385,-0.20,-0.02,9.61,46,0.050,8.45
7.5628,-0.04363,0.04014,0.32463,0.00000,0.00000,0.00000,41,-10,56,7,75,-5,56,1,ok,2,0,0.002,7,-0.2422,-0.20,-0.02,9.61,46,0.063,8.45
7.5661,-0.04363,0.04014,0.32463,0.00000,0.00000,0.00000,39,-9,57,7,74,-8,56,-1,ok,2,0,0.002,7,-0.2460,-0.20,-0.02,9.61,46,0.076,8.45
7.5789,-0.04363,0.04014,0.32463,0.00000,0.00000,0.00000,37,-8,57,8,71,-8,57,0,ok,2,0,0.002,7,-0.2497,-0.20,-0.02,9.61,46,0.089,8.45
7.5988,-0.04363,0.04014,0.32463,0.00000,0.00000,0.00000,34,-6,58,8,70,-10,57,0,ok,2,0,0.002,7,-0.2535,-0.20,-0.02,9.61,46,0.101,8.45
7.6038,-0.04363,0.04014,0.32463,0.00000,0.00000,0.00000,32,-5,59,9,69,-11,59,1,ok,2,0,0.002,7,-0.2572,-0.20,-0.02,9.61,46,0.114,8.45
7.6161,-0.04363,0.04014,0.32463,0.00000,0.00000,0.00000,29,-2,60,11,66,-13,59,0,ok,2,0,0.002,8,-0.2610,-0.20,-0.02,9.61,46,0.126,8.45
7.6388,-0.04363,0.04014,0.32463,0.00000,0.00000,0.00000,28,-2,61,11,64,-13,60,0,ok,2,0,0.002,8,-0.2647,-0.20,-0.02,9.61,46,0.139,8.45
7.6420,-0.04363,0.04014,0.32463,0.00000,0.00000,0.00000,27,0,62,11,63,-13,63,-2,ok,2,0,0.002,8,-0.2685,-0.20,-0.02,9.61,46,0.152,8.45
7.6548,-0.04363,0.04014,0.32463,0.00000,0.00000,0.00000,25,3,62,12,60,-14,63,-1,ok,2,0,0.002,8,-0.2722,-0.20,-0.02,9.61,46,0.165,8.45
7.6748,-0.04363,0.04014,0.32463,0.00000,0.00000,0.00000,24,6,63,13,58,-15,64,-1,ok,2,0,0.002,8,-0.2760,-0.20,-0.02,9.61,46,0.177,8.45
7.6797,-0.04363,0.04014,0.32463,0.00000,0.00000,0.00000,23,10,63,14,55,-14,65,-1,ok,2,0,0.002,8,-0.2797,-0.20,-0.02,9.61,46,0.190,8.45
7.6925,0.03840,-0.01047,0.34034,0.00000,0.00000,0.00000,22,12,64,15,52,-13,65,-1,ok,2,0,0.002,8,-0.2835,-1.11,0.79,9.20,47,0.000,8.45
7.7148,0.03840,-0.01047,0.34034,0.00000,0.00000,0.00000,23,13,64,16,50,-13,66,0,ok,2,0,0.002,8,-0.2872,-1.11,0.79,9.20,47,0.013,8.45
7.7181,0.03840,-0.01047,0.34034,0.00000,0.00000,0.00000,23,13,64,17,47,-12,67,-1,ok,2,0,0.002,8,-0.2910,-1.11,0.79,9.20,47,0.026,8.45
7.7309,0.03840,-0.01047,0.34034,0.00000,0.00000,0.00000,25,12,65,17,44,-11,68,0,ok,2,0,0.002,8,-0.2947,-1.11,0.79,9.20,47,0.038,8.45
7.7508,0.03840,-0.01047,0.34034,0.00000,0.00000,0.00000,25,11,65,18,41,-10,69,0,ok,2,0,0.002,8,-0.2985,-1.11,0.79,9.20,47,0.051,8.45
7.7557,0.03840,-0.01047,0.34034,0.00000,0.00000,0.00000,26,11,66,19,39,-10,69,2,ok,2,0,0.002,8,-0.3022,-1.11,0.79,9.20,47,0.063,8.45
7.7683,0.03840,-0.01047,0.34034,0.00000,0.00000,0.00000,28,10,66,19,35,-8,69,2,ok,2,0,0.002,8,-0.3060,-1.11,0.79,9.20,47,0.076,8.45
7.7908,0.03840,-0.01047,0.34034,0.00000,0.00000,0.00000,28,10,66,20,33,-7,70,3,ok,2,0,0.002,8,-0.3097,-1.11,0.79,9.20,47,0.088,8.45
7.7940,0.03840,-0.01047,0.34034,0.00000,0.00000,0.00000,30,8,66,21,32,-5,70,4,ok,2,0,0.002,8,-0.3135,-1.11,0.79,9.20,47,0.102,8.45
7.8067,0.03840,-0.01047,0.34034,0.00000,0.00000,0.00000,31,8,66,22,29,-2,71,5,ok,2,0,0.002,8,-0.3172,-1.11,0.79,9.20,47,0.114,8.45
7.8268,0.03840,-0.01047,0.34034,0.00000,0.00000,0.00000,32,7,65,23,28,0,71,6,ok,2,0,0.002,8,-0.3210,-1.11,0.79,9.20,47,0.127,8.45
7.8317,0.03840,-0.01047,0.34034,0.00000,0.00000,0.00000,33,6,65,24,27,4,71,7,ok,2,0,0.002,8,-0.3247,-1.11,0.79,9.20,47,0.139,8.45
7.8442,0.03840,-0.01047,0.34034,0.00000,0.00000,0.00000,34,6,65,25,26,6,72,8,ok,2,0,0.002,8,-0.3285,-1.11,0.79,9.20,47,0.152,8.45
7.8668,0.03840,-0.01047,0.34034,0.00000,0.00000,0.00000,35,5,64,28,28,5,72,9,ok,2,0,0.002,8,-0.3322,-1.11,0.79,9.20,47,0.164,8.45
7.8700,0.03840,-0.01047,0.34034,0.00000,0.00000,0.00000,35,4,64,29,28,5,72,11,ok,2,0,0.002,8,-0.3360,-1.11,0.79,9.20,47,0.178,8.45
7.8827,0.03840,-0.01047,0.34034,0.00000,0.00000,0.00000,36,4,65,27,30,3,72,12,ok,2,0,0.002,8,-0.3397,-1.11,0.79,9.20,47,0.190,8.45
7.9028,0.05236,0.05061,0.32289,0.00000,0.00000,0.00000,38,3,68,25,31,2,73,14,ok,2,0,0.002,8,-0.3435,0.43,1.26,9.22,48,0.000,8.45
7.9079,0.05236,0.05061,0.32289,0.00000,0.00000,0.00000,38,3,70,21,32,2,73,15,ok,2,0,0.002,8,-0.3472,0.43,1.26,9.22,48,0.012,8.45
7.9202,0.05236,0.05061,0.32289,0.00000,0.00000,0.00000,39,2,71,17,33,2,72,17,ok,2,0,0.002,8,-0.3510,0.43,1.26,9.22,48,0.025,8.45
7.9428,0.05236,0.05061,0.32289,0.00000,0.00000,0.00000,40,2,71,15,34,1,72,19,ok,2,0,0.002,8,-0.3547,0.43,1.26,9.22,48,0.038,8.45
7.9460,0.05236,0.05061,0.32289,0.00000,0.00000,0.00000,41,1,71,14,37,1,73,20,ok,2,0,0.002,8,-0.3585,0.43,1.26,9.22,48,0.051,8.45
7.9589,0.05236,0.05061,0.32289,0.00000,0.00000,0.00000,42,1,71,11,37,1,72,22,ok,2,0,0.002,8,-0.3622,0.43,1.26,9.22,48,0.064,8.45
7.9788,0.05236,0.05061,0.32289,0.00000,0.00000,0.00000,43,1,71,8,39,2,72,23,ok,2,0,0.002,8,-0.3660,0.43,1.26,9.22,48,0.076,8.45
7.9838,0.05236,0.05061,0.32289,0.00000,0.00000,0.00000,44,1,70,5,40,1,73,25,ok,2,0,0.002,8,-0.3697,0.43,1.26,9.22,48,0.089,8.45
7.9962,0.05236,0.05061,0.32289,0.00000,0.00000,0.00000,45,0,70,3,41,2,72,26,ok,2,0,0.002,8,-0.3735,0.43,1.26,9.22,48,0.101,8.45
8.0188,0.05236,0.05061,0.32289,0.00000,0.00000,0.00000,46,0,68,1,42,1,72,28,ok,2,0,0.002,8,-0.3772,0.43,1.26,9.22,48,0.114,8.45
8.0220,0.05236,0.05061,0.32289,0.00000,0.00000,0.00000,47,0,67,-1,44,1,72,29,ok,2,0,0.002,8,-0.3810,0.43,1.26,9.22,48,0.127,8.45
8.0350,0.05236,0.05061,0.32289,0.00000,0.00000,0.00000,47,0,65,-2,45,0,73,29,ok,2,0,0.002,8,-0.3847,0.43,1.26,9.22,48,0.140,8.45
8.0548,0.05236,0.05061,0.32289,0.00000,0.00000,0.00000,48,0,64,-4,46,0,74,28,ok,2,0,0.002,8,-0.3885,0.43,1.26,9.22,48,0.152,8.45
8.0597,0.05236,0.05061,0.32289,0.00000,0.00000,0.00000,49,1,63,-6,48,0,76,26,ok,2,0,0.002,8,-0.3922,0.43,1.26,9.22,48,0.165,8.45
8.0722,0.05236,0.05061,0.32289,0.00000,0.00000,0.00000,49,2,61,-7,48,0,78,21,ok,2,0,0.002,8,-0.3960,0.43,1.26,9.22,48,0.177,8.45
8.0948,0.05236,0.05061,0.32289,0.00000,0.00000,0.00000,50,1,59,-8,49,0,79,17,ok,2,0,0.002,8,-0.3997,0.43,1.26,9.22,48,0.190,8.45
8.0983,-0.17802,0.00873,0.32463,0.00000,0.00000,0.00000,51,1,56,-9,51,0,81,14,ok,2,0,0.002,8,-0.4035,-0.25,-2.46,9.33,49,0.000,8.45
8.1107,-0.17802,0.00873,0.32463,0.00000,0.00000,0.00000,51,3,54,-9,52,0,81,14,ok,2,0,0.002,8,-0.4072,-0.25,-2.46,9.33,49,0.013,8.45
8.1308,-0.17802,0.00873,0.32463,0.00000,0.00000,0.00000,51,4,51,-9,53,-1,81,11,ok,2,0,0.002,8,-0.4110,-0.25,-2.46,9.33,49,0.025,8.45
8.1357,-0.17802,0.00873,0.32463,0.00000,0.00000,0.00000,52,4,48,-9,54,-1,81,8,ok,2,0,0.002,8,-0.4147,-0.25,-2.46,9.33,49,0.038,8.45
8.1484,-0.17802,0.00873,0.32463,0.00000,0.00000,0.00000,52,4,46,-8,55,0,80,5,ok,2,0,0.002,8,-0.4185,-0.25,-2.46,9.33,49,0.050,8.45
8.1708,-0.17802,0.00873,0.32463,0.00000,0.00000,0.00000,52,5,43,-9,56,0,80,3,ok,2,0,0.002,8,-0.4222,-0.25,-2.46,9.33,49,0.063,8.45
8.1740,-0.17802,0.00873,0.32463,0.00000,0.00000,0.00000,53,6,41,-9,57,1,78,-1,ok,2,0,0.002,8,-0.4260,-0.25,-2.46,9.33,49,0.076,8.45
8.1868,-0.17802,0.00873,0.32463,0.00000,0.00000,0.00000,53,6,39,-8,58,0,78,-3,ok,2,0,0.002,8,-0.4297,-0.25,-2.46,9.33,49,0.089,8.45
8.2068,-0.17802,0.00873,0.32463,0.00000,0.00000,0.00000,54,6,36,-7,58,1,77,-4,ok,2,0,0.002,8,-0.4335,-0.25,-2.46,9.33,49,0.101,8.45
8.2119,-0.17802,0.00873,0.32463,0.00000,0.00000,0.00000,54,7,33,-6,59,1,74,-7,ok,2,0,0.002,8,-0.4372,-0.25,-2.46,9.33,49,0.114,8.45
8.2243,-0.17802,0.00873,0.32463,0.00000,0.00000,0.00000,54,8,29,-5,60,1,72,-7,ok,2,0,0.002,8,-0.4410,-0.25,-2.46,9.33,49,0.126,8.45
8.2468,-0.17802,0.00873,0.32463,0.00000,0.00000,0.00000,55,8,26,-3,61,1,70,-9,ok,2,0,0.002,8,-0.4447,-0.25,-2.46,9.33,49,0.139,8.45
8.2500,-0.17802,0.00873,0.32463,0.00000,0.00000,0.00000,56,10,22,-1,62,0,69,-11,ok,2,0,0.002,8,-0.4480,-0.25,-2.46,9.33,49,0.152,8.45
8.2627,-0.17802,0.00873,0.32463,0.00000,0.00000,0.00000,56,10,20,0,65,-2,67,-12,ok,2,0,0.002,8,-0.4496,-0.25,-2.46,9.33,49,0.165,8.45
8.2828,-0.17802,0.00873,0.32463,0.00000,0.00000,0.00000,57,11,18,1,65,-1,64,-13,ok,2,0,0.002,8,-0.4511,-0.25,-2.46,9.33,49,0.177,8.45
8.2879,-0.17802,0.00873,0.32463,0.00000,0.00000,0.00000,57,11,16,3,66,0,63,-13,ok,2,0,0.002,8,-0.4527,-0.25,-2.46,9.33,49,0.190,8.45
8.3004,-0.04189,0.01396,0.34732,0.00000,0.00000,0.00000,57,12,15,7,66,-1,60,-14,ok,2,0,0.002,8,-0.4565,0.35,-0.24,9.59,50,0.000,8.45
8.3228,-0.04189,0.01396,0.34732,0.00000,0.00000,0.00000,57,13,13,10,66,0,58,-15,ok,2,0,0.002,8,-0.4602,0.35,-0.24,9.59,50,0.013,8.45
8.3260,-0.04189,0.01396,0.34732,0.00000,0.00000,0.00000,57,14,11,12,67,0,55,-13,ok,2,0,0.002,8,-0.4640,0.35,-0.24,9.59,50,0.026,8.45
8.3387,-0.04189,0.01396,0.34732,0.00000,0.00000,0.00000,57,15,13,13,67,1,53,-13,ok,2,0,0.002,8,-0.4677,0.35,-0.24,9.59,50,0.039,8.45
8.3588,-0.04189,0.01396,0.34732,0.00000,0.00000,0.00000,57,16,13,12,68,1,50,-12,ok,2,0,0.002,8,-0.4715,0.35,-0.24,9.59,50,0.051,8.45
8.3637,-0.04189,0.01396,0.34732,0.00000,0.00000,0.00000,58,17,14,11,69,1,47,-11,ok,2,0,0.002,8,-0.4752,0.35,-0.24,9.59,50,0.063,8.45
8.3764,-0.04189,0.01396,0.34732,0.00000,0.00000,0.00000,58,18,15,10,69,2,45,-11,ok,2,0,0.002,8,-0.4790,0.35,-0.24,9.59,50,0.076,8.45
8.3988,-0.04189,0.01396,0.34732,0.00000,0.00000,0.00000,58,18,16,10,69,3,41,-9,ok,2,0,0.002,8,-0.4827,0.35,-0.24,9.59,50,0.089,8.45
8.4020,-0.04189,0.01396,0.34732,0.00000,0.00000,0.00000,58,19,17,9,70,3,39,-9,ok,2,0,0.002,8,-0.4865,0.35,-0.24,9.59,50,0.102,8.45
8.4147,-0.04189,0.01396,0.34732,0.00000,0.00000,0.00000,58,20,18,8,70,4,35,-7,ok,2,0,0.002,8,-0.4902,0.35,-0.24,9.59,50,0.115,8.45
8.4348,-0.04189,0.01396,0.34732,0.00000,0.00000,0.00000,59,21,20,7,71,5,34,-5,ok,2,0,0.002,8,-0.4940,0.35,-0.24,9.59,50,0.127,8.45
8.4398,-0.04189,0.01396,0.34732,0.00000,0.00000,0.00000,59,22,21,7,71,6,32,-4,ok,2,0,0.002,8,-0.4977,0.35,-0.24,9.59,50,0.140,8.45
8.4523,-0.04189,0.01396,0.34732,0.00000,0.00000,0.00000,58,23,22,6,71,7,30,-1,ok,2,0,0.002,8,-0.5015,0.35,-0.24,9.59,50,0.152,8.45
8.4748,-0.04189,0.01396,0.34732,0.00000,0.00000,0.00000,58,24,23,6,71,8,29,2,ok,2,0,0.002,8,-0.5052,0.35,-0.24,9.59,50,0.165,8.45
8.4780,-0.04189,0.01396,0.34732,0.00000,0.00000,0.00000,58,25,25,5,71,9,27,5,ok,2,0,0.002,8,-0.5090,0.35,-0.24,9.59,50,0.178,8.45
8.4907,-0.04189,0.01396,0.34732,0.00000,0.00000,0.00000,57,28,26,5,71,10,27,7,ok,2,0,0.002,8,-0.5127,0.35,-0.24,9.59,50,0.191,8.45
8.5108,-0.02793,-0.04887,0.35081,0.00000,0.00000,0.00000,57,29,27,4,71,12,29,6,ok,2,0,0.002,8,-0.5165,0.29,-0.89,10.84,51,0.000,8.45
8.5157,-0.02793,-0.04887,0.35081,0.00000,0.00000,0.00000,58,28,28,3,71,13,29,6,ok,2,0,0.002,8,-0.5202,0.29,-0.89,10.84,51,0.012,8.45
8.5281,-0.02793,-0.04887,0.35081,0.00000,0.00000,0.00000,59,24,30,3,72,14,30,3,ok,2,0,0.002,8,-0.5240,0.29,-0.89,10.84,51,0.025,8.45
8.5508,-0.02793,-0.04887,0.35081,0.00000,0.00000,0.00000,59,21,31,2,71,15,31,3,ok,2,0,0.002,8,-0.5277,0.29,-0.89,10.84,51,0.037,8.45
8.5544,-0.02793,-0.04887,0.35081,0.00000,0.00000,0.00000,60,17,33,2,71,17,33,3,ok,2,0,0.002,8,-0.5315,0.29,-0.89,10.84,51,0.051,8.45
8.5669,-0.02793,-0.04887,0.35081,0.00000,0.00000,0.00000,60,15,34,2,72,18,34,2,ok,2,0,0.002,8,-0.5352,0.29,-0.89,10.84,51,0.064,8.45
8.5868,-0.02793,-0.04887,0.35081,0.00000,0.00000,0.00000,60,14,36,2,71,20,36,1,ok,2,0,0.002,8,-0.5390,0.29,-0.89,10.84,51,0.076,8.45
8.5918,-0.02793,-0.04887,0.35081,0.00000,0.00000,0.00000,60,11,37,2,71,21,38,1,ok,2,0,0.002,8,-0.5427,0.29,-0.89,10.84,51,0.089,8.45
8.6045,-0.02793,-0.04887,0.35081,0.00000,0.00000,0.00000,59,7,38,2,71,23,39,2,ok,2,0,0.002,8,-0.5465,0.29,-0.89,10.84,51,0.101,8.45
8.6268,-0.02793,-0.04887,0.35081,0.00000,0.00000,0.00000,59,5,39,2,71,25,40,1,ok,2,0,0.002,8,-0.5502,0.29,-0.89,10.84,51,0.114,8.45
8.6301,-0.02793,-0.04887,0.35081,0.00000,0.00000,0.00000,58,1,41,2,70,27,42,1,ok,2,0,0.002,9,-0.5540,0.29,-0.89,10.84,51,0.127,8.45
8.6428,-0.02793,-0.04887,0.35081,0.00000,0.00000,0.00000,58,-1,42,1,70,28,42,1,ok,2,0,0.002,9,-0.5577,0.29,-0.89,10.84,51,0.140,8.45
8.6668,-0.02793,-0.04887,0.35081,0.00000,0.00000,0.00000,57,-3,44,2,71,28,43,1,ok,2,0,0.003,9,-0.5615,0.29,-0.89,10.84,51,0.152,8.45
8.6701,-0.02793,-0.04887,0.35081,0.00000,0.00000,0.00000,56,-4,44,2,72,28,45,0,ok,2,0,0.003,9,-0.5652,0.29,-0.89,10.84,51,0.167,8.45
8.6831,-0.02793,-0.04887,0.35081,0.00000,0.00000,0.00000,56,-6,46,2,74,25,46,0,ok,2,0,0.003,9,-0.5690,0.29,-0.89,10.84,51,0.180,8.45
8.7028,-0.02793,-0.04887,0.35081,0.00000,0.00000,0.00000,55,-8,47,2,76,21,47,0,ok,2,0,0.003,9,-0.5727,0.29,-0.89,10.84,51,0.192,8.45
8.7080,-0.03316,0.02094,0.36652,0.00000,0.00000,0.00000,54,-9,48,3,77,16,48,0,ok,2,0,0.003,9,-0.5765,0.38,0.10,11.34,52,0.000,8.45
8.7203,-0.03316,0.02094,0.36652,0.00000,0.00000,0.00000,53,-10,50,3,78,14,49,0,ok,2,0,0.003,9,-0.5802,0.38,0.10,11.34,52,0.013,8.45
8.7428,-0.03316,0.02094,0.36652,0.00000,0.00000,0.00000,52,-11,50,3,79,13,49,0,ok,2,0,0.003,9,-0.5840,0.38,0.10,11.34,52,0.025,8.45
8.7461,-0.03316,0.02094,0.36652,0.00000,0.00000,0.00000,51,-12,50,5,79,11,51,0,ok,2,0,0.003,9,-0.5877,0.38,0.10,11.34,52,0.038,8.45
8.7587,-0.03316,0.02094,0.36652,0.00000,0.00000,0.00000,50,-11,52,6,79,7,51,0,ok,2,0,0.003,9,-0.5915,0.38,0.10,11.34,52,0.051,8.45
8.7788,-0.03316,0.02094,0.36652,0.00000,0.00000,0.00000,49,-11,52,5,78,4,53,0,ok,2,0,0.003,9,-0.5952,0.38,0.10,11.34,52,0.063,8.45
8.7838,-0.03316,0.02094,0.36652,0.00000,0.00000,0.00000,48,-11,53,6,77,2,54,0,ok,2,0,0.003,9,-0.5990,0.38,0.10,11.34,52,0.076,8.45
8.7962,-0.03316,0.02094,0.36652,0.00000,0.00000,0.00000,47,-11,54,7,77,-1,54,1,ok,2,0,0.003,9,-0.6000,0.38,0.10,11.34,52,0.088,8.45
8.8188,-0.03316,0.02094,0.36652,0.00000,0.00000,0.00000,46,-11,56,7,76,-4,55,0,ok,2,0,0.003,9,-0.6000,0.38,0.10,11.34,52,0.101,8.45
8.8221,-0.03316,0.02094,0.36652,0.00000,0.00000,0.00000,45,-10,56,7,75,-5,56,0,ok,2,0,0.003,9,-0.6000,0.38,0.10,11.34,52,0.114,8.45
8.8347,-0.03316,0.02094,0.36652,0.00000,0.00000,0.00000,44,-9,57,8,74,-8,57,-1,ok,2,0,0.003,9,-0.6000,0.38,0.10,11.34,52,0.127,8.45
8.8548,-0.03316,0.02094,0.36652,0.00000,0.00000,0.00000,43,-8,57,8,71,-7,57,0,ok,2,0,0.003,9,-0.6000,0.38,0.10,11.34,52,0.139,8.45
8.8598,-0.03316,0.02094,0.36652,0.00000,0.00000,0.00000,42,-6,58,8,70,-10,57,0,ok,2,0,0.003,9,-0.6000,0.38,0.10,11.34,52,0.152,8.45
8.8723,-0.03316,0.02094,0.36652,0.00000,0.00000,0.00000,40,-5,59,9,69,-11,59,1,ok,2,0,0.003,9,-0.6000,0.38,0.10,11.34,52,0.165,8.45
8.8948,-0.03316,0.02094,0.36652,0.00000,0.00000,0.00000,39,-2,60,11,66,-13,60,0,ok,2,0,0.003,9,-0.6000,0.38,0.10,11.34,52,0.177,8.45
8.8980,-0.03316,0.02094,0.36652,0.00000,0.00000,0.00000,38,-1,61,11,64,-13,61,0,ok,2,0,0.003,9,-0.6000,0.38,0.10,11.34,52,0.190,8.45
8.9110,0.05236,-0.00873,0.37699,0.00000,0.00000,0.00000,37,0,62,11,62,-13,63,-2,ok,2,0,0.003,9,-0.6000,0.14,0.49,10.37,53,0.000,8.45
8.9308,0.05236,-0.00873,0.37699,0.00000,0.00000,0.00000,37,3,62,12,59,-14,63,-2,ok,2,0,0.003,9,-0.6000,0.14,0.49,10.37,53,0.013,8.45
8.9357,0.05236,-0.00873,0.37699,0.00000,0.00000,0.00000,36,6,63,13,58,-14,64,-2,ok,2,0,0.003,9,-0.6000,0.14,0.49,10.37,53,0.025,8.45
8.9482,0.05236,-0.00873,0.37699,0.00000,0.00000,0.00000,35,10,63,14,55,-14,65,-1,ok,2,0,0.003,9,-0.6000,0.14,0.49,10.37,53,0.038,8.45
8.9708,0.05236,-0.00873,0.37699,0.00000,0.00000,0.00000,34,12,64,15,52,-13,65,-1,ok,2,0,0.003,9,-0.6000,0.14,0.49,10.37,53,0.050,8.45
8.9740,0.05236,-0.00873,0.37699,0.00000,0.00000,0.00000,35,13,64,16,50,-13,66,0,ok,2,0,0.003,9,-0.6000,0.14,0.49,10.37,53,0.063,8.45
8.9867,0.05236,-0.00873,0.37699,0.00000,0.00000,0.00000,35,13,64,17,47,-12,67,-1,ok,2,0,0.003,9,-0.6000,0.14,0.49,10.37,53,0.076,8.45
9.0068,0.05236,-0.00873,0.37699,0.00000,0.00000,0.00000,36,12,65,17,44,-12,68,0,ok,2,0,0.003,9,-0.6000,0.14,0.49,10.37,53,0.089,8.45
9.0117,0.05236,-0.00873,0.37699,0.00000,0.00000,0.00000,36,12,65,18,41,-10,69,0,ok,2,0,0.003,9,-0.6000,0.14,0.49,10.37,53,0.101,8.45
9.0242,0.05236,-0.00873,0.37699,0.00000,0.00000,0.00000,36,11,65,19,38,-10,69,2,ok,2,0,0.003,9,-0.6000,0.14,0.49,10.37,53,0.114,8.45
9.0468,0.05236,-0.00873,0.37699,0.00000,0.00000,0.00000,37,10,65,19,35,-8,69,2,ok,2,0,0.003,9,-0.6000,0.14,0.49,10.37,53,0.126,8.45
9.0503,0.05236,-0.00873,0.37699,0.00000,0.00000,0.00000,38,10,65,20,33,-7,70,3,ok,2,0,0.003,9,-0.6000,0.14,0.49,10.37,53,0.139,8.45
9.0628,0.05236,-0.00873,0.37699,0.00000,0.00000,0.00000,38,8,66,21,31,-5,71,4,ok,2,0,0.003,9,-0.6000,0.14,0.49,10.37,53,0.152,8.45
9.0828,0.05236,-0.00873,0.37699,0.00000,0.00000,0.00000,39,8,66,22,29,-2,72,5,ok,2,0,0.003,9,-0.6000,0.14,0.49,10.37,53,0.165,8.45
9.0877,0.05236,-0.00873,0.37699,0.00000,0.00000,0.00000,39,7,65,23,28,0,72,6,ok,2,0,0.003,9,-0.6000,0.14,0.49,10.37,53,0.177,8.45
9.1003,0.05236,-0.00873,0.37699,0.00000,0.00000,0.00000,40,6,65,24,27,4,72,7,ok,2,0,0.003,9,-0.6000,0.14,0.49,10.37,53,0.190,8.45
9.1228,0.05236,-0.00873,0.37699,0.00000,0.00000,0.00000,40,6,65,25,26,6,72,8,ok,2,0,0.003,9,-0.6000,0.14,0.49,10.37,53,0.202,8.45
9.1265,0.00349,0.00524,0.36303,0.00000,0.00000,0.00000,41,5,64,28,28,6,72,9,ok,2,0,0.003,9,-0.6000,0.79,0.19,10.56,54,0.000,8.45
9.1387,0.00349,0.00524,0.36303,0.00000,0.00000,0.00000,41,4,64,29,28,5,72,11,ok,2,0,0.003,9,-0.6000,0.79,0.19,10.56,54,0.013,8.45
9.1588,0.00349,0.00524,0.36303,0.00000,0.00000,0.00000,42,4,65,28,30,3,72,12,ok,2,0,0.003,9,-0.6000,0.79,0.19,10.56,54,0.025,8.45
9.1637,0.00349,0.00524,0.36303,0.00000,0.00000,0.00000,42,3,68,25,31,2,73,14,ok,2,0,0.003,9,-0.6000,0.79,0.19,10.56,54,0.038,8.45
9.1763,0.00349,0.00524,0.36303,0.00000,0.00000,0.00000,43,3,70,21,32,2,73,16,ok,2,0,0.003,9,-0.6000,0.79,0.19,10.56,54,0.050,8.45
9.1988,0.00349,0.00524,0.36303,0.00000,0.00000,0.00000,43,2,71,17,33,2,72,17,ok,2,0,0.003,9,-0.6000,0.79,0.19,10.56,54,0.063,8.45
9.2020,0.00349,0.00524,0.36303,0.00000,0.00000,0.00000,44,2,71,15,34,1,73,19,ok,2,0,0.003,9,-0.6000,0.79,0.19,10.56,54,0.076,8.45
9.2149,0.00349,0.00524,0.36303,0.00000,0.00000,0.00000,44,1,71,14,37,1,73,20,ok,2,0,0.003,9,-0.6000,0.79,0.19,10.56,54,0.089,8.45
9.2348,0.00349,0.00524,0.36303,0.00000,0.00000,0.00000,45,1,71,11,37,1,72,22,ok,2,0,0.003,9,-0.6000,0.79,0.19,10.56,54,0.101,8.45
9.2396,0.00349,0.00524,0.36303,0.00000,0.00000,0.00000,46,1,71,8,39,2,72,23,ok,2,0,0.003,9,-0.6000,0.79,0.19,10.56,54,0.114,8.45
9.2522,0.00349,0.00524,0.36303,0.00000,0.00000,0.00000,46,1,70,5,40,1,73,24,ok,2,0,0.003,9,-0.6000,0.79,0.19,10.56,54,0.126,8.45
9.2748,0.00349,0.00524,0.36303,0.00000,0.00000,0.00000,47,0,70,3,41,1,72,26,ok,2,0,0.003,9,-0.6000,0.79,0.19,10.56,54,0.139,8.45
9.2781,0.00349,0.00524,0.36303,0.00000,0.00000,0.00000,47,0,69,1,42,1,72,28,ok,2,0,0.003,9,-0.6000,0.79,0.19,10.56,54,0.152,8.45
9.2906,0.00349,0.00524,0.36303,0.00000,0.00000,0.00000,48,0,68,-1,44,1,72,29,ok,2,0,0.003,9,-0.6000,0.79,0.19,10.56,54,0.165,8.45
9.3108,0.00349,0.00524,0.36303,0.00000,0.00000,0.00000,48,0,65,-2,45,0,73,29,ok,2,0,0.003,9,-0.6000,0.79,0.19,10.56,54,0.177,8.45
9.3159,-0.16232,-0.03840,0.39270,0.00000,0.00000,0.00000,49,1,64,-4,46,0,74,28,ok,2,0,0.003,9,-0.6000,0.07,-1.87,8.86,55,0.000,8.45
9.3282,-0.16232,-0.03840,0.39270,0.00000,0.00000,0.00000,49,0,63,-6,47,-1,76,26,ok,2,0,0.003,9,-0.6000,0.07,-1.87,8.86,55,0.013,8.45
9.3508,-0.16232,-0.03840,0.39270,0.00000,0.00000,0.00000,50,1,61,-7,48,-1,78,21,ok,2,0,0.003,9,-0.6000,0.07,-1.87,8.86,55,0.025,8.45
9.3542,-0.16232,-0.03840,0.39270,0.00000,0.00000,0.00000,50,1,59,-8,49,-1,79,18,ok,2,0,0.003,9,-0.6000,0.07,-1.87,8.86,55,0.038,8.45
9.3667,-0.16232,-0.03840,0.39270,0.00000,0.00000,0.00000,50,1,56,-8,50,-1,80,14,ok,2,0,0.003,9,-0.6000,0.07,-1.87,8.86,55,0.051,8.45
9.3868,-0.16232,-0.03840,0.39270,0.00000,0.00000,0.00000,50,3,54,-9,52,-1,81,14,ok,2,0,0.003,9,-0.6000,0.07,-1.87,8.86,55,0.064,8.45
9.3919,-0.16232,-0.03840,0.39270,0.00000,0.00000,0.00000,51,4,51,-9,53,0,80,11,ok,2,0,0.003,9,-0.6000,0.07,-1.87,8.86,55,0.076,8.45
9.4042,-0.16232,-0.03840,0.39270,0.00000,0.00000,0.00000,51,4,49,-9,54,0,80,7,ok,2,0,0.003,9,-0.6000,0.07,-1.87,8.86,55,0.089,8.45
9.4268,-0.16232,-0.03840,0.39270,0.00000,0.00000,0.00000,51,5,46,-9,55,0,80,4,ok,2,0,0.003,9,-0.6000,0.07,-1.87,8.86,55,0.101,8.45
9.4300,-0.16232,-0.03840,0.39270,0.00000,0.00000,0.00000,51,6,44,-9,56,0,79,2,ok,2,0,0.003,9,-0.6000,0.07,-1.87,8.86,55,0.114,8.45
9.4427,-0.16232,-0.03840,0.39270,0.00000,0.00000,0.00000,52,6,42,-9,57,1,78,-2,ok,2,0,0.003,9,-0.6000,0.07,-1.87,8.86,55,0.127,8.45
9.4628,-0.16232,-0.03840,0.39270,0.00000,0.00000,0.00000,52,6,39,-8,58,0,77,-3,ok,2,0,0.003,9,-0.6000,0.07,-1.87,8.86,55,0.140,8.45
9.4677,-0.16232,-0.03840,0.39270,0.00000,0.00000,0.00000,53,7,36,-7,58,0,76,-5,ok,2,0,0.003,9,-0.6000,0.07,-1.87,8.86,55,0.152,8.45
9.4802,-0.16232,-0.03840,0.39270,0.00000,0.00000,0.00000,53,8,33,-6,59,1,74,-7,ok,2,0,0.003,9,-0.6000,0.07,-1.87,8.86,55,0.165,8.45
9.5028,-0.16232,-0.03840,0.39270,0.00000,0.00000,0.00000,53,8,29,-5,60,1,71,-7,ok,2,0,0.003,9,-0.6000,0.07,-1.87,8.86,55,0.177,8.45
9.5061,-0.16232,-0.03840,0.39270,0.00000,0.00000,0.00000,54,9,26,-3,61,1,70,-9,ok,2,0,0.003,9,-0.6000,0.07,-1.87,8.86,55,0.190,8.45
9.5190,-0.16232,-0.03840,0.39270,0.00000,0.00000,0.00000,54,10,22,-1,62,0,69,-11,ok,2,0,0.003,9,-0.6000,0.07,-1.87,8.86,55,0.203,8.45
9.5388,-0.09425,-0.00698,0.33685,0.00000,0.00000,0.00000,54,10,20,0,64,-2,67,-12,ok,2,0,0.003,9,-0.5962,-0.04,-0.35,9.98,56,0.000,8.45
9.5439,-0.09425,-0.00698,0.33685,0.00000,0.00000,0.00000,55,11,19,1,64,-1,64,-13,ok,2,0,0.003,9,-0.5925,-0.04,-0.35,9.98,56,0.012,8.45
9.5562,-0.09425,-0.00698,0.33685,0.00000,0.00000,0.00000,55,11,17,3,65,0,63,-14,ok,2,0,0.003,9,-0.5887,-0.04,-0.35,9.98,56,0.025,8.45
9.5788,-0.09425,-0.00698,0.33685,0.00000,0.00000,0.00000,55,12,15,7,66,0,60,-14,ok,2,0,0.003,9,-0.5850,-0.04,-0.35,9.98,56,0.037,8.45
9.5823,-0.09425,-0.00698,0.33685,0.00000,0.00000,0.00000,55,13,13,10,66,0,58,-15,ok,2,0,0.003,9,-0.5812,-0.04,-0.35,9.98,56,0.051,8.45
9.5948,-0.09425,-0.00698,0.33685,0.00000,0.00000,0.00000,56,14,11,12,67,0,55,-13,ok,2,0,0.003,9,-0.5775,-0.04,-0.35,9.98,56,0.064,8.45
9.6148,-0.09425,-0.00698,0.33685,0.00000,0.00000,0.00000,56,15,13,13,67,0,52,-13,ok,2,0,0.003,9,-0.5737,-0.04,-0.35,9.98,56,0.076,8.45
9.6197,-0.09425,-0.00698,0.33685,0.00000,0.00000,0.00000,56,16,12,12,68,1,50,-12,ok,2,0,0.003,9,-0.5700,-0.04,-0.35,9.98,56,0.089,8.45
9.6323,-0.09425,-0.00698,0.33685,0.00000,0.00000,0.00000,57,17,14,11,69,1,47,-11,ok,2,0,0.003,9,-0.5662,-0.04,-0.35,9.98,56,0.101,8.45
9.6548,-0.09425,-0.00698,0.33685,0.00000,0.00000,0.00000,57,18,15,11,69,2,45,-11,ok,2,0,0.003,9,-0.5625,-0.04,-0.35,9.98,56,0.114,8.45
9.6581,-0.09425,-0.00698,0.33685,0.00000,0.00000,0.00000,57,18,16,10,69,2,41,-9,ok,2,0,0.003,10,-0.5587,-0.04,-0.35,9.98,56,0.127,8.45
9.6707,-0.09425,-0.00698,0.33685,0.00000,0.00000,0.00000,57,18,17,9,70,3,39,-9,ok,2,0,0.003,10,-0.5550,-0.04,-0.35,9.98,56,0.140,8.45
9.6908,-0.09425,-0.00698,0.33685,0.00000,0.00000,0.00000,57,20,18,9,70,4,35,-7,ok,2,0,0.003,10,-0.5512,-0.04,-0.35,9.98,56,0.152,8.45
9.6957,-0.09425,-0.00698,0.33685,0.00000,0.00000,0.00000,58,21,20,8,71,4,34,-5,ok,2,0,0.003,10,-0.5475,-0.04,-0.35,9.98,56,0.164,8.45
9.7083,-0.09425,-0.00698,0.33685,0.00000,0.00000,0.00000,58,22,21,7,71,6,32,-4,ok,2,0,0.003,10,-0.5437,-0.04,-0.35,9.98,56,0.177,8.45
9.7308,-0.09425,-0.00698,0.33685,0.00000,0.00000,0.00000,57,23,22,6,71,7,29,-1,ok,2,0,0.003,10,-0.5400,-0.04,-0.35,9.98,56,0.189,8.45
9.7344,-0.02618,-0.01745,0.31241,0.00000,0.00000,0.00000,58,24,23,6,71,8,28,2,ok,2,0,0.003,10,-0.5250,0.08,-0.96,10.19,57,0.000,8.45
9.7467,-0.02618,-0.01745,0.31241,0.00000,0.00000,0.00000,58,25,25,5,72,9,27,5,ok,2,0,0.003,10,-0.5100,0.08,-0.96,10.19,57,0.013,8.45
9.7668,-0.02618,-0.01745,0.31241,0.00000,0.00000,0.00000,58,28,26,5,71,10,27,7,ok,2,0,0.003,10,-0.4950,0.08,-0.96,10.19,57,0.025,8.45
9.7718,-0.02618,-0.01745,0.31241,0.00000,0.00000,0.00000,57,29,28,4,71,12,29,6,ok,2,0,0.003,10,-0.4800,0.08,-0.96,10.19,57,0.038,8.45
9.7842,-0.02618,-0.01745,0.31241,0.00000,0.00000,0.00000,58,28,29,3,71,13,29,5,ok,2,0,0.003,10,-0.4650,0.08,-0.96,10.19,57,0.050,8.45
9.8068,-0.02618,-0.01745,0.31241,0.00000,0.00000,0.00000,60,25,30,3,72,14,30,3,ok,2,0,0.003,10,-0.4500,0.08,-0.96,10.19,57,0.063,8.45
9.8100,-0.02618,-0.01745,0.31241,0.00000,0.00000,0.00000,61,21,31,2,71,15,31,3,ok,2,0,0.003,10,-0.4350,0.08,-0.96,10.19,57,0.076,8.45
9.8226,-0.02618,-0.01745,0.31241,0.00000,0.00000,0.00000,62,17,33,2,71,17,33,3,ok,2,0,0.003,10,-0.4200,0.08,-0.96,10.19,57,0.089,8.45
9.8428,-0.02618,-0.01745,0.31241,0.00000,0.00000,0.00000,62,15,34,2,72,18,34,2,ok,2,0,0.003,10,-0.4050,0.08,-0.96,10.19,57,0.101,8.45
9.8478,-0.02618,-0.01745,0.31241,0.00000,0.00000,0.00000,63,14,35,1,71,20,36,1,ok,2,0,0.003,10,-0.3900,0.08,-0.96,10.19,57,0.114,8.45
9.8602,-0.02618,-0.01745,0.31241,0.00000,0.00000,0.00000,63,11,37,1,71,21,38,1,ok,2,0,0.003,10,-0.3750,0.08,-0.96,10.19,57,0.126,8.45
9.8828,-0.02618,-0.01745,0.31241,0.00000,0.00000,0.00000,63,7,38,2,71,23,38,2,ok,2,0,0.003,10,-0.3600,0.08,-0.96,10.19,57,0.139,8.45
9.8860,-0.02618,-0.01745,0.31241,0.00000,0.00000,0.00000,63,5,39,2,71,25,40,1,ok,2,0,0.003,10,-0.3450,0.08,-0.96,10.19,57,0.152,8.45
9.8986,-0.02618,-0.01745,0.31241,0.00000,0.00000,0.00000,63,1,41,2,71,27,41,1,ok,2,0,0.003,10,-0.3300,0.08,-0.96,10.19,57,0.165,8.45
9.9188,-0.02618,-0.01745,0.31241,0.00000,0.00000,0.00000,62,-1,42,1,71,28,42,1,ok,2,0,0.003,10,-0.3150,0.08,-0.96,10.19,57,0.177,8.45
9.9240,-0.12392,-0.04887,0.38048,0.00000,0.00000,0.00000,61,-3,44,2,71,28,43,1,ok,2,0,0.003,10,-0.3187,-1.37,-0.51,10.08,58,0.000,8.45
9.9362,-0.12392,-0.04887,0.38048,0.00000,0.00000,0.00000,59,-4,44,2,72,28,45,1,ok,2,0,0.003,10,-0.3225,-1.37,-0.51,10.08,58,0.013,8.45
9.9588,-0.12392,-0.04887,0.38048,0.00000,0.00000,0.00000,59,-6,46,2,74,25,46,0,ok,2,0,0.003,10,-0.3262,-1.37,-0.51,10.08,58,0.025,8.45
9.9620,-0.12392,-0.04887,0.38048,0.00000,0.00000,0.00000,58,-8,47,2,76,20,47,0,ok,2,0,0.003,10,-0.3300,-1.37,-0.51,10.08,58,0.038,8.45
9.9746,-0.12392,-0.04887,0.38048,0.00000,0.00000,0.00000,57,-9,48,3,77,16,48,0,ok,2,0,0.003,10,-0.3337,-1.37,-0.51,10.08,58,0.051,8.45
9.9948,-0.12392,-0.04887,0.38048,0.00000,0.00000,0.00000,55,-10,50,3,79,13,49,0,ok,2,0,0.003,10,-0.3375,-1.37,-0.51,10.08,58,0.064,8.45
9.9996,-0.12392,-0.04887,0.38048,0.00000,0.00000,0.00000,53,-11,50,3,79,13,49,0,ok,2,0,0.003,10,-0.3412,-1.37,-0.51,10.08,58,0.076,8.45
10.0122,-0.12392,-0.04887,0.38048,0.00000,0.00000,0.00000,52,-12,51,5,79,10,51,0,ok,2,0,0.003,10,-0.3450,-1.37,-0.51,10.08,58,0.089,8.45
10.0388,-0.12392,-0.04887,0.38048,0.00000,0.00000,0.00000,50,-12,52,6,79,7,51,0,ok,2,0,0.003,10,-0.3487,-1.37,-0.51,10.08,58,0.101,8.45
10.0420,-0.12392,-0.04887,0.38048,0.00000,0.00000,0.00000,49,-12,53,6,78,4,52,0,ok,2,0,0.003,10,-0.3525,-1.37,-0.51,10.08,58,0.118,8.45
10.0546,-0.12392,-0.04887,0.38048,0.00000,0.00000,0.00000,47,-11,54,6,78,1,53,0,ok,2,0,0.003,10,-0.3562,-1.37,-0.51,10.08,58,0.131,8.45
10.0748,-0.12392,-0.04887,0.38048,0.00000,0.00000,0.00000,46,-11,54,7,77,-2,54,1,ok,2,0,0.003,10,-0.3600,-1.37,-0.51,10.08,58,0.143,8.45
10.0796,-0.12392,-0.04887,0.38048,0.00000,0.00000,0.00000,44,-11,56,7,76,-4,54,0,ok,2,0,0.003,10,-0.3637,-1.37,-0.51,10.08,58,0.156,8.45
10.0922,-0.12392,-0.04887,0.38048,0.00000,0.00000,0.00000,42,-10,56,7,75,-6,55,0,ok,2,0,0.003,10,-0.3675,-1.37,-0.51,10.08,58,0.169,8.45
10.1148,-0.12392,-0.04887,0.38048,0.00000,0.00000,0.00000,41,-9,57,8,74,-9,56,-1,ok,2,0,0.003,10,-0.3712,-1.37,-0.51,10.08,58,0.181,8.45
10.1183,-0.12392,-0.04887,0.38048,0.00000,0.00000,0.00000,39,-8,58,8,71,-8,56,0,ok,2,0,0.003,10,-0.3750,-1.37,-0.51,10.08,58,0.194,8.45
10.1313,0.03840,-0.00698,0.41190,0.00000,0.00000,0.00000,37,-6,59,9,70,-10,57,0,ok,2,0,0.003,10,-0.3787,0.40,0.84,9.43,59,0.000,8.34
10.1508,0.03840,-0.00698,0.41190,0.00000,0.00000,0.00000,35,-4,59,9,68,-11,58,0,ok,2,0,0.003,10,-0.3825,0.40,0.84,9.43,59,0.013,8.34
10.1557,0.03840,-0.00698,0.41190,0.00000,0.00000,0.00000,33,-2,60,11,66,-13,59,0,ok,2,0,0.003,10,-0.3862,0.40,0.84,9.43,59,0.025,8.34
10.1682,0.03840,-0.00698,0.41190,0.00000,0.00000,0.00000,32,-1,62,11,64,-13,60,-1,ok,2,0,0.003,10,-0.3900,0.40,0.84,9.43,59,0.038,8.34
10.1908,0.03840,-0.00698,0.41190,0.00000,0.00000,0.00000,31,1,62,11,62,-13,63,-3,ok,2,0,0.003,10,-0.3937,0.40,0.84,9.43,59,0.050,8.34
10.1941,0.03840,-0.00698,0.41190,0.00000,0.00000,0.00000,30,3,62,12,59,-14,63,-2,ok,2,0,0.003,10,-0.3975,0.40,0.84,9.43,59,0.063,8.34
10.2067,0.03840,-0.00698,0.41190,0.00000,0.00000,0.00000,28,7,63,13,58,-15,64,-2,ok,2,0,0.003,10,-0.4012,0.40,0.84,9.43,59,0.076,8.34
10.2268,0.03840,-0.00698,0.41190,0.00000,0.00000,0.00000,28,10,63,14,55,-14,64,-1,ok,2,0,0.003,10,-0.4050,0.40,0.84,9.43,59,0.089,8.34
10.2317,0.03840,-0.00698,0.41190,0.00000,0.00000,0.00000,27,13,64,15,52,-13,65,-1,ok,2,0,0.003,10,-0.4087,0.40,0.84,9.43,59,0.101,8.34
10.2442,0.03840,-0.00698,0.41190,0.00000,0.00000,0.00000,28,13,64,15,50,-13,66,0,ok,2,0,0.003,10,-0.4125,0.40,0.84,9.43,59,0.114,8.34
10.2708,0.03840,-0.00698,0.41190,0.00000,0.00000,0.00000,28,13,64,17,47,-12,67,0,ok,2,0,0.003,10,-0.4162,0.40,0.84,9.43,59,0.126,8.34
10.2742,0.03840,-0.00698,0.41190,0.00000,0.00000,0.00000,29,12,65,17,44,-12,68,1,ok,2,0,0.003,10,-0.4200,0.40,0.84,9.43,59,0.143,8.34
10.2867,0.03840,-0.00698,0.41190,0.00000,0.00000,0.00000,30,11,65,18,41,-10,69,0,ok,2,0,0.003,10,-0.4237,0.40,0.84,9.43,59,0.156,8.34
10.3068,0.03840,-0.00698,0.41190,0.00000,0.00000,0.00000,31,11,65,19,38,-10,69,2,ok,2,0,0.003,10,-0.4275,0.40,0.84,9.43,59,0.169,8.34
10.3118,0.03840,-0.00698,0.41190,0.00000,0.00000,0.00000,32,10,65,19,35,-8,69,2,ok,2,0,0.003,10,-0.4312,0.40,0.84,9.43,59,0.181,8.34
10.3244,0.03840,-0.00698,0.41190,0.00000,0.00000,0.00000,32,10,65,20,33,-7,70,3,ok,2,0,0.003,10,-0.4350,0.40,0.84,9.43,59,0.194,8.34
10.3468,0.03316,0.00524,0.39968,0.00000,0.00000,0.00000,34,8,66,21,31,-5,71,4,ok,2,0,0.003,10,-0.4387,-0.14,-0.62,8.57,60,0.000,8.34
10.3500,0.03316,0.00524,0.39968,0.00000,0.00000,0.00000,34,8,66,22,29,-2,72,5,ok,2,0,0.003,10,-0.4425,-0.14,-0.62,8.57,60,0.013,8.34
10.3626,0.03316,0.00524,0.39968,0.00000,0.00000,0.00000,35,7,65,23,28,0,71,6,ok,2,0,0.003,10,-0.4462,-0.14,-0.62,8.57,60,0.026,8.34
10.3828,0.03316,0.00524,0.39968,0.00000,0.00000,0.00000,36,6,65,24,27,4,71,7,ok,2,0,0.003,10,-0.4500,-0.14,-0.62,8.57,60,0.039,8.34
10.3876,0.03316,0.00524,0.39968,0.00000,0.00000,0.00000,37,6,65,25,26,6,72,8,ok,2,0,0.003,10,-0.4537,-0.14,-0.62,8.57,60,0.051,8.34
10.4002,0.03316,0.00524,0.39968,0.00000,0.00000,0.00000,38,5,64,28,28,6,72,9,ok,2,0,0.003,10,-0.4575,-0.14,-0.62,8.57,60,0.063,8.34
10.4228,0.03316,0.00524,0.39968,0.00000,0.00000,0.00000,38,4,64,29,28,5,72,11,ok,2,0,0.003,10,-0.4612,-0.14,-0.62,8.57,60,0.076,8.34
10.4261,0.03316,0.00524,0.39968,0.00000,0.00000,0.00000,39,4,65,27,30,3,72,12,ok,2,0,0.003,10,-0.4650,-0.14,-0.62,8.57,60,0.089,8.34
10.4387,0.03316,0.00524,0.39968,0.00000,0.00000,0.00000,40,3,68,24,31,2,73,14,ok,2,0,0.003,10,-0.4687,-0.14,-0.62,8.57,60,0.102,8.34
10.4588,0.03316,0.00524,0.39968,0.00000,0.00000,0.00000,41,3,70,21,32,2,73,15,ok,2,0,0.003,10,-0.4725,-0.14,-0.62,8.57,60,0.115,8.34
10.4636,0.03316,0.00524,0.39968,0.00000,0.00000,0.00000,41,2,71,17,33,2,72,17,ok,2,0,0.003,10,-0.4762,-0.14,-0.62,8.57,60,0.127,8.34
10.4762,0.03316,0.00524,0.39968,0.00000,0.00000,0.00000,42,2,71,15,34,1,72,19,ok,2,0,0.003,10,-0.4800,-0.14,-0.62,8.57,60,0.139,8.34
10.4988,0.03316,0.00524,0.39968,0.00000,0.00000,0.00000,43,1,71,14,37,1,73,20,ok,2,0,0.003,10,-0.4837,-0.14,-0.62,8.57,60,0.152,8.34
10.5022,0.03316,0.00524,0.39968,0.00000,0.00000,0.00000,44,1,71,11,37,1,72,22,ok,2,0,0.003,10,-0.4875,-0.14,-0.62,8.57,60,0.165,8.34
10.5147,0.03316,0.00524,0.39968,0.00000,0.00000,0.00000,44,1,71,8,39,2,72,23,ok,2,0,0.003,10,-0.4912,-0.14,-0.62,8.57,60,0.178,8.34
10.5348,-0.05061,-0.06458,0.35430,0.00000,0.00000,0.00000,45,1,70,5,40,1,73,24,ok,2,0,0.003,10,-0.4875,-0.58,-1.86,8.51,61,0.000,8.34
10.5396,-0.05061,-0.06458,0.35430,0.00000,0.00000,0.00000,46,0,70,3,41,1,72,26,ok,2,0,0.003,10,-0.4837,-0.58,-1.86,8.51,61,0.013,8.34
10.5523,-0.05061,-0.06458,0.35430,0.00000,0.00000,0.00000,46,0,69,1,42,0,72,28,ok,2,0,0.003,10,-0.4800,-0.58,-1.86,8.51,61,0.025,8.34
10.5748,-0.05061,-0.06458,0.35430,0.00000,0.00000,0.00000,47,0,68,0,43,0,72,29,ok,2,0,0.003,10,-0.4762,-0.58,-1.86,8.51,61,0.038,8.34
10.5781,-0.05061,-0.06458,0.35430,0.00000,0.00000,0.00000,47,0,66,-2,45,-1,73,29,ok,2,0,0.003,10,-0.4725,-0.58,-1.86,8.51,61,0.051,8.34
10.5907,-0.05061,-0.06458,0.35430,0.00000,0.00000,0.00000,48,0,65,-4,46,-1,74,28,ok,2,0,0.003,10,-0.4687,-0.58,-1.86,8.51,61,0.064,8.34
10.6108,-0.05061,-0.06458,0.35430,0.00000,0.00000,0.00000,49,0,64,-6,47,-1,76,26,ok,2,0,0.003,10,-0.4650,-0.58,-1.86,8.51,61,0.076,8.34
10.6157,-0.05061,-0.06458,0.35430,0.00000,0.00000,0.00000,49,1,62,-7,48,-1,78,20,ok,2,0,0.003,10,-0.4612,-0.58,-1.86,8.51,61,0.089,8.34
10.6283,-0.05061,-0.06458,0.35430,0.00000,0.00000,0.00000,50,1,59,-8,49,-1,79,17,ok,2,0,0.003,10,-0.4575,-0.58,-1.86,8.51,61,0.101,8.34
10.6508,-0.05061,-0.06458,0.35430,0.00000,0.00000,0.00000,50,1,57,-8,50,-1,80,14,ok,2,0,0.003,10,-0.4537,-0.58,-1.86,8.51,61,0.114,8.34
10.6541,-0.05061,-0.06458,0.35430,0.00000,0.00000,0.00000,50,3,54,-9,52,-1,80,13,ok,2,0,0.003,10,-0.4500,-0.58,-1.86,8.51,61,0.127,8.34
10.6666,-0.05061,-0.06458,0.35430,0.00000,0.00000,0.00000,51,4,52,-9,53,-1,80,10,ok,2,0,0.003,10,-0.4462,-0.58,-1.86,8.51,61,0.140,8.34
10.6868,-0.05061,-0.06458,0.35430,0.00000,0.00000,0.00000,51,4,49,-9,54,-1,80,7,ok,2,0,0.003,11,-0.4425,-0.58,-1.86,8.51,61,0.152,8.34
10.6916,-0.05061,-0.06458,0.35430,0.00000,0.00000,0.00000,52,5,46,-9,55,0,79,4,ok,2,0,0.003,11,-0.4387,-0.58,-1.86,8.51,61,0.165,8.34
10.7042,-0.05061,-0.06458,0.35430,0.00000,0.00000,0.00000,52,6,44,-9,56,0,79,2,ok,2,0,0.003,11,-0.4350,-0.58,-1.86,8.51,61,0.177,8.34
10.7268,-0.05061,-0.06458,0.35430,0.00000,0.00000,0.00000,53,6,41,-9,57,0,78,-2,ok,2,0,0.003,11,-0.4312,-0.58,-1.86,8.51,61,0.190,8.34
10.7304,-0.16581,-0.02618,0.38572,0.00000,0.00000,0.00000,53,6,39,-8,58,0,78,-3,ok,2,0,0.003,11,-0.4350,0.16,-1.58,10.10,62,0.000,8.34
10.7427,-0.16581,-0.02618,0.38572,0.00000,0.00000,0.00000,54,7,36,-7,58,0,76,-5,ok,2,0,0.003,11,-0.4387,0.16,-1.58,10.10,62,0.013,8.34
10.7628,-0.16581,-0.02618,0.38572,0.00000,0.00000,0.00000,54,8,33,-6,59,0,74,-7,ok,2,0,0.003,11,-0.4425,0.16,-1.58,10.10,62,0.025,8.34
10.7676,-0.16581,-0.02618,0.38572,0.00000,0.00000,0.00000,55,8,29,-5,60,0,71,-7,ok,2,0,0.003,11,-0.4462,0.16,-1.58,10.10,62,0.038,8.34
10.7803,-0.16581,-0.02618,0.38572,0.00000,0.00000,0.00000,55,9,26,-3,61,0,70,-9,ok,2,0,0.003,11,-0.4500,0.16,-1.58,10.10,62,0.050,8.34
10.8028,-0.16581,-0.02618,0.38572,0.00000,0.00000,0.00000,56,10,22,-1,62,0,69,-11,ok,2,0,0.003,11,-0.4537,0.16,-1.58,10.10,62,0.063,8.34
10.8061,-0.16581,-0.02618,0.38572,0.00000,0.00000,0.00000,56,10,20,0,64,-2,67,-12,ok,2,0,0.003,11,-0.4575,0.16,-1.58,10.10,62,0.076,8.34
10.8188,-0.16581,-0.02618,0.38572,0.00000,0.00000,0.00000,56,11,18,1,64,-1,65,-13,ok,2,0,0.003,11,-0.4612,0.16,-1.58,10.10,62,0.089,8.34
10.8388,-0.16581,-0.02618,0.38572,0.00000,0.00000,0.00000,56,11,16,4,65,0,63,-13,ok,2,0,0.003,11,-0.4650,0.16,-1.58,10.10,62,0.101,8.34
10.8436,-0.16581,-0.02618,0.38572,0.00000,0.00000,0.00000,57,12,15,7,66,-1,60,-14,ok,2,0,0.003,11,-0.4687,0.16,-1.58,10.10,62,0.114,8.34
10.8562,-0.16581,-0.02618,0.38572,0.00000,0.00000,0.00000,57,13,13,10,66,0,58,-15,ok,2,0,0.003,11,-0.4725,0.16,-1.58,10.10,62,0.126,8.34
10.8828,-0.16581,-0.02618,0.38572,0.00000,0.00000,0.00000,57,14,11,12,67,0,55,-13,ok,2,0,0.003,11,-0.4762,0.16,-1.58,10.10,62,0.139,8.34
10.8860,-0.16581,-0.02618,0.38572,0.00000,0.00000,0.00000,57,15,13,13,68,0,52,-12,ok,2,0,0.003,11,-0.4800,0.16,-1.58,10.10,62,0.156,8.34
10.8986,-0.16581,-0.02618,0.38572,0.00000,0.00000,0.00000,57,16,13,13,68,0,50,-12,ok,2,0,0.003,11,-0.4837,0.16,-1.58,10.10,62,0.169,8.34
10.9188,-0.16581,-0.02618,0.38572,0.00000,0.00000,0.00000,58,16,14,11,69,1,47,-11,ok,2,0,0.003,11,-0.4875,0.16,-1.58,10.10,62,0.181,8.34
10.9237,-0.16581,-0.02618,0.38572,0.00000,0.00000,0.00000,58,17,15,11,69,2,45,-10,ok,2,0,0.003,11,-0.4912,0.16,-1.58,10.10,62,0.194,8.34
10.9365,0.01222,0.01222,0.33859,0.00000,0.00000,0.00000,58,18,16,10,69,2,41,-9,ok,2,0,0.003,11,-0.4875,0.25,0.22,9.86,63,0.000,8.34
10.9588,0.01222,0.01222,0.33859,0.00000,0.00000,0.00000,58,18,17,9,70,3,39,-9,ok,2,0,0.003,11,-0.4837,0.25,0.22,9.86,63,0.013,8.34
10.9621,0.01222,0.01222,0.33859,0.00000,0.00000,0.00000,58,20,18,9,70,5,35,-7,ok,2,0,0.003,11,-0.4800,0.25,0.22,9.86,63,0.026,8.34
10.9747,0.01222,0.01222,0.33859,0.00000,0.00000,0.00000,58,21,20,8,71,5,34,-6,ok,2,0,0.003,11,-0.4762,0.25,0.22,9.86,63,0.039,8.34
10.9948,0.01222,0.01222,0.33859,0.00000,0.00000,0.00000,59,22,21,7,71,6,31,-4,ok,2,0,0.003,11,-0.4725,0.25,0.22,9.86,63,0.051,8.34
10.9997,0.01222,0.01222,0.33859,0.00000,0.00000,0.00000,59,23,22,6,71,7,29,-1,ok,2,0,0.003,11,-0.4687,0.25,0.22,9.86,63,0.064,8.34
11.0122,0.01222,0.01222,0.33859,0.00000,0.00000,0.00000,59,24,23,6,71,8,28,1,ok,2,0,0.003,11,-0.4650,0.25,0.22,9.86,63,0.076,8.34
11.0348,0.01222,0.01222,0.33859,0.00000,0.00000,0.00000,59,25,25,5,72,9,27,5,ok,2,0,0.003,11,-0.4612,0.25,0.22,9.86,63,0.089,8.34
11.0382,0.01222,0.01222,0.33859,0.00000,0.00000,0.00000,58,28,26,5,71,10,26,7,ok,2,0,0.003,11,-0.4575,0.25,0.22,9.86,63,0.102,8.34
11.0506,0.01222,0.01222,0.33859,0.00000,0.00000,0.00000,58,29,27,3,71,12,29,6,ok,2,0,0.003,11,-0.4537,0.25,0.22,9.86,63,0.115,8.34
11.0708,0.01222,0.01222,0.33859,0.00000,0.00000,0.00000,59,28,28,3,71,13,29,6,ok,2,0,0.003,11,-0.4500,0.25,0.22,9.86,63,0.127,8.34
11.0756,0.01222,0.01222,0.33859,0.00000,0.00000,0.00000,60,25,30,3,72,14,30,4,ok,2,0,0.003,11,-0.4462,0.25,0.22,9.86,63,0.139,8.34
11.0882,0.01222,0.01222,0.33859,0.00000,0.00000,0.00000,62,21,31,2,71,16,32,3,ok,2,0,0.003,11,-0.4425,0.25,0.22,9.86,63,0.152,8.34
11.1108,0.01222,0.01222,0.33859,0.00000,0.00000,0.00000,62,17,33,2,71,18,33,3,ok,2,0,0.003,11,-0.4387,0.25,0.22,9.86,63,0.164,8.34
11.1141,0.01222,0.01222,0.33859,0.00000,0.00000,0.00000,62,15,34,2,72,18,34,2,ok,2,0,0.003,11,-0.4350,0.25,0.22,9.86,63,0.178,8.34
11.1267,0.01222,0.01222,0.33859,0.00000,0.00000,0.00000,62,14,35,1,71,21,36,1,ok,2,0,0.003,11,-0.4312,0.25,0.22,9.86,63,0.190,8.34
11.1468,-0.08029,-0.01745,0.35430,0.00000,0.00000,0.00000,62,11,36,1,71,22,38,1,ok,2,0,0.003,11,-0.4275,-0.51,-1.15,10.29,64,0.000,8.34
11.1518,-0.08029,-0.01745,0.35430,0.00000,0.00000,0.00000,62,7,38,2,71,23,39,2,ok,2,0,0.003,11,-0.4237,-0.51,-1.15,10.29,64,0.012,8.34
11.1642,-0.08029,-0.01745,0.35430,0.00000,0.00000,0.00000,62,4,39,2,71,25,40,2,ok,2,0,0.003,11,-0.4200,-0.51,-1.15,10.29,64,0.025,8.34
11.1868,-0.08029,-0.01745,0.35430,0.00000,0.00000,0.00000,61,1,41,2,71,27,42,2,ok,2,0,0.003,11,-0.4162,-0.51,-1.15,10.29,64,0.037,8.34
11.1900,-0.08029,-0.01745,0.35430,0.00000,0.00000,0.00000,60,-1,42,1,71,28,43,2,ok,2,0,0.003,11,-0.4168,-0.51,-1.15,10.29,64,0.051,8.34
11.2029,-0.08029,-0.01745,0.35430,0.00000,0.00000,0.00000,59,-3,44,2,71,28,44,1,ok,2,0,0.003,11,-0.4186,-0.51,-1.15,10.29,64,0.064,8.34
11.2228,-0.08029,-0.01745,0.35430,0.00000,0.00000,0.00000,58,-4,44,2,72,28,45,1,ok,2,0,0.003,11,-0.4204,-0.51,-1.15,10.29,64,0.076,8.34
11.2277,-0.08029,-0.01745,0.35430,0.00000,0.00000,0.00000,58,-6,46,2,74,25,46,0,ok,2,0,0.003,11,-0.4222,-0.51,-1.15,10.29,64,0.089,8.34
11.2402,-0.08029,-0.01745,0.35430,0.00000,0.00000,0.00000,57,-9,47,2,76,21,47,0,ok,2,0,0.003,11,-0.4240,-0.51,-1.15,10.29,64,0.101,8.34
11.2628,-0.08029,-0.01745,0.35430,0.00000,0.00000,0.00000,56,-9,48,3,77,16,48,0,ok,2,0,0.003,11,-0.4258,-0.51,-1.15,10.29,64,0.114,8.34
11.2661,-0.08029,-0.01745,0.35430,0.00000,0.00000,0.00000,54,-11,50,3,79,14,49,0,ok,2,0,0.003,11,-0.4276,-0.51,-1.15,10.29,64,0.127,8.34
11.2786,-0.08029,-0.01745,0.35430,0.00000,0.00000,0.00000,53,-11,50,3,79,13,49,0,ok,2,0,0.003,11,-0.4294,-0.51,-1.15,10.29,64,0.140,8.34
11.2988,-0.08029,-0.01745,0.35430,0.00000,0.00000,0.00000,52,-12,50,5,79,10,50,0,ok,2,0,0.003,11,-0.4311,-0.51,-1.15,10.29,64,0.152,8.34
11.3036,-0.08029,-0.01745,0.35430,0.00000,0.00000,0.00000,50,-12,52,6,79,7,51,0,ok,2,0,0.003,11,-0.4329,-0.51,-1.15,10.29,64,0.165,8.34
11.3162,-0.08029,-0.01745,0.35430,0.00000,0.00000,0.00000,48,-12,53,5,78,4,52,0,ok,2,0,0.003,11,-0.4347,-0.51,-1.15,10.29,64,0.177,8.34
11.3388,-0.08029,-0.01745,0.35430,0.00000,0.00000,0.00000,47,-11,54,6,78,2,53,0,ok,2,0,0.003,11,-0.4365,-0.51,-1.15,10.29,64,0.189,8.34
11.3424,0.01571,-0.02094,0.36303,0.00000,0.00000,0.00000,46,-11,54,7,77,-2,54,1,ok,2,0,0.003,11,-0.4403,0.57,-0.11,10.47,65,0.000,8.34
11.3547,0.01571,-0.02094,0.36303,0.00000,0.00000,0.00000,45,-11,56,7,76,-4,55,-1,ok,2,0,0.003,11,-0.4440,0.57,-0.11,10.47,65,0.013,8.34
11.3748,0.01571,-0.02094,0.36303,0.00000,0.00000,0.00000,43,-10,56,7,75,-5,56,0,ok,2,0,0.003,11,-0.4478,0.57,-0.11,10.47,65,0.025,8.34
11.3798,0.01571,-0.02094,0.36303,0.00000,0.00000,0.00000,42,-9,58,7,73,-8,56,-1,ok,2,0,0.003,11,-0.4515,0.57,-0.11,10.47,65,0.038,8.34
11.3923,0.01571,-0.02094,0.36303,0.00000,0.00000,0.00000,40,-8,58,8,71,-8,57,0,ok,2,0,0.003,11,-0.4553,0.57,-0.11,10.47,65,0.050,8.34
11.4148,0.01571,-0.02094,0.36303,0.00000,0.00000,0.00000,39,-6,58,8,70,-10,57,0,ok,2,0,0.003,11,-0.4590,0.57,-0.11,10.47,65,0.063,8.34
11.4181,0.01571,-0.02094,0.36303,0.00000,0.00000,0.00000,37,-4,59,9,68,-11,59,0,ok,2,0,0.003,11,-0.4628,0.57,-0.11,10.47,65,0.076,8.34
11.4306,0.01571,-0.02094,0.36303,0.00000,0.00000,0.00000,35,-2,60,10,66,-13,59,0,ok,2,0,0.003,11,-0.4665,0.57,-0.11,10.47,65,0.089,8.34
11.4508,0.01571,-0.02094,0.36303,0.00000,0.00000,0.00000,34,-1,61,11,64,-13,60,0,ok,2,0,0.003,11,-0.4703,0.57,-0.11,10.47,65,0.101,8.34
