# run_gait log  cmd_fwd=0.100 hz=80.0 fw_balance=off policy_yaw_sign=-1
t,roll,pitch,yaw,gx,gy,gz,j0,j1,j2,j3,j4,j5,j6,j7,guard_state,hottest_j,hottest_tier,hottest_frac,duty_s,steer_u,ax,ay,az,imu_n,imu_age_s,volt
0.0313,-0.02793,0.01396,0.00000,0.00000,0.00000,0.00000,21,-1,59,7,66,-12,61,0,ok,4,0,0.000,0,0.0000,0.12,-0.28,10.02,2,0.000,nan
0.0349,-0.02793,0.01396,0.00000,0.00000,0.00000,0.00000,19,0,61,8,64,-12,63,-1,ok,4,0,0.000,0,0.0000,0.12,-0.28,10.02,2,0.022,nan
0.0478,-0.02793,0.01396,0.00000,0.00000,0.00000,0.00000,17,2,61,9,61,-13,64,0,ok,4,0,0.000,0,0.0000,0.12,-0.28,10.02,2,0.034,8.21
0.0673,-0.02793,0.01396,0.00000,0.00000,0.00000,0.00000,15,5,62,9,59,-13,64,0,ok,4,0,0.000,0,0.0000,0.12,-0.28,10.02,2,0.047,8.21
0.0724,-0.02793,0.01396,0.00000,0.00000,0.00000,0.00000,13,9,62,11,56,-13,65,1,ok,4,0,0.000,0,0.0000,0.12,-0.28,10.02,2,0.059,8.21
0.0848,-0.02793,0.01396,0.00000,0.00000,0.00000,0.00000,11,11,63,11,53,-12,65,1,ok,4,0,0.000,0,0.0000,0.12,-0.28,10.02,2,0.072,8.21
0.1073,-0.02793,0.01396,0.00000,0.00000,0.00000,0.00000,13,12,63,12,51,-12,66,2,ok,4,0,0.000,0,0.0000,0.12,-0.28,10.02,2,0.084,8.21
0.1107,-0.02793,0.01396,0.00000,0.00000,0.00000,0.00000,13,11,63,13,48,-12,66,2,ok,4,0,0.000,0,0.0000,0.12,-0.28,10.02,2,0.098,8.21
0.1233,-0.02793,0.01396,0.00000,0.00000,0.00000,0.00000,14,10,64,14,45,-12,66,3,ok,4,0,0.000,0,0.0000,0.12,-0.28,10.02,2,0.110,8.21
0.1433,-0.02793,0.01396,0.00000,0.00000,0.00000,0.00000,15,9,64,15,42,-11,67,3,ok,4,0,0.000,0,0.0000,0.12,-0.28,10.02,2,0.123,8.21
0.1482,-0.02793,0.01396,0.00000,0.00000,0.00000,0.00000,16,9,65,15,39,-10,68,4,ok,4,0,0.000,0,0.0000,0.12,-0.28,10.02,2,0.135,8.21
0.1607,-0.02793,0.01396,0.00000,0.00000,0.00000,0.00000,18,8,65,16,36,-8,68,4,ok,4,0,0.000,0,0.0000,0.12,-0.28,10.02,2,0.148,8.21
0.1833,-0.02793,0.01396,0.00000,0.00000,0.00000,0.00000,18,7,65,17,34,-7,69,5,ok,4,0,0.000,0,0.0000,0.12,-0.28,10.02,2,0.160,8.21
0.1865,-0.02793,0.01396,0.00000,0.00000,0.00000,0.00000,21,6,66,18,32,-6,69,6,ok,4,0,0.000,0,0.0000,0.12,-0.28,10.02,2,0.174,8.21
0.1994,-0.02793,0.01396,0.00000,0.00000,0.00000,0.00000,22,5,66,19,30,-2,70,7,ok,4,0,0.000,0,0.0000,0.12,-0.28,10.02,2,0.186,8.21
0.2193,-0.01920,-0.12915,0.00000,0.00000,0.00000,0.00000,23,5,66,21,29,0,70,8,ok,4,0,0.000,0,0.0000,-1.07,0.08,9.63,3,0.000,8.21
0.2243,-0.01920,-0.12915,0.00000,0.00000,0.00000,0.00000,24,4,66,22,27,3,70,9,ok,4,0,0.000,0,0.0000,-1.07,0.08,9.63,3,0.012,8.21
0.2376,-0.01920,-0.12915,0.00000,0.00000,0.00000,0.00000,26,4,66,23,27,6,71,9,ok,4,0,0.000,0,0.0000,-1.07,0.08,9.63,3,0.025,8.21
0.2594,-0.01920,-0.12915,0.00000,0.00000,0.00000,0.00000,27,4,65,26,29,5,71,10,ok,4,0,0.000,0,0.0000,-1.07,0.08,9.63,3,0.038,8.21
0.2636,-0.01920,-0.12915,0.00000,0.00000,0.00000,0.00000,28,3,65,28,29,5,72,10,ok,4,0,0.000,0,0.0000,-1.07,0.08,9.63,3,0.051,8.21
0.2764,-0.01920,-0.12915,0.00000,0.00000,0.00000,0.00000,29,3,66,27,30,3,72,12,ok,4,0,0.000,0,0.0000,-1.07,0.08,9.63,3,0.064,8.21
0.2994,-0.01920,-0.12915,0.00000,0.00000,0.00000,0.00000,30,2,70,24,31,3,73,13,ok,4,0,0.000,0,0.0000,-1.07,0.08,9.63,3,0.076,8.21
0.3037,-0.01920,-0.12915,0.00000,0.00000,0.00000,0.00000,31,1,72,21,32,3,73,14,ok,4,0,0.000,0,0.0000,-1.07,0.08,9.63,3,0.091,8.21
0.3163,-0.01920,-0.12915,0.00000,0.00000,0.00000,0.00000,32,0,73,17,33,2,72,16,ok,4,0,0.000,0,0.0000,-1.07,0.08,9.63,3,0.104,8.21
0.3393,-0.01920,-0.12915,0.00000,0.00000,0.00000,0.00000,33,0,74,15,34,1,72,18,ok,4,0,0.000,0,0.0000,-1.07,0.08,9.63,3,0.116,8.21
0.3426,-0.01920,-0.12915,0.00000,0.00000,0.00000,0.00000,34,0,74,15,37,1,74,19,ok,4,0,0.000,0,0.0000,-1.07,0.08,9.63,3,0.131,8.21
0.3551,-0.01920,-0.12915,0.00000,0.00000,0.00000,0.00000,36,-1,74,12,37,1,73,21,ok,4,0,0.000,0,0.0000,-1.07,0.08,9.63,3,0.144,8.21
0.3753,-0.01920,-0.12915,0.00000,0.00000,0.00000,0.00000,37,-1,73,9,38,1,72,22,ok,4,0,0.000,0,0.0000,-1.07,0.08,9.63,3,0.156,8.21
0.3802,-0.01920,-0.12915,0.00000,0.00000,0.00000,0.00000,38,-1,73,6,40,1,73,23,ok,4,0,0.000,0,0.0000,-1.07,0.08,9.63,3,0.168,8.21
0.3928,-0.01920,-0.12915,0.00000,0.00000,0.00000,0.00000,39,-2,72,4,40,1,72,25,ok,4,0,0.000,0,0.0000,-1.07,0.08,9.63,3,0.181,8.21
0.4153,-0.01920,-0.12915,0.00000,0.00000,0.00000,0.00000,40,-2,71,2,42,0,72,26,ok,4,0,0.000,0,0.0000,-1.07,0.08,9.63,3,0.193,8.21
0.4187,-0.12566,-0.03142,0.06458,0.00000,0.00000,0.00000,42,-2,69,0,43,-1,71,28,ok,4,0,0.000,0,-0.0037,0.53,-1.06,14.77,4,0.000,8.21
0.4312,-0.12566,-0.03142,0.06458,0.00000,0.00000,0.00000,42,-2,67,-1,44,-2,72,28,ok,4,0,0.000,0,-0.0075,0.53,-1.06,14.77,4,0.013,8.21
0.4513,-0.12566,-0.03142,0.06458,0.00000,0.00000,0.00000,44,-1,66,-3,46,-2,73,28,ok,4,0,0.000,0,-0.0112,0.53,-1.06,14.77,4,0.025,8.21
0.4562,-0.12566,-0.03142,0.06458,0.00000,0.00000,0.00000,45,-1,65,-6,47,-2,75,26,ok,4,0,0.000,0,-0.0150,0.53,-1.06,14.77,4,0.038,8.21
0.4686,-0.12566,-0.03142,0.06458,0.00000,0.00000,0.00000,47,0,62,-7,48,-2,76,21,ok,4,0,0.000,0,-0.0187,0.53,-1.06,14.77,4,0.050,8.21
0.4913,-0.12566,-0.03142,0.06458,0.00000,0.00000,0.00000,48,0,60,-8,49,-2,78,17,ok,4,0,0.000,0,-0.0225,0.53,-1.06,14.77,4,0.063,8.21
0.4944,-0.12566,-0.03142,0.06458,0.00000,0.00000,0.00000,49,0,57,-9,50,-1,79,14,ok,4,0,0.000,0,-0.0262,0.53,-1.06,14.77,4,0.076,8.21
0.5071,-0.12566,-0.03142,0.06458,0.00000,0.00000,0.00000,49,2,55,-10,51,-1,79,14,ok,4,0,0.000,0,-0.0300,0.53,-1.06,14.77,4,0.089,8.21
0.5273,-0.12566,-0.03142,0.06458,0.00000,0.00000,0.00000,51,4,52,-10,53,0,79,11,ok,4,0,0.000,1,-0.0338,0.53,-1.06,14.77,4,0.101,8.21
0.5321,-0.12566,-0.03142,0.06458,0.00000,0.00000,0.00000,51,3,49,-10,55,0,79,7,ok,4,0,0.000,1,-0.0375,0.53,-1.06,14.77,4,0.114,8.21
0.5447,-0.12566,-0.03142,0.06458,0.00000,0.00000,0.00000,53,5,46,-10,56,0,79,4,ok,4,0,0.000,1,-0.0413,0.53,-1.06,14.77,4,0.126,8.21
0.5673,-0.12566,-0.03142,0.06458,0.00000,0.00000,0.00000,53,5,44,-10,57,0,78,2,ok,4,0,0.000,1,-0.0450,0.53,-1.06,14.77,4,0.139,8.21
0.5705,-0.12566,-0.03142,0.06458,0.00000,0.00000,0.00000,55,6,41,-11,58,1,77,-1,ok,4,0,0.000,1,-0.0488,0.53,-1.06,14.77,4,0.152,8.21
0.5833,-0.12566,-0.03142,0.06458,0.00000,0.00000,0.00000,55,6,39,-9,59,0,77,-3,ok,4,0,0.000,1,-0.0525,0.53,-1.06,14.77,4,0.165,8.21
0.6033,-0.12566,-0.03142,0.06458,0.00000,0.00000,0.00000,57,6,36,-8,59,1,76,-4,ok,4,0,0.000,1,-0.0563,0.53,-1.06,14.77,4,0.177,8.21
0.6082,-0.12566,-0.03142,0.06458,0.00000,0.00000,0.00000,57,7,33,-7,60,1,74,-6,ok,4,0,0.000,1,-0.0600,0.53,-1.06,14.77,4,0.190,8.21
0.6209,-0.05061,0.03840,0.08901,0.00000,0.00000,0.00000,57,7,29,-6,60,1,71,-7,ok,2,0,0.000,1,-0.0638,0.53,-0.42,9.62,5,0.000,8.21
0.6433,-0.05061,0.03840,0.08901,0.00000,0.00000,0.00000,58,8,27,-4,61,1,70,-8,ok,2,0,0.000,1,-0.0675,0.53,-0.42,9.62,5,0.013,8.21
0.6466,-0.05061,0.03840,0.08901,0.00000,0.00000,0.00000,59,10,22,-2,62,1,69,-10,ok,2,0,0.000,1,-0.0713,0.53,-0.42,9.62,5,0.026,8.21
0.6591,-0.05061,0.03840,0.08901,0.00000,0.00000,0.00000,59,10,21,-1,64,-1,67,-12,ok,2,0,0.000,1,-0.0750,0.53,-0.42,9.62,5,0.038,8.21
0.6793,-0.05061,0.03840,0.08901,0.00000,0.00000,0.00000,60,10,19,0,65,0,64,-13,ok,2,0,0.000,1,-0.0788,0.53,-0.42,9.62,5,0.051,8.21
0.6841,-0.05061,0.03840,0.08901,0.00000,0.00000,0.00000,60,11,17,3,66,0,63,-13,ok,2,0,0.000,1,-0.0825,0.53,-0.42,9.62,5,0.063,8.21
0.6968,-0.05061,0.03840,0.08901,0.00000,0.00000,0.00000,61,12,15,6,67,0,60,-14,ok,2,0,0.000,1,-0.0863,0.53,-0.42,9.62,5,0.076,8.21
0.7193,-0.05061,0.03840,0.08901,0.00000,0.00000,0.00000,61,13,13,10,67,1,58,-14,ok,2,0,0.000,1,-0.0900,0.53,-0.42,9.62,5,0.088,8.21
0.7224,-0.05061,0.03840,0.08901,0.00000,0.00000,0.00000,61,14,11,12,68,1,55,-13,ok,2,0,0.000,1,-0.0938,0.53,-0.42,9.62,5,0.102,8.21
0.7352,-0.05061,0.03840,0.08901,0.00000,0.00000,0.00000,62,15,13,12,68,1,53,-13,ok,2,0,0.000,1,-0.0975,0.53,-0.42,9.62,5,0.114,8.21
0.7553,-0.05061,0.03840,0.08901,0.00000,0.00000,0.00000,62,16,12,13,69,1,50,-12,ok,2,0,0.000,1,-0.1013,0.53,-0.42,9.62,5,0.127,8.21
0.7601,-0.05061,0.03840,0.08901,0.00000,0.00000,0.00000,63,16,14,11,69,1,47,-11,ok,2,0,0.000,1,-0.1050,0.53,-0.42,9.62,5,0.139,8.21
0.7726,-0.05061,0.03840,0.08901,0.00000,0.00000,0.00000,62,17,15,10,70,2,45,-10,ok,2,0,0.000,1,-0.1088,0.53,-0.42,9.62,5,0.152,8.21
0.7953,-0.05061,0.03840,0.08901,0.00000,0.00000,0.00000,63,18,16,10,70,3,41,-9,ok,2,0,0.000,1,-0.1125,0.53,-0.42,9.62,5,0.164,8.21
0.7985,-0.05061,0.03840,0.08901,0.00000,0.00000,0.00000,64,18,17,9,70,3,39,-8,ok,2,0,0.000,1,-0.1163,0.53,-0.42,9.62,5,0.178,8.21
0.8115,-0.05061,0.03840,0.08901,0.00000,0.00000,0.00000,64,20,18,8,71,5,35,-7,ok,2,0,0.000,1,-0.1200,0.53,-0.42,9.62,5,0.190,8.21
0.8313,0.01047,-0.00698,0.10647,0.00000,0.00000,0.00000,65,20,20,7,72,5,34,-5,ok,2,0,0.000,1,-0.1238,0.08,-0.40,10.35,6,0.000,8.21
0.8363,0.01047,-0.00698,0.10647,0.00000,0.00000,0.00000,65,22,21,6,72,6,32,-4,ok,2,0,0.000,1,-0.1275,0.08,-0.40,10.35,6,0.012,8.21
0.8487,0.01047,-0.00698,0.10647,0.00000,0.00000,0.00000,64,23,22,6,71,7,30,-1,ok,2,0,0.000,1,-0.1313,0.08,-0.40,10.35,6,0.025,8.21
0.8713,0.01047,-0.00698,0.10647,0.00000,0.00000,0.00000,64,24,24,6,72,8,29,1,ok,2,0,0.000,1,-0.1350,0.08,-0.40,10.35,6,0.038,8.21
0.8744,0.01047,-0.00698,0.10647,0.00000,0.00000,0.00000,64,25,25,5,72,9,27,5,ok,2,0,0.000,1,-0.1388,0.08,-0.40,10.35,6,0.051,8.21
0.8871,0.01047,-0.00698,0.10647,0.00000,0.00000,0.00000,63,28,26,5,72,10,27,7,ok,2,0,0.000,1,-0.1425,0.08,-0.40,10.35,6,0.063,8.21
0.9073,0.01047,-0.00698,0.10647,0.00000,0.00000,0.00000,62,29,27,3,72,12,29,6,ok,2,0,0.000,1,-0.1463,0.08,-0.40,10.35,6,0.076,8.21
0.9121,0.01047,-0.00698,0.10647,0.00000,0.00000,0.00000,63,28,29,3,72,13,29,6,ok,2,0,0.000,1,-0.1500,0.08,-0.40,10.35,6,0.088,8.21
0.9246,0.01047,-0.00698,0.10647,0.00000,0.00000,0.00000,65,25,30,3,72,14,30,3,ok,2,0,0.000,1,-0.1538,0.08,-0.40,10.35,6,0.101,8.21
0.9473,0.01047,-0.00698,0.10647,0.00000,0.00000,0.00000,67,21,31,2,72,15,31,3,ok,2,0,0.000,1,-0.1575,0.08,-0.40,10.35,6,0.113,8.21
0.9506,0.01047,-0.00698,0.10647,0.00000,0.00000,0.00000,68,17,33,2,71,17,33,3,ok,2,0,0.000,1,-0.1613,0.08,-0.40,10.35,6,0.127,8.21
0.9632,0.01047,-0.00698,0.10647,0.00000,0.00000,0.00000,68,15,34,2,72,18,34,2,ok,2,0,0.000,1,-0.1650,0.08,-0.40,10.35,6,0.139,8.21
0.9833,0.01047,-0.00698,0.10647,0.00000,0.00000,0.00000,67,14,36,1,71,21,36,1,ok,2,0,0.000,1,-0.1688,0.08,-0.40,10.35,6,0.152,8.21
0.9881,0.01047,-0.00698,0.10647,0.00000,0.00000,0.00000,67,11,37,1,71,22,38,1,ok,2,0,0.000,1,-0.1725,0.08,-0.40,10.35,6,0.164,8.21
1.0006,0.01047,-0.00698,0.10647,0.00000,0.00000,0.00000,66,7,38,2,71,23,39,2,ok,2,0,0.000,1,-0.1763,0.08,-0.40,10.35,6,0.177,8.21
1.0233,0.01047,-0.00698,0.10647,0.00000,0.00000,0.00000,66,5,39,2,72,25,40,1,ok,2,0,0.000,1,-0.1800,0.08,-0.40,10.35,6,0.189,8.21
1.0267,-0.05760,0.00175,0.16406,0.00000,0.00000,0.00000,65,1,41,1,71,27,42,1,ok,2,0,0.000,1,-0.1838,-0.22,-1.03,11.84,7,0.000,8.21
1.0392,-0.05760,0.00175,0.16406,0.00000,0.00000,0.00000,64,-1,42,1,71,28,42,1,ok,2,0,0.000,1,-0.1875,-0.22,-1.03,11.84,7,0.013,8.21
1.0593,-0.05760,0.00175,0.16406,0.00000,0.00000,0.00000,63,-3,44,2,71,28,43,1,ok,2,0,0.000,1,-0.1913,-0.22,-1.03,11.84,7,0.025,8.21
1.0641,-0.05760,0.00175,0.16406,0.00000,0.00000,0.00000,61,-4,44,2,72,28,45,1,ok,2,0,0.000,1,-0.1950,-0.22,-1.03,11.84,7,0.038,8.21
1.0766,-0.05760,0.00175,0.16406,0.00000,0.00000,0.00000,60,-6,46,2,74,26,46,0,ok,2,0,0.000,1,-0.1988,-0.22,-1.03,11.84,7,0.050,8.21
1.0993,-0.05760,0.00175,0.16406,0.00000,0.00000,0.00000,60,-8,47,2,76,21,47,0,ok,2,0,0.000,1,-0.2025,-0.22,-1.03,11.84,7,0.063,8.21
1.1025,-0.05760,0.00175,0.16406,0.00000,0.00000,0.00000,58,-9,48,3,77,16,48,0,ok,2,0,0.000,1,-0.2063,-0.22,-1.03,11.84,7,0.076,8.21
1.1152,-0.05760,0.00175,0.16406,0.00000,0.00000,0.00000,56,-10,50,3,79,14,49,0,ok,2,0,0.000,1,-0.2100,-0.22,-1.03,11.84,7,0.089,8.21
1.1353,-0.05760,0.00175,0.16406,0.00000,0.00000,0.00000,54,-11,50,3,79,13,49,0,ok,2,0,0.000,1,-0.2138,-0.22,-1.03,11.84,7,0.101,8.21
1.1403,-0.05760,0.00175,0.16406,0.00000,0.00000,0.00000,52,-12,51,5,79,11,51,0,ok,2,0,0.000,1,-0.2175,-0.22,-1.03,11.84,7,0.114,8.21
1.1526,-0.05760,0.00175,0.16406,0.00000,0.00000,0.00000,50,-12,52,6,79,7,51,0,ok,2,0,0.000,1,-0.2213,-0.22,-1.03,11.84,7,0.126,8.21
1.1753,-0.05760,0.00175,0.16406,0.00000,0.00000,0.00000,48,-12,53,5,79,4,53,0,ok,2,0,0.000,1,-0.2250,-0.22,-1.03,11.84,7,0.139,8.21
1.1787,-0.05760,0.00175,0.16406,0.00000,0.00000,0.00000,46,-11,54,6,78,2,53,0,ok,2,0,0.000,1,-0.2288,-0.22,-1.03,11.84,7,0.152,8.21
1.1912,-0.05760,0.00175,0.16406,0.00000,0.00000,0.00000,44,-11,54,7,77,-1,54,1,ok,2,0,0.000,1,-0.2325,-0.22,-1.03,11.84,7,0.165,8.21
1.2113,-0.05760,0.00175,0.16406,0.00000,0.00000,0.00000,42,-11,56,7,76,-4,54,0,ok,2,0,0.000,1,-0.2363,-0.22,-1.03,11.84,7,0.177,8.21
1.2163,-0.05760,0.00175,0.16406,0.00000,0.00000,0.00000,41,-10,56,7,75,-5,56,0,ok,2,0,0.000,1,-0.2400,-0.22,-1.03,11.84,7,0.190,8.21
1.2289,0.06458,-0.02443,0.16057,0.00000,0.00000,0.00000,39,-9,57,7,74,-8,56,-1,ok,2,0,0.000,1,-0.2438,-0.18,0.86,9.83,8,0.000,8.21
1.2513,0.06458,-0.02443,0.16057,0.00000,0.00000,0.00000,36,-8,58,8,71,-7,57,0,ok,2,0,0.000,1,-0.2475,-0.18,0.86,9.83,8,0.012,8.21
1.2545,0.06458,-0.02443,0.16057,0.00000,0.00000,0.00000,34,-6,59,8,70,-9,57,0,ok,2,0,0.000,1,-0.2513,-0.18,0.86,9.83,8,0.026,8.21
1.2674,0.06458,-0.02443,0.16057,0.00000,0.00000,0.00000,32,-4,59,9,68,-11,59,0,ok,2,0,0.000,1,-0.2550,-0.18,0.86,9.83,8,0.039,8.21
1.2873,0.06458,-0.02443,0.16057,0.00000,0.00000,0.00000,29,-2,61,10,66,-12,59,0,ok,2,0,0.000,1,-0.2588,-0.18,0.86,9.83,8,0.051,8.21
1.2922,0.06458,-0.02443,0.16057,0.00000,0.00000,0.00000,28,-1,61,11,64,-13,60,0,ok,2,0,0.000,1,-0.2625,-0.18,0.86,9.83,8,0.063,8.21
1.3046,0.06458,-0.02443,0.16057,0.00000,0.00000,0.00000,27,1,62,11,62,-13,63,-3,ok,2,0,0.000,1,-0.2663,-0.18,0.86,9.83,8,0.076,8.21
1.3273,0.06458,-0.02443,0.16057,0.00000,0.00000,0.00000,25,3,63,12,60,-14,63,-2,ok,2,0,0.000,1,-0.2700,-0.18,0.86,9.83,8,0.089,8.21
1.3305,0.06458,-0.02443,0.16057,0.00000,0.00000,0.00000,24,7,63,13,58,-15,64,-2,ok,2,0,0.000,1,-0.2738,-0.18,0.86,9.83,8,0.102,8.21
1.3432,0.06458,-0.02443,0.16057,0.00000,0.00000,0.00000,23,10,63,14,55,-14,65,-1,ok,2,0,0.000,1,-0.2775,-0.18,0.86,9.83,8,0.114,8.21
1.3633,0.06458,-0.02443,0.16057,0.00000,0.00000,0.00000,22,13,64,14,52,-13,65,-1,ok,2,0,0.000,1,-0.2812,-0.18,0.86,9.83,8,0.127,8.21
1.3681,0.06458,-0.02443,0.16057,0.00000,0.00000,0.00000,23,13,64,15,50,-13,66,0,ok,2,0,0.000,1,-0.2850,-0.18,0.86,9.83,8,0.139,8.21
1.3806,0.06458,-0.02443,0.16057,0.00000,0.00000,0.00000,23,13,64,17,47,-12,67,-1,ok,2,0,0.000,1,-0.2887,-0.18,0.86,9.83,8,0.152,8.21
1.4033,0.06458,-0.02443,0.16057,0.00000,0.00000,0.00000,25,12,65,17,44,-12,68,0,ok,2,0,0.000,1,-0.2925,-0.18,0.86,9.83,8,0.164,8.21
1.4064,0.06458,-0.02443,0.16057,0.00000,0.00000,0.00000,25,12,65,18,41,-10,69,0,ok,2,0,0.000,1,-0.2962,-0.18,0.86,9.83,8,0.178,8.21
1.4194,0.06458,-0.02443,0.16057,0.00000,0.00000,0.00000,26,11,65,19,38,-10,69,1,ok,4,0,0.000,1,-0.3000,-0.18,0.86,9.83,8,0.191,8.21
1.4393,0.01745,0.01920,0.16755,0.00000,0.00000,0.00000,28,10,66,19,35,-8,69,2,ok,4,0,0.000,1,-0.3037,-0.29,-0.15,7.86,9,0.000,8.21
1.4441,0.01745,0.01920,0.16755,0.00000,0.00000,0.00000,28,10,66,20,33,-7,70,3,ok,4,0,0.000,1,-0.3075,-0.29,-0.15,7.86,9,0.012,8.21
1.4566,0.01745,0.01920,0.16755,0.00000,0.00000,0.00000,29,9,66,21,31,-5,71,4,ok,4,0,0.000,1,-0.3112,-0.29,-0.15,7.86,9,0.025,8.21
1.4793,0.01745,0.01920,0.16755,0.00000,0.00000,0.00000,31,8,66,22,29,-2,71,5,ok,4,0,0.000,1,-0.3150,-0.29,-0.15,7.86,9,0.038,8.21
1.4824,0.01745,0.01920,0.16755,0.00000,0.00000,0.00000,32,7,65,23,28,0,71,6,ok,4,0,0.000,1,-0.3187,-0.29,-0.15,7.86,9,0.051,8.21
1.4951,0.01745,0.01920,0.16755,0.00000,0.00000,0.00000,32,6,65,24,27,4,71,7,ok,4,0,0.000,1,-0.3225,-0.29,-0.15,7.86,9,0.063,8.21
1.5153,0.01745,0.01920,0.16755,0.00000,0.00000,0.00000,33,6,65,25,26,6,72,8,ok,4,0,0.000,1,-0.3262,-0.29,-0.15,7.86,9,0.076,8.21
1.5201,0.01745,0.01920,0.16755,0.00000,0.00000,0.00000,35,5,64,28,28,6,72,9,ok,4,0,0.000,1,-0.3300,-0.29,-0.15,7.86,9,0.088,8.21
1.5326,0.01745,0.01920,0.16755,0.00000,0.00000,0.00000,35,4,64,29,29,5,72,11,ok,4,0,0.000,1,-0.3337,-0.29,-0.15,7.86,9,0.101,8.21
1.5553,0.01745,0.01920,0.16755,0.00000,0.00000,0.00000,36,4,65,27,30,3,72,12,ok,4,0,0.000,2,-0.3375,-0.29,-0.15,7.86,9,0.113,8.21
1.5584,0.01745,0.01920,0.16755,0.00000,0.00000,0.00000,37,3,68,24,31,3,73,14,ok,4,0,0.000,2,-0.3412,-0.29,-0.15,7.86,9,0.127,8.21
1.5711,0.01745,0.01920,0.16755,0.00000,0.00000,0.00000,38,3,70,21,32,2,73,15,ok,4,0,0.000,2,-0.3450,-0.29,-0.15,7.86,9,0.140,8.21
1.5913,0.01745,0.01920,0.16755,0.00000,0.00000,0.00000,39,2,71,17,33,2,72,17,ok,4,0,0.000,2,-0.3487,-0.29,-0.15,7.86,9,0.152,8.21
1.5964,0.01745,0.01920,0.16755,0.00000,0.00000,0.00000,40,2,71,15,34,1,72,19,ok,4,0,0.000,2,-0.3525,-0.29,-0.15,7.86,9,0.165,8.21
1.6086,0.01745,0.01920,0.16755,0.00000,0.00000,0.00000,41,1,71,14,37,1,73,20,ok,4,0,0.000,2,-0.3562,-0.29,-0.15,7.86,9,0.177,8.21
1.6313,0.01745,0.01920,0.16755,0.00000,0.00000,0.00000,42,1,71,11,37,1,72,22,ok,4,0,0.000,2,-0.3600,-0.29,-0.15,7.86,9,0.190,8.21
1.6348,-0.08029,-0.05236,0.18326,0.00000,0.00000,0.00000,43,1,71,8,39,2,72,23,ok,4,0,0.000,2,-0.3637,-0.18,-1.64,10.31,10,0.000,8.21
1.6472,-0.08029,-0.05236,0.18326,0.00000,0.00000,0.00000,44,1,71,5,40,0,72,25,ok,4,0,0.000,2,-0.3675,-0.18,-1.64,10.31,10,0.013,8.21
1.6673,-0.08029,-0.05236,0.18326,0.00000,0.00000,0.00000,45,0,70,3,41,1,72,26,ok,4,0,0.000,2,-0.3712,-0.18,-1.64,10.31,10,0.025,8.21
1.6722,-0.08029,-0.05236,0.18326,0.00000,0.00000,0.00000,46,0,69,1,42,0,72,28,ok,4,0,0.000,2,-0.3750,-0.18,-1.64,10.31,10,0.038,8.21
1.6846,-0.08029,-0.05236,0.18326,0.00000,0.00000,0.00000,47,0,68,-1,44,0,72,29,ok,4,0,0.000,2,-0.3787,-0.18,-1.64,10.31,10,0.050,8.21
1.7073,-0.08029,-0.05236,0.18326,0.00000,0.00000,0.00000,47,0,66,-2,45,-1,73,29,ok,4,0,0.001,2,-0.3825,-0.18,-1.64,10.31,10,0.063,8.21
1.7105,-0.08029,-0.05236,0.18326,0.00000,0.00000,0.00000,48,0,65,-4,46,-1,74,28,ok,4,0,0.001,2,-0.3862,-0.18,-1.64,10.31,10,0.076,8.21
1.7233,-0.08029,-0.05236,0.18326,0.00000,0.00000,0.00000,48,0,64,-6,48,-1,76,26,ok,4,0,0.001,2,-0.3900,-0.18,-1.64,10.31,10,0.089,8.21
1.7433,-0.08029,-0.05236,0.18326,0.00000,0.00000,0.00000,49,1,62,-7,48,-1,77,20,ok,4,0,0.001,2,-0.3937,-0.18,-1.64,10.31,10,0.101,8.21
1.7481,-0.08029,-0.05236,0.18326,0.00000,0.00000,0.00000,50,1,59,-8,49,-1,78,17,ok,4,0,0.001,2,-0.3975,-0.18,-1.64,10.31,10,0.114,8.21
1.7606,-0.08029,-0.05236,0.18326,0.00000,0.00000,0.00000,50,1,57,-8,51,-1,80,13,ok,4,0,0.001,2,-0.4012,-0.18,-1.64,10.31,10,0.126,8.21
1.7833,-0.08029,-0.05236,0.18326,0.00000,0.00000,0.00000,50,4,55,-10,52,-1,80,13,ok,4,0,0.001,2,-0.4050,-0.18,-1.64,10.31,10,0.139,8.21
1.7866,-0.08029,-0.05236,0.18326,0.00000,0.00000,0.00000,51,5,52,-9,53,-1,80,10,ok,4,0,0.001,2,-0.4087,-0.18,-1.64,10.31,10,0.152,8.21
1.7991,-0.08029,-0.05236,0.18326,0.00000,0.00000,0.00000,51,4,49,-9,54,-1,80,7,ok,4,0,0.001,2,-0.4125,-0.18,-1.64,10.31,10,0.165,8.21
1.8193,-0.08029,-0.05236,0.18326,0.00000,0.00000,0.00000,52,5,46,-9,55,0,79,3,ok,2,0,0.001,2,-0.4162,-0.18,-1.64,10.31,10,0.177,8.21
1.8242,-0.08029,-0.05236,0.18326,0.00000,0.00000,0.00000,52,6,44,-9,56,0,79,2,ok,2,0,0.001,2,-0.4200,-0.18,-1.64,10.31,10,0.190,8.21
1.8370,-0.10472,-0.05585,0.23911,0.00000,0.00000,0.00000,53,6,42,-9,57,1,78,-2,ok,2,0,0.001,2,-0.4237,0.20,-1.31,10.27,11,0.000,8.21
1.8593,-0.10472,-0.05585,0.23911,0.00000,0.00000,0.00000,53,6,39,-8,58,0,78,-3,ok,2,0,0.001,2,-0.4275,0.20,-1.31,10.27,11,0.012,8.21
1.8628,-0.10472,-0.05585,0.23911,0.00000,0.00000,0.00000,54,7,36,-7,58,0,76,-5,ok,2,0,0.001,2,-0.4312,0.20,-1.31,10.27,11,0.026,8.21
1.8753,-0.10472,-0.05585,0.23911,0.00000,0.00000,0.00000,54,8,33,-6,59,1,74,-7,ok,2,0,0.001,2,-0.4350,0.20,-1.31,10.27,11,0.039,8.21
1.8953,-0.10472,-0.05585,0.23911,0.00000,0.00000,0.00000,54,8,29,-5,60,1,72,-7,ok,2,0,0.001,2,-0.4387,0.20,-1.31,10.27,11,0.051,8.21
1.9002,-0.10472,-0.05585,0.23911,0.00000,0.00000,0.00000,55,9,26,-3,61,1,70,-9,ok,2,0,0.001,2,-0.4425,0.20,-1.31,10.27,11,0.064,8.21
1.9126,-0.10472,-0.05585,0.23911,0.00000,0.00000,0.00000,56,10,22,-1,62,0,69,-11,ok,2,0,0.001,2,-0.4462,0.20,-1.31,10.27,11,0.076,8.21
1.9353,-0.10472,-0.05585,0.23911,0.00000,0.00000,0.00000,56,10,20,0,64,-2,67,-12,ok,2,0,0.001,2,-0.4500,0.20,-1.31,10.27,11,0.089,8.21
1.9386,-0.10472,-0.05585,0.23911,0.00000,0.00000,0.00000,57,11,19,1,65,-1,64,-13,ok,2,0,0.001,2,-0.4537,0.20,-1.31,10.27,11,0.102,8.21
1.9511,-0.10472,-0.05585,0.23911,0.00000,0.00000,0.00000,57,12,17,3,65,-1,63,-14,ok,2,0,0.001,2,-0.4575,0.20,-1.31,10.27,11,0.114,8.21
1.9713,-0.10472,-0.05585,0.23911,0.00000,0.00000,0.00000,57,12,15,7,66,-1,60,-14,ok,2,0,0.001,2,-0.4612,0.20,-1.31,10.27,11,0.127,8.21
1.9763,-0.10472,-0.05585,0.23911,0.00000,0.00000,0.00000,57,13,13,10,66,0,58,-15,ok,2,0,0.001,2,-0.4650,0.20,-1.31,10.27,11,0.139,8.21
1.9888,-0.10472,-0.05585,0.23911,0.00000,0.00000,0.00000,57,14,11,12,67,0,55,-13,ok,2,0,0.001,2,-0.4687,0.20,-1.31,10.27,11,0.152,8.21
2.0113,-0.10472,-0.05585,0.23911,0.00000,0.00000,0.00000,57,15,13,13,67,0,52,-13,ok,2,0,0.001,2,-0.4725,0.20,-1.31,10.27,11,0.165,8.21
2.0144,-0.10472,-0.05585,0.23911,0.00000,0.00000,0.00000,57,16,13,13,68,0,50,-12,ok,2,0,0.001,2,-0.4762,0.20,-1.31,10.27,11,0.178,8.21
2.0274,-0.10472,-0.05585,0.23911,0.00000,0.00000,0.00000,58,17,14,11,69,0,47,-11,ok,2,0,0.001,2,-0.4800,0.20,-1.31,10.27,11,0.191,8.21
2.0473,-0.02094,0.04712,0.21293,0.00000,0.00000,0.00000,58,18,15,11,69,1,45,-11,ok,2,0,0.001,2,-0.4762,0.70,-0.41,11.07,12,0.000,8.21
2.0521,-0.02094,0.04712,0.21293,0.00000,0.00000,0.00000,58,18,16,10,69,2,41,-10,ok,2,0,0.001,2,-0.4736,0.70,-0.41,11.07,12,0.012,8.21
2.0646,-0.02094,0.04712,0.21293,0.00000,0.00000,0.00000,58,18,17,9,70,3,39,-9,ok,2,0,0.001,2,-0.4743,0.70,-0.41,11.07,12,0.025,8.21
2.0873,-0.02094,0.04712,0.21293,0.00000,0.00000,0.00000,58,20,18,8,70,4,35,-7,ok,2,0,0.001,2,-0.4751,0.70,-0.41,11.07,12,0.037,8.21
2.0904,-0.02094,0.04712,0.21293,0.00000,0.00000,0.00000,59,21,20,7,71,5,34,-6,ok,2,0,0.001,2,-0.4759,0.70,-0.41,11.07,12,0.051,8.21
2.1032,-0.02094,0.04712,0.21293,0.00000,0.00000,0.00000,59,22,21,6,71,6,31,-4,ok,2,0,0.001,2,-0.4767,0.70,-0.41,11.07,12,0.063,8.21
2.1233,-0.02094,0.04712,0.21293,0.00000,0.00000,0.00000,58,23,22,6,71,7,29,-1,ok,2,0,0.001,2,-0.4774,0.70,-0.41,11.07,12,0.076,8.21
2.1281,-0.02094,0.04712,0.21293,0.00000,0.00000,0.00000,58,24,23,5,72,8,28,1,ok,2,0,0.001,2,-0.4782,0.70,-0.41,11.07,12,0.088,8.21
2.1406,-0.02094,0.04712,0.21293,0.00000,0.00000,0.00000,58,25,25,5,72,9,27,5,ok,2,0,0.001,2,-0.4790,0.70,-0.41,11.07,12,0.101,8.21
2.1633,-0.02094,0.04712,0.21293,0.00000,0.00000,0.00000,58,28,26,4,72,10,26,7,ok,2,0,0.001,2,-0.4798,0.70,-0.41,11.07,12,0.113,8.21
2.1667,-0.02094,0.04712,0.21293,0.00000,0.00000,0.00000,57,29,27,3,71,12,29,6,ok,2,0,0.001,2,-0.4805,0.70,-0.41,11.07,12,0.127,8.21
2.1792,-0.02094,0.04712,0.21293,0.00000,0.00000,0.00000,58,28,28,3,72,13,29,6,ok,2,0,0.001,2,-0.4813,0.70,-0.41,11.07,12,0.140,8.21
2.1993,-0.02094,0.04712,0.21293,0.00000,0.00000,0.00000,59,25,30,2,72,15,30,3,ok,2,0,0.001,2,-0.4821,0.70,-0.41,11.07,12,0.152,8.21
2.2041,-0.02094,0.04712,0.21293,0.00000,0.00000,0.00000,60,21,31,2,72,16,31,3,ok,2,0,0.001,2,-0.4829,0.70,-0.41,11.07,12,0.164,8.21
2.2166,-0.02094,0.04712,0.21293,0.00000,0.00000,0.00000,61,17,33,2,72,18,33,3,ok,2,0,0.001,2,-0.4836,0.70,-0.41,11.07,12,0.177,8.21
2.2393,-0.02094,0.04712,0.21293,0.00000,0.00000,0.00000,61,15,34,2,72,18,34,2,ok,2,0,0.001,2,-0.4844,0.70,-0.41,11.07,12,0.189,8.21
2.2428,-0.12566,0.01222,0.26704,0.00000,0.00000,0.00000,61,14,35,1,71,21,36,1,ok,2,0,0.001,2,-0.4882,-0.98,-1.17,10.04,13,0.000,8.21
2.2553,-0.12566,0.01222,0.26704,0.00000,0.00000,0.00000,61,11,36,1,71,22,38,1,ok,2,0,0.001,2,-0.4919,-0.98,-1.17,10.04,13,0.013,8.21
2.2753,-0.12566,0.01222,0.26704,0.00000,0.00000,0.00000,60,7,38,2,71,23,39,2,ok,2,0,0.001,2,-0.4957,-0.98,-1.17,10.04,13,0.025,8.21
2.2802,-0.12566,0.01222,0.26704,0.00000,0.00000,0.00000,60,4,39,2,72,25,40,2,ok,2,0,0.001,2,-0.4994,-0.98,-1.17,10.04,13,0.038,8.21
2.2926,-0.12566,0.01222,0.26704,0.00000,0.00000,0.00000,59,1,41,2,71,27,42,2,ok,2,0,0.001,2,-0.5032,-0.98,-1.17,10.04,13,0.050,8.21
2.3193,-0.12566,0.01222,0.26704,0.00000,0.00000,0.00000,58,-1,42,1,71,28,42,2,ok,2,0,0.001,2,-0.5069,-0.98,-1.17,10.04,13,0.063,8.21
2.3226,-0.12566,0.01222,0.26704,0.00000,0.00000,0.00000,58,-3,44,2,71,28,43,1,ok,2,0,0.001,2,-0.5107,-0.98,-1.17,10.04,13,0.080,8.21
2.3352,-0.12566,0.01222,0.26704,0.00000,0.00000,0.00000,57,-4,44,2,73,28,45,1,ok,2,0,0.001,2,-0.5144,-0.98,-1.17,10.04,13,0.093,8.21
2.3553,-0.12566,0.01222,0.26704,0.00000,0.00000,0.00000,56,-6,46,2,74,26,46,0,ok,2,0,0.001,2,-0.5182,-0.98,-1.17,10.04,13,0.105,8.21
2.3601,-0.12566,0.01222,0.26704,0.00000,0.00000,0.00000,56,-9,47,2,76,21,47,0,ok,2,0,0.001,2,-0.5219,-0.98,-1.17,10.04,13,0.118,8.21
2.3726,-0.12566,0.01222,0.26704,0.00000,0.00000,0.00000,55,-9,49,3,77,16,48,0,ok,2,0,0.001,2,-0.5257,-0.98,-1.17,10.04,13,0.130,8.21
2.3953,-0.12566,0.01222,0.26704,0.00000,0.00000,0.00000,53,-11,50,3,79,14,48,0,ok,2,0,0.001,2,-0.5294,-0.98,-1.17,10.04,13,0.143,8.21
2.3984,-0.12566,0.01222,0.26704,0.00000,0.00000,0.00000,52,-11,50,3,79,13,49,0,ok,2,0,0.001,2,-0.5332,-0.98,-1.17,10.04,13,0.156,8.21
2.4111,-0.12566,0.01222,0.26704,0.00000,0.00000,0.00000,51,-12,50,5,79,10,50,0,ok,2,0,0.001,2,-0.5369,-0.98,-1.17,10.04,13,0.169,8.21
2.4313,-0.12566,0.01222,0.26704,0.00000,0.00000,0.00000,50,-12,52,6,79,7,51,0,ok,2,0,0.001,2,-0.5407,-0.98,-1.17,10.04,13,0.181,8.21
2.4364,-0.01047,-0.05236,0.28449,0.00000,0.00000,0.00000,49,-12,53,5,79,4,52,0,ok,2,0,0.001,2,-0.5444,-0.62,-0.81,9.73,14,0.000,8.21
2.4486,-0.01047,-0.05236,0.28449,0.00000,0.00000,0.00000,48,-11,54,6,78,2,53,0,ok,2,0,0.001,2,-0.5482,-0.62,-0.81,9.73,14,0.013,8.21
2.4713,-0.01047,-0.05236,0.28449,0.00000,0.00000,0.00000,46,-11,54,7,77,-1,54,0,ok,2,0,0.001,2,-0.5519,-0.62,-0.81,9.73,14,0.025,8.21
2.4744,-0.01047,-0.05236,0.28449,0.00000,0.00000,0.00000,46,-11,56,7,76,-4,54,-1,ok,2,0,0.001,2,-0.5557,-0.62,-0.81,9.73,14,0.038,8.21
2.4871,-0.01047,-0.05236,0.28449,0.00000,0.00000,0.00000,45,-10,57,7,75,-5,56,0,ok,2,0,0.001,2,-0.5594,-0.62,-0.81,9.73,14,0.051,8.21
2.5073,-0.01047,-0.05236,0.28449,0.00000,0.00000,0.00000,43,-9,58,7,74,-8,56,-1,ok,2,0,0.001,2,-0.5632,-0.62,-0.81,9.73,14,0.064,8.21
2.5121,-0.01047,-0.05236,0.28449,0.00000,0.00000,0.00000,42,-8,58,8,71,-8,57,0,ok,2,0,0.001,2,-0.5669,-0.62,-0.81,9.73,14,0.076,8.21
2.5246,-0.01047,-0.05236,0.28449,0.00000,0.00000,0.00000,41,-6,59,8,70,-10,57,0,ok,2,0,0.001,2,-0.5707,-0.62,-0.81,9.73,14,0.089,8.21
2.5473,-0.01047,-0.05236,0.28449,0.00000,0.00000,0.00000,40,-4,59,9,69,-12,58,0,ok,2,0,0.001,2,-0.5744,-0.62,-0.81,9.73,14,0.101,8.21
2.5504,-0.01047,-0.05236,0.28449,0.00000,0.00000,0.00000,38,-2,60,11,66,-13,59,0,ok,2,0,0.001,3,-0.5782,-0.62,-0.81,9.73,14,0.114,8.21
2.5631,-0.01047,-0.05236,0.28449,0.00000,0.00000,0.00000,37,-1,61,11,64,-14,60,0,ok,2,0,0.001,3,-0.5819,-0.62,-0.81,9.73,14,0.127,8.21
2.5833,-0.01047,-0.05236,0.28449,0.00000,0.00000,0.00000,37,1,62,11,62,-14,63,-3,ok,2,0,0.001,3,-0.5857,-0.62,-0.81,9.73,14,0.140,8.21
2.5883,-0.01047,-0.05236,0.28449,0.00000,0.00000,0.00000,36,3,63,12,59,-15,63,-2,ok,2,0,0.001,3,-0.5894,-0.62,-0.81,9.73,14,0.152,8.21
2.6010,-0.01047,-0.05236,0.28449,0.00000,0.00000,0.00000,35,6,63,13,58,-15,64,-2,ok,2,0,0.001,3,-0.5932,-0.62,-0.81,9.73,14,0.165,8.21
2.6233,-0.01047,-0.05236,0.28449,0.00000,0.00000,0.00000,35,10,63,14,55,-14,65,-1,ok,2,0,0.001,3,-0.5969,-0.62,-0.81,9.73,14,0.177,8.21
2.6266,-0.01047,-0.05236,0.28449,0.00000,0.00000,0.00000,34,12,64,15,52,-14,65,-1,ok,2,0,0.001,3,-0.6000,-0.62,-0.81,9.73,14,0.190,8.21
2.6395,0.00873,-0.00524,0.30718,0.00000,0.00000,0.00000,35,13,64,16,50,-14,66,0,ok,2,0,0.001,3,-0.6000,0.46,-0.11,9.75,15,0.000,8.21
2.6593,0.00873,-0.00524,0.30718,0.00000,0.00000,0.00000,35,13,64,17,47,-12,67,-1,ok,2,0,0.001,3,-0.6000,0.46,-0.11,9.75,15,0.013,8.21
2.6642,0.00873,-0.00524,0.30718,0.00000,0.00000,0.00000,36,12,65,17,44,-12,68,0,ok,2,0,0.001,3,-0.6000,0.46,-0.11,9.75,15,0.025,8.21
2.6768,0.00873,-0.00524,0.30718,0.00000,0.00000,0.00000,36,12,65,18,41,-10,68,0,ok,2,0,0.001,3,-0.6000,0.46,-0.11,9.75,15,0.038,8.21
2.6993,0.00873,-0.00524,0.30718,0.00000,0.00000,0.00000,36,11,65,19,38,-10,69,2,ok,2,0,0.001,3,-0.6000,0.46,-0.11,9.75,15,0.050,8.21
2.7026,0.00873,-0.00524,0.30718,0.00000,0.00000,0.00000,37,10,66,19,35,-8,69,2,ok,2,0,0.001,3,-0.6000,0.46,-0.11,9.75,15,0.063,8.21
2.7151,0.00873,-0.00524,0.30718,0.00000,0.00000,0.00000,37,10,66,20,33,-7,70,3,ok,2,0,0.001,3,-0.6000,0.46,-0.11,9.75,15,0.076,8.21
2.7353,0.00873,-0.00524,0.30718,0.00000,0.00000,0.00000,38,9,66,21,32,-6,70,4,ok,2,0,0.001,3,-0.6000,0.46,-0.11,9.75,15,0.088,8.21
2.7402,0.00873,-0.00524,0.30718,0.00000,0.00000,0.00000,39,8,66,22,29,-2,71,5,ok,2,0,0.001,3,-0.6000,0.46,-0.11,9.75,15,0.101,8.21
2.7526,0.00873,-0.00524,0.30718,0.00000,0.00000,0.00000,39,7,65,23,28,0,71,6,ok,2,0,0.001,3,-0.6000,0.46,-0.11,9.75,15,0.114,8.21
2.7753,0.00873,-0.00524,0.30718,0.00000,0.00000,0.00000,40,6,65,24,27,3,71,7,ok,2,0,0.001,3,-0.6000,0.46,-0.11,9.75,15,0.126,8.21
2.7785,0.00873,-0.00524,0.30718,0.00000,0.00000,0.00000,40,6,65,25,26,6,72,8,ok,2,0,0.001,3,-0.6000,0.46,-0.11,9.75,15,0.139,8.21
2.7911,0.00873,-0.00524,0.30718,0.00000,0.00000,0.00000,41,5,64,28,28,5,72,9,ok,2,0,0.001,3,-0.6000,0.46,-0.11,9.75,15,0.152,8.21
2.8113,0.00873,-0.00524,0.30718,0.00000,0.00000,0.00000,41,4,64,29,29,5,72,11,ok,2,0,0.001,3,-0.6000,0.46,-0.11,9.75,15,0.165,8.21
2.8161,0.00873,-0.00524,0.30718,0.00000,0.00000,0.00000,42,4,65,27,30,3,72,12,ok,2,0,0.001,3,-0.6000,0.46,-0.11,9.75,15,0.177,8.21
2.8288,0.00873,-0.00524,0.30718,0.00000,0.00000,0.00000,42,3,68,24,31,2,73,14,ok,2,0,0.001,3,-0.6000,0.46,-0.11,9.75,15,0.189,8.21
2.8513,-0.07854,-0.06283,0.30020,0.00000,0.00000,0.00000,43,3,70,21,32,2,73,15,ok,2,0,0.001,3,-0.6000,0.00,0.44,9.63,16,0.000,8.21
2.8547,-0.07854,-0.06283,0.30020,0.00000,0.00000,0.00000,43,2,71,17,33,1,72,17,ok,2,0,0.001,3,-0.6000,0.00,0.44,9.63,16,0.013,8.21
2.8672,-0.07854,-0.06283,0.30020,0.00000,0.00000,0.00000,44,2,71,15,34,0,72,19,ok,2,0,0.001,3,-0.6000,0.00,0.44,9.63,16,0.026,8.21
2.8873,-0.07854,-0.06283,0.30020,0.00000,0.00000,0.00000,44,1,71,14,37,0,73,20,ok,2,0,0.001,3,-0.6000,0.00,0.44,9.63,16,0.039,8.21
2.8922,-0.07854,-0.06283,0.30020,0.00000,0.00000,0.00000,45,1,71,11,37,0,72,22,ok,2,0,0.001,3,-0.6000,0.00,0.44,9.63,16,0.051,8.21
2.9046,-0.07854,-0.06283,0.30020,0.00000,0.00000,0.00000,46,1,71,8,39,1,72,23,ok,2,0,0.001,3,-0.6000,0.00,0.44,9.63,16,0.064,8.21
2.9273,-0.07854,-0.06283,0.30020,0.00000,0.00000,0.00000,46,1,71,5,40,0,72,25,ok,2,0,0.001,3,-0.6000,0.00,0.44,9.63,16,0.076,8.21
2.9306,-0.07854,-0.06283,0.30020,0.00000,0.00000,0.00000,47,0,70,3,41,1,72,26,ok,2,0,0.001,3,-0.6000,0.00,0.44,9.63,16,0.089,8.21
2.9432,-0.07854,-0.06283,0.30020,0.00000,0.00000,0.00000,47,0,69,1,42,0,72,28,ok,2,0,0.001,3,-0.6000,0.00,0.44,9.63,16,0.102,8.21
2.9633,-0.07854,-0.06283,0.30020,0.00000,0.00000,0.00000,48,0,68,-1,44,0,71,29,ok,2,0,0.001,3,-0.6000,0.00,0.44,9.63,16,0.115,8.21
2.9681,-0.07854,-0.06283,0.30020,0.00000,0.00000,0.00000,48,0,66,-2,45,-1,72,29,ok,2,0,0.001,3,-0.6000,0.00,0.44,9.63,16,0.127,8.21
2.9806,-0.07854,-0.06283,0.30020,0.00000,0.00000,0.00000,48,0,65,-4,46,-1,73,28,ok,2,0,0.001,3,-0.6000,0.00,0.44,9.63,16,0.139,8.21
3.0033,-0.07854,-0.06283,0.30020,0.00000,0.00000,0.00000,49,1,64,-6,48,-1,75,26,ok,2,0,0.001,3,-0.6000,0.00,0.44,9.63,16,0.152,8.21
3.0066,-0.07854,-0.06283,0.30020,0.00000,0.00000,0.00000,50,2,62,-7,48,-1,77,20,ok,2,0,0.001,3,-0.6000,0.00,0.44,9.63,16,0.165,8.21
3.0192,-0.07854,-0.06283,0.30020,0.00000,0.00000,0.00000,50,1,59,-8,49,-1,78,17,ok,2,0,0.001,3,-0.6000,0.00,0.44,9.63,16,0.178,8.21
3.0393,-0.07854,-0.06283,0.30020,0.00000,0.00000,0.00000,50,1,57,-8,51,-1,80,13,ok,2,0,0.001,3,-0.6000,0.00,0.44,9.63,16,0.190,8.21
3.0444,-0.12741,-0.02967,0.34208,0.00000,0.00000,0.00000,50,4,54,-10,52,-1,80,13,ok,2,0,0.001,3,-0.6000,-0.33,-0.67,11.74,17,0.000,8.21
3.0566,-0.12741,-0.02967,0.34208,0.00000,0.00000,0.00000,51,5,51,-9,53,-1,80,10,ok,2,0,0.001,3,-0.6000,-0.33,-0.67,11.74,17,0.013,8.21
3.0793,-0.12741,-0.02967,0.34208,0.00000,0.00000,0.00000,51,4,49,-9,54,-1,80,7,ok,2,0,0.001,3,-0.6000,-0.33,-0.67,11.74,17,0.025,8.21
3.0827,-0.12741,-0.02967,0.34208,0.00000,0.00000,0.00000,51,5,46,-9,55,0,79,4,ok,2,0,0.001,3,-0.6000,-0.33,-0.67,11.74,17,0.038,8.21
3.0952,-0.12741,-0.02967,0.34208,0.00000,0.00000,0.00000,51,6,43,-9,56,0,79,2,ok,2,0,0.001,3,-0.6000,-0.33,-0.67,11.74,17,0.051,8.21
3.1153,-0.12741,-0.02967,0.34208,0.00000,0.00000,0.00000,52,6,41,-9,57,0,78,-2,ok,2,0,0.001,3,-0.6000,-0.33,-0.67,11.74,17,0.064,8.21
3.1203,-0.12741,-0.02967,0.34208,0.00000,0.00000,0.00000,52,6,39,-8,58,0,77,-3,ok,2,0,0.001,3,-0.6000,-0.33,-0.67,11.74,17,0.076,8.21
3.1327,-0.12741,-0.02967,0.34208,0.00000,0.00000,0.00000,53,7,36,-7,58,0,76,-5,ok,2,0,0.001,3,-0.6000,-0.33,-0.67,11.74,17,0.089,8.21
3.1553,-0.12741,-0.02967,0.34208,0.00000,0.00000,0.00000,53,8,33,-6,59,1,74,-7,ok,2,0,0.001,3,-0.6000,-0.33,-0.67,11.74,17,0.101,8.21
3.1585,-0.12741,-0.02967,0.34208,0.00000,0.00000,0.00000,53,8,29,-5,60,1,71,-7,ok,2,0,0.001,3,-0.6000,-0.33,-0.67,11.74,17,0.114,8.21
3.1712,-0.12741,-0.02967,0.34208,0.00000,0.00000,0.00000,54,9,26,-3,61,1,70,-9,ok,2,0,0.001,3,-0.6000,-0.33,-0.67,11.74,17,0.127,8.21
3.1913,-0.12741,-0.02967,0.34208,0.00000,0.00000,0.00000,54,10,22,-1,62,0,69,-11,ok,2,0,0.001,3,-0.6000,-0.33,-0.67,11.74,17,0.140,8.21
3.1962,-0.12741,-0.02967,0.34208,0.00000,0.00000,0.00000,54,10,20,0,64,-2,67,-12,ok,2,0,0.001,3,-0.6000,-0.33,-0.67,11.74,17,0.152,8.21
3.2087,-0.12741,-0.02967,0.34208,0.00000,0.00000,0.00000,55,11,18,1,65,-1,64,-13,ok,2,0,0.001,3,-0.6000,-0.33,-0.67,11.74,17,0.165,8.21
3.2313,-0.12741,-0.02967,0.34208,0.00000,0.00000,0.00000,55,12,16,3,65,-1,63,-13,ok,2,0,0.001,3,-0.6000,-0.33,-0.67,11.74,17,0.177,8.21
3.2345,-0.12741,-0.02967,0.34208,0.00000,0.00000,0.00000,55,12,15,7,66,-1,60,-14,ok,2,0,0.001,3,-0.6000,-0.33,-0.67,11.74,17,0.190,8.21
3.2475,-0.05411,0.01047,0.29147,0.00000,0.00000,0.00000,55,13,13,10,66,0,58,-15,ok,2,0,0.001,3,-0.5962,-0.36,-0.55,9.78,18,0.000,8.21
3.2673,-0.05411,0.01047,0.29147,0.00000,0.00000,0.00000,56,14,11,12,67,0,55,-13,ok,2,0,0.001,3,-0.5925,-0.36,-0.55,9.78,18,0.013,8.21
3.2721,-0.05411,0.01047,0.29147,0.00000,0.00000,0.00000,56,15,13,13,67,0,52,-13,ok,2,0,0.001,3,-0.5887,-0.36,-0.55,9.78,18,0.025,8.21
3.2846,-0.05411,0.01047,0.29147,0.00000,0.00000,0.00000,56,16,13,12,68,1,50,-12,ok,2,0,0.001,3,-0.5850,-0.36,-0.55,9.78,18,0.038,8.21
3.3073,-0.05411,0.01047,0.29147,0.00000,0.00000,0.00000,56,17,14,11,69,1,47,-11,ok,2,0,0.001,3,-0.5812,-0.36,-0.55,9.78,18,0.050,8.21
3.3105,-0.05411,0.01047,0.29147,0.00000,0.00000,0.00000,56,18,15,11,69,2,45,-11,ok,2,0,0.001,3,-0.5775,-0.36,-0.55,9.78,18,0.063,8.21
3.3236,-0.05411,0.01047,0.29147,0.00000,0.00000,0.00000,57,18,16,10,69,2,41,-9,ok,2,0,0.001,3,-0.5737,-0.36,-0.55,9.78,18,0.076,8.21
3.3433,-0.05411,0.01047,0.29147,0.00000,0.00000,0.00000,57,18,17,9,70,3,39,-9,ok,2,0,0.001,3,-0.5700,-0.36,-0.55,9.78,18,0.089,8.21
3.3483,-0.05411,0.01047,0.29147,0.00000,0.00000,0.00000,57,20,18,8,70,4,35,-7,ok,2,0,0.001,3,-0.5662,-0.36,-0.55,9.78,18,0.101,8.21
3.3606,-0.05411,0.01047,0.29147,0.00000,0.00000,0.00000,57,21,20,7,71,5,34,-5,ok,2,0,0.001,3,-0.5625,-0.36,-0.55,9.78,18,0.114,8.21
3.3833,-0.05411,0.01047,0.29147,0.00000,0.00000,0.00000,58,22,21,6,71,6,32,-4,ok,2,0,0.001,3,-0.5587,-0.36,-0.55,9.78,18,0.126,8.21
3.3865,-0.05411,0.01047,0.29147,0.00000,0.00000,0.00000,58,23,22,6,71,7,30,-1,ok,2,0,0.001,3,-0.5550,-0.36,-0.55,9.78,18,0.139,8.21
3.3994,-0.05411,0.01047,0.29147,0.00000,0.00000,0.00000,58,24,23,6,71,8,28,2,ok,2,0,0.001,3,-0.5512,-0.36,-0.55,9.78,18,0.152,8.21
3.4193,-0.05411,0.01047,0.29147,0.00000,0.00000,0.00000,57,25,25,5,72,9,27,5,ok,2,0,0.001,3,-0.5475,-0.36,-0.55,9.78,18,0.165,8.21
3.4242,-0.05411,0.01047,0.29147,0.00000,0.00000,0.00000,57,28,26,5,72,10,27,7,ok,2,0,0.001,3,-0.5437,-0.36,-0.55,9.78,18,0.177,8.21
3.4366,-0.05411,0.01047,0.29147,0.00000,0.00000,0.00000,56,29,27,4,71,12,29,6,ok,2,0,0.001,3,-0.5400,-0.36,-0.55,9.78,18,0.190,8.21
3.4593,-0.09774,-0.00873,0.32987,0.00000,0.00000,0.00000,57,28,28,3,72,13,29,6,ok,2,0,0.001,3,-0.5437,0.61,-1.18,10.73,19,0.000,8.21
3.4626,-0.09774,-0.00873,0.32987,0.00000,0.00000,0.00000,58,25,30,3,72,14,30,4,ok,2,0,0.001,3,-0.5475,0.61,-1.18,10.73,19,0.013,8.21
3.4752,-0.09774,-0.00873,0.32987,0.00000,0.00000,0.00000,59,21,31,2,72,15,31,3,ok,2,0,0.001,3,-0.5512,0.61,-1.18,10.73,19,0.026,8.21
3.4953,-0.09774,-0.00873,0.32987,0.00000,0.00000,0.00000,59,17,33,2,71,17,33,3,ok,2,0,0.001,3,-0.5550,0.61,-1.18,10.73,19,0.039,8.21
3.5001,-0.09774,-0.00873,0.32987,0.00000,0.00000,0.00000,60,15,34,2,72,18,34,2,ok,2,0,0.001,3,-0.5587,0.61,-1.18,10.73,19,0.051,8.21
3.5126,-0.09774,-0.00873,0.32987,0.00000,0.00000,0.00000,59,14,35,1,71,20,36,1,ok,2,0,0.001,3,-0.5625,0.61,-1.18,10.73,19,0.064,8.21
3.5353,-0.09774,-0.00873,0.32987,0.00000,0.00000,0.00000,59,11,37,1,71,21,38,1,ok,2,0,0.001,3,-0.5662,0.61,-1.18,10.73,19,0.076,8.21
3.5387,-0.09774,-0.00873,0.32987,0.00000,0.00000,0.00000,59,7,38,2,71,23,38,2,ok,2,0,0.001,3,-0.5700,0.61,-1.18,10.73,19,0.089,8.21
3.5513,-0.09774,-0.00873,0.32987,0.00000,0.00000,0.00000,59,5,39,2,72,25,40,1,ok,2,0,0.001,3,-0.5737,0.61,-1.18,10.73,19,0.102,8.21
3.5713,-0.09774,-0.00873,0.32987,0.00000,0.00000,0.00000,58,1,41,2,71,27,41,1,ok,2,0,0.001,4,-0.5775,0.61,-1.18,10.73,19,0.115,8.21
3.5764,-0.09774,-0.00873,0.32987,0.00000,0.00000,0.00000,57,-1,42,1,71,28,42,1,ok,2,0,0.001,4,-0.5812,0.61,-1.18,10.73,19,0.127,8.21
3.5887,-0.09774,-0.00873,0.32987,0.00000,0.00000,0.00000,57,-3,44,2,71,28,43,1,ok,2,0,0.001,4,-0.5850,0.61,-1.18,10.73,19,0.140,8.21
3.6113,-0.09774,-0.00873,0.32987,0.00000,0.00000,0.00000,56,-4,44,2,73,28,44,1,ok,2,0,0.001,4,-0.5887,0.61,-1.18,10.73,19,0.152,8.21
3.6145,-0.09774,-0.00873,0.32987,0.00000,0.00000,0.00000,55,-6,46,2,74,25,45,0,ok,2,0,0.001,4,-0.5925,0.61,-1.18,10.73,19,0.165,8.21
3.6272,-0.09774,-0.00873,0.32987,0.00000,0.00000,0.00000,55,-8,47,2,76,21,47,0,ok,2,0,0.001,4,-0.5962,0.61,-1.18,10.73,19,0.178,8.21
3.6473,-0.09774,-0.00873,0.32987,0.00000,0.00000,0.00000,54,-9,48,3,77,16,48,0,ok,2,0,0.001,4,-0.6000,0.61,-1.18,10.73,19,0.190,8.21
3.6525,-0.03665,-0.00000,0.34732,0.00000,0.00000,0.00000,53,-10,50,3,79,13,48,0,ok,2,0,0.001,4,-0.6000,1.00,-0.22,11.91,20,0.000,8.21
3.6646,-0.03665,-0.00000,0.34732,0.00000,0.00000,0.00000,52,-11,50,3,79,13,49,0,ok,2,0,0.001,4,-0.6000,1.00,-0.22,11.91,20,0.013,8.21
3.6873,-0.03665,-0.00000,0.34732,0.00000,0.00000,0.00000,51,-12,50,5,79,11,50,0,ok,2,0,0.001,4,-0.6000,1.00,-0.22,11.91,20,0.025,8.21
3.6904,-0.03665,-0.00000,0.34732,0.00000,0.00000,0.00000,50,-12,52,6,79,7,51,0,ok,2,0,0.001,4,-0.6000,1.00,-0.22,11.91,20,0.038,8.21
3.7034,-0.03665,-0.00000,0.34732,0.00000,0.00000,0.00000,49,-12,53,5,78,4,52,0,ok,2,0,0.001,4,-0.6000,1.00,-0.22,11.91,20,0.051,8.21
3.7233,-0.03665,-0.00000,0.34732,0.00000,0.00000,0.00000,48,-11,54,6,78,2,53,0,ok,2,0,0.001,4,-0.6000,1.00,-0.22,11.91,20,0.064,8.21
3.7281,-0.03665,-0.00000,0.34732,0.00000,0.00000,0.00000,47,-11,54,7,77,-1,54,1,ok,2,0,0.001,4,-0.6000,1.00,-0.22,11.91,20,0.076,8.21
3.7408,-0.03665,-0.00000,0.34732,0.00000,0.00000,0.00000,46,-11,56,7,76,-4,54,0,ok,2,0,0.001,4,-0.6000,1.00,-0.22,11.91,20,0.089,8.21
3.7633,-0.03665,-0.00000,0.34732,0.00000,0.00000,0.00000,45,-10,56,7,75,-5,56,0,ok,2,0,0.001,4,-0.6000,1.00,-0.22,11.91,20,0.101,8.21
3.7665,-0.03665,-0.00000,0.34732,0.00000,0.00000,0.00000,44,-9,57,7,74,-8,56,-1,ok,2,0,0.001,4,-0.6000,1.00,-0.22,11.91,20,0.114,8.21
3.7791,-0.03665,-0.00000,0.34732,0.00000,0.00000,0.00000,43,-8,57,8,71,-8,57,0,ok,2,0,0.001,4,-0.6000,1.00,-0.22,11.91,20,0.127,8.21
3.7993,-0.03665,-0.00000,0.34732,0.00000,0.00000,0.00000,42,-6,58,8,70,-10,57,0,ok,2,0,0.001,4,-0.6000,1.00,-0.22,11.91,20,0.140,8.21
3.8042,-0.03665,-0.00000,0.34732,0.00000,0.00000,0.00000,40,-4,59,9,69,-11,59,1,ok,2,0,0.001,4,-0.6000,1.00,-0.22,11.91,20,0.152,8.21
3.8166,-0.03665,-0.00000,0.34732,0.00000,0.00000,0.00000,39,-2,60,11,66,-13,59,0,ok,2,0,0.001,4,-0.6000,1.00,-0.22,11.91,20,0.165,8.21
3.8393,-0.03665,-0.00000,0.34732,0.00000,0.00000,0.00000,38,-1,61,11,64,-13,60,0,ok,2,0,0.001,4,-0.6000,1.00,-0.22,11.91,20,0.177,8.21
3.8426,-0.03665,-0.00000,0.34732,0.00000,0.00000,0.00000,38,0,62,11,62,-14,63,-3,ok,2,0,0.001,4,-0.6000,1.00,-0.22,11.91,20,0.190,8.21
3.8555,0.02967,0.01745,0.34732,0.00000,0.00000,0.00000,37,3,62,12,60,-14,63,-1,ok,2,0,0.001,4,-0.6000,-1.38,0.29,9.23,21,0.000,8.21
3.8753,0.02967,0.01745,0.34732,0.00000,0.00000,0.00000,36,6,63,13,58,-15,64,-2,ok,2,0,0.001,4,-0.6000,-1.38,0.29,9.23,21,0.013,8.21
3.8802,0.02967,0.01745,0.34732,0.00000,0.00000,0.00000,35,10,63,14,55,-14,65,-1,ok,2,0,0.001,4,-0.6000,-1.38,0.29,9.23,21,0.025,8.21
3.8926,0.02967,0.01745,0.34732,0.00000,0.00000,0.00000,34,12,64,15,52,-13,65,-1,ok,2,0,0.001,4,-0.6000,-1.38,0.29,9.23,21,0.038,8.21
3.9153,0.02967,0.01745,0.34732,0.00000,0.00000,0.00000,35,13,64,16,50,-13,66,0,ok,2,0,0.001,4,-0.6000,-1.38,0.29,9.23,21,0.050,8.21
3.9187,0.02967,0.01745,0.34732,0.00000,0.00000,0.00000,35,13,64,17,47,-12,67,0,ok,2,0,0.001,4,-0.6000,-1.38,0.29,9.23,21,0.063,8.21
3.9312,0.02967,0.01745,0.34732,0.00000,0.00000,0.00000,36,12,65,17,44,-11,68,0,ok,2,0,0.001,4,-0.6000,-1.38,0.29,9.23,21,0.076,8.21
3.9513,0.02967,0.01745,0.34732,0.00000,0.00000,0.00000,36,11,65,18,41,-10,68,0,ok,2,0,0.001,4,-0.6000,-1.38,0.29,9.23,21,0.089,8.21
3.9562,0.02967,0.01745,0.34732,0.00000,0.00000,0.00000,36,11,65,18,38,-10,69,2,ok,2,0,0.001,4,-0.6000,-1.38,0.29,9.23,21,0.101,8.21
3.9686,0.02967,0.01745,0.34732,0.00000,0.00000,0.00000,37,10,65,19,35,-8,69,2,ok,2,0,0.001,4,-0.6000,-1.38,0.29,9.23,21,0.114,8.21
3.9953,0.02967,0.01745,0.34732,0.00000,0.00000,0.00000,37,10,65,20,33,-7,70,3,ok,2,0,0.001,4,-0.6000,-1.38,0.29,9.23,21,0.126,8.21
3.9987,0.02967,0.01745,0.34732,0.00000,0.00000,0.00000,38,8,66,21,32,-5,71,4,ok,2,0,0.001,4,-0.6000,-1.38,0.29,9.23,21,0.143,8.21
4.0112,0.02967,0.01745,0.34732,0.00000,0.00000,0.00000,39,7,66,22,29,-2,72,5,ok,2,0,0.001,4,-0.6000,-1.38,0.29,9.23,21,0.156,8.21
4.0313,0.02967,0.01745,0.34732,0.00000,0.00000,0.00000,39,7,65,23,28,0,71,6,ok,2,0,0.001,4,-0.6000,-1.38,0.29,9.23,21,0.169,8.21
4.0362,0.02967,0.01745,0.34732,0.00000,0.00000,0.00000,40,6,65,24,27,4,71,7,ok,2,0,0.001,4,-0.6000,-1.38,0.29,9.23,21,0.181,8.21
4.0489,-0.06632,-0.05236,0.36128,0.00000,0.00000,0.00000,40,6,65,25,26,6,72,8,ok,2,0,0.001,4,-0.6000,0.36,-0.25,10.43,22,0.000,8.21
4.0713,-0.06632,-0.05236,0.36128,0.00000,0.00000,0.00000,41,5,64,28,28,5,72,9,ok,2,0,0.001,4,-0.6000,0.36,-0.25,10.43,22,0.013,8.21
4.0745,-0.06632,-0.05236,0.36128,0.00000,0.00000,0.00000,41,4,64,29,29,5,72,11,ok,2,0,0.001,4,-0.6000,0.36,-0.25,10.43,22,0.026,8.21
4.0871,-0.06632,-0.05236,0.36128,0.00000,0.00000,0.00000,42,4,65,28,30,3,72,13,ok,2,0,0.001,4,-0.6000,0.36,-0.25,10.43,22,0.038,8.21
4.1073,-0.06632,-0.05236,0.36128,0.00000,0.00000,0.00000,42,3,68,25,31,2,73,15,ok,2,0,0.001,4,-0.6000,0.36,-0.25,10.43,22,0.051,8.21
4.1122,-0.06632,-0.05236,0.36128,0.00000,0.00000,0.00000,43,2,70,21,32,2,73,16,ok,2,0,0.001,4,-0.6000,0.36,-0.25,10.43,22,0.063,8.21
4.1247,-0.06632,-0.05236,0.36128,0.00000,0.00000,0.00000,43,2,71,17,33,1,72,17,ok,2,0,0.001,4,-0.6000,0.36,-0.25,10.43,22,0.076,8.21
4.1473,-0.06632,-0.05236,0.36128,0.00000,0.00000,0.00000,44,2,72,15,34,0,72,19,ok,2,0,0.001,4,-0.6000,0.36,-0.25,10.43,22,0.088,8.21
4.1507,-0.06632,-0.05236,0.36128,0.00000,0.00000,0.00000,44,1,72,15,37,1,73,20,ok,2,0,0.001,4,-0.6000,0.36,-0.25,10.43,22,0.102,8.21
4.1632,-0.06632,-0.05236,0.36128,0.00000,0.00000,0.00000,45,1,72,11,37,1,72,22,ok,2,0,0.001,4,-0.6000,0.36,-0.25,10.43,22,0.115,8.21
4.1833,-0.06632,-0.05236,0.36128,0.00000,0.00000,0.00000,46,1,71,8,39,1,72,23,ok,2,0,0.001,4,-0.6000,0.36,-0.25,10.43,22,0.127,8.21
4.1884,-0.06632,-0.05236,0.36128,0.00000,0.00000,0.00000,46,1,71,5,40,0,72,24,ok,2,0,0.001,4,-0.6000,0.36,-0.25,10.43,22,0.139,8.21
4.2006,-0.06632,-0.05236,0.36128,0.00000,0.00000,0.00000,47,0,70,3,41,1,72,26,ok,2,0,0.001,4,-0.6000,0.36,-0.25,10.43,22,0.152,8.21
4.2233,-0.06632,-0.05236,0.36128,0.00000,0.00000,0.00000,47,0,69,1,42,0,71,28,ok,2,0,0.001,4,-0.6000,0.36,-0.25,10.43,22,0.164,8.21
4.2264,-0.06632,-0.05236,0.36128,0.00000,0.00000,0.00000,48,0,68,-1,44,0,71,29,ok,2,0,0.001,4,-0.6000,0.36,-0.25,10.43,22,0.178,8.21
4.2391,-0.06632,-0.05236,0.36128,0.00000,0.00000,0.00000,48,0,66,-2,45,-1,72,29,ok,2,0,0.001,4,-0.6000,0.36,-0.25,10.43,22,0.190,8.21
4.2593,-0.06632,-0.05236,0.36128,0.00000,0.00000,0.00000,48,1,65,-4,46,-1,73,28,ok,2,0,0.001,4,-0.6000,0.36,-0.25,10.43,22,0.203,8.21
4.2644,-0.16930,-0.02094,0.38572,0.00000,0.00000,0.00000,49,1,64,-6,48,-1,75,26,ok,2,0,0.001,4,-0.6000,0.45,-1.42,9.97,23,0.000,8.21
4.2766,-0.16930,-0.02094,0.38572,0.00000,0.00000,0.00000,50,2,61,-7,48,-1,77,21,ok,2,0,0.001,4,-0.6000,0.45,-1.42,9.97,23,0.013,8.21
4.2993,-0.16930,-0.02094,0.38572,0.00000,0.00000,0.00000,50,1,59,-8,49,-1,78,17,ok,2,0,0.001,4,-0.6000,0.45,-1.42,9.97,23,0.025,8.21
4.3025,-0.16930,-0.02094,0.38572,0.00000,0.00000,0.00000,50,1,56,-8,51,-1,80,14,ok,2,0,0.001,4,-0.6000,0.45,-1.42,9.97,23,0.038,8.21
4.3152,-0.16930,-0.02094,0.38572,0.00000,0.00000,0.00000,50,3,54,-9,52,-1,80,14,ok,2,0,0.001,4,-0.6000,0.45,-1.42,9.97,23,0.051,8.21
4.3353,-0.16930,-0.02094,0.38572,0.00000,0.00000,0.00000,51,4,51,-9,53,-1,80,11,ok,2,0,0.001,4,-0.6000,0.45,-1.42,9.97,23,0.064,8.21
4.3403,-0.16930,-0.02094,0.38572,0.00000,0.00000,0.00000,51,4,49,-9,54,-1,80,7,ok,2,0,0.001,4,-0.6000,0.45,-1.42,9.97,23,0.076,8.21
4.3527,-0.16930,-0.02094,0.38572,0.00000,0.00000,0.00000,51,5,46,-9,55,0,79,4,ok,2,0,0.001,4,-0.6000,0.45,-1.42,9.97,23,0.089,8.21
4.3753,-0.16930,-0.02094,0.38572,0.00000,0.00000,0.00000,51,6,43,-9,56,0,79,2,ok,2,0,0.001,4,-0.6000,0.45,-1.42,9.97,23,0.101,8.21
4.3785,-0.16930,-0.02094,0.38572,0.00000,0.00000,0.00000,52,6,41,-9,57,1,78,-2,ok,2,0,0.001,4,-0.6000,0.45,-1.42,9.97,23,0.114,8.21
4.3911,-0.16930,-0.02094,0.38572,0.00000,0.00000,0.00000,52,6,39,-8,58,0,77,-3,ok,2,0,0.001,4,-0.6000,0.45,-1.42,9.97,23,0.127,8.21
4.4113,-0.16930,-0.02094,0.38572,0.00000,0.00000,0.00000,53,7,36,-7,59,0,76,-5,ok,2,0,0.001,4,-0.6000,0.45,-1.42,9.97,23,0.140,8.21
4.4162,-0.16930,-0.02094,0.38572,0.00000,0.00000,0.00000,53,8,33,-6,59,1,74,-7,ok,2,0,0.001,4,-0.6000,0.45,-1.42,9.97,23,0.152,8.21
4.4287,-0.16930,-0.02094,0.38572,0.00000,0.00000,0.00000,53,8,29,-5,60,1,71,-7,ok,2,0,0.001,4,-0.6000,0.45,-1.42,9.97,23,0.165,8.21
4.4513,-0.16930,-0.02094,0.38572,0.00000,0.00000,0.00000,54,9,26,-3,61,1,70,-9,ok,2,0,0.001,4,-0.6000,0.45,-1.42,9.97,23,0.177,8.21
4.4547,-0.16930,-0.02094,0.38572,0.00000,0.00000,0.00000,54,10,22,-1,62,0,69,-11,ok,2,0,0.001,4,-0.6000,0.45,-1.42,9.97,23,0.190,8.21
4.4675,-0.03316,-0.01222,0.31765,0.00000,0.00000,0.00000,54,10,20,0,64,-2,67,-12,ok,2,0,0.001,4,-0.5962,-0.54,0.10,10.46,24,0.000,8.21
4.4873,-0.03316,-0.01222,0.31765,0.00000,0.00000,0.00000,55,11,19,1,65,-1,64,-13,ok,2,0,0.001,4,-0.5925,-0.54,0.10,10.46,24,0.013,8.21
4.4922,-0.03316,-0.01222,0.31765,0.00000,0.00000,0.00000,55,11,17,3,65,0,63,-14,ok,2,0,0.001,4,-0.5887,-0.54,0.10,10.46,24,0.025,8.21
4.5047,-0.03316,-0.01222,0.31765,0.00000,0.00000,0.00000,55,12,15,7,66,0,60,-14,ok,2,0,0.001,4,-0.5850,-0.54,0.10,10.46,24,0.038,8.21
4.5273,-0.03316,-0.01222,0.31765,0.00000,0.00000,0.00000,55,14,13,10,66,0,58,-15,ok,2,0,0.001,4,-0.5812,-0.54,0.10,10.46,24,0.050,8.21
4.5307,-0.03316,-0.01222,0.31765,0.00000,0.00000,0.00000,55,14,11,12,67,0,55,-13,ok,2,0,0.001,4,-0.5775,-0.54,0.10,10.46,24,0.063,8.21
4.5432,-0.03316,-0.01222,0.31765,0.00000,0.00000,0.00000,56,15,13,12,68,0,52,-13,ok,2,0,0.001,4,-0.5737,-0.54,0.10,10.46,24,0.076,8.21
4.5633,-0.03316,-0.01222,0.31765,0.00000,0.00000,0.00000,56,16,12,12,69,1,50,-12,ok,2,0,0.001,4,-0.5700,-0.54,0.10,10.46,24,0.089,8.21
4.5681,-0.03316,-0.01222,0.31765,0.00000,0.00000,0.00000,57,17,14,11,69,1,47,-11,ok,2,0,0.001,4,-0.5662,-0.54,0.10,10.46,24,0.101,8.21
4.5808,-0.03316,-0.01222,0.31765,0.00000,0.00000,0.00000,57,18,15,10,69,2,45,-11,ok,2,0,0.001,5,-0.5625,-0.54,0.10,10.46,24,0.114,8.21
4.6033,-0.03316,-0.01222,0.31765,0.00000,0.00000,0.00000,57,18,16,10,69,2,41,-9,ok,2,0,0.001,5,-0.5587,-0.54,0.10,10.46,24,0.126,8.21
4.6065,-0.03316,-0.01222,0.31765,0.00000,0.00000,0.00000,57,19,17,9,70,3,39,-9,ok,2,0,0.001,5,-0.5550,-0.54,0.10,10.46,24,0.139,8.21
4.6192,-0.03316,-0.01222,0.31765,0.00000,0.00000,0.00000,57,20,18,9,70,4,35,-7,ok,2,0,0.001,5,-0.5512,-0.54,0.10,10.46,24,0.152,8.21
4.6393,-0.03316,-0.01222,0.31765,0.00000,0.00000,0.00000,58,21,20,8,71,5,34,-6,ok,2,0,0.001,5,-0.5475,-0.54,0.10,10.46,24,0.165,8.21
4.6442,-0.03316,-0.01222,0.31765,0.00000,0.00000,0.00000,58,22,21,7,71,6,32,-4,ok,2,0,0.001,5,-0.5437,-0.54,0.10,10.46,24,0.177,8.21
4.6570,-0.03316,-0.01222,0.31765,0.00000,0.00000,0.00000,58,23,22,6,71,7,30,-1,ok,2,0,0.001,5,-0.5400,-0.54,0.10,10.46,24,0.190,8.21
4.6793,0.04712,-0.05411,0.31416,0.00000,0.00000,0.00000,58,24,23,6,71,8,28,1,ok,2,0,0.001,5,-0.5362,-1.17,0.66,10.86,25,0.000,8.21
4.6825,0.04712,-0.05411,0.31416,0.00000,0.00000,0.00000,57,25,25,5,71,9,27,5,ok,2,0,0.001,5,-0.5325,-1.17,0.66,10.86,25,0.013,8.21
4.6952,0.04712,-0.05411,0.31416,0.00000,0.00000,0.00000,57,28,26,5,71,10,27,7,ok,2,0,0.001,5,-0.5287,-1.17,0.66,10.86,25,0.026,8.21
4.7153,0.04712,-0.05411,0.31416,0.00000,0.00000,0.00000,57,29,28,4,71,12,29,5,ok,2,0,0.001,5,-0.5250,-1.17,0.66,10.86,25,0.038,8.21
4.7202,0.04712,-0.05411,0.31416,0.00000,0.00000,0.00000,58,28,29,3,71,13,29,5,ok,2,0,0.001,5,-0.5212,-1.17,0.66,10.86,25,0.051,8.21
4.7327,0.04712,-0.05411,0.31416,0.00000,0.00000,0.00000,59,25,30,3,72,14,30,3,ok,2,0,0.001,5,-0.5175,-1.17,0.66,10.86,25,0.063,8.21
4.7553,0.04712,-0.05411,0.31416,0.00000,0.00000,0.00000,60,21,31,2,71,15,31,2,ok,2,0,0.001,5,-0.5137,-1.17,0.66,10.86,25,0.076,8.21
4.7585,0.04712,-0.05411,0.31416,0.00000,0.00000,0.00000,60,17,33,2,71,17,33,2,ok,2,0,0.001,5,-0.5100,-1.17,0.66,10.86,25,0.089,8.21
4.7712,0.04712,-0.05411,0.31416,0.00000,0.00000,0.00000,61,15,34,2,72,18,34,2,ok,2,0,0.001,5,-0.5062,-1.17,0.66,10.86,25,0.102,8.21
4.7913,0.04712,-0.05411,0.31416,0.00000,0.00000,0.00000,60,14,35,1,71,20,36,1,ok,2,0,0.001,5,-0.5025,-1.17,0.66,10.86,25,0.114,8.21
4.7965,0.04712,-0.05411,0.31416,0.00000,0.00000,0.00000,61,11,37,2,71,21,38,1,ok,2,0,0.001,5,-0.4987,-1.17,0.66,10.86,25,0.127,8.21
4.8088,0.04712,-0.05411,0.31416,0.00000,0.00000,0.00000,60,7,38,2,71,23,39,2,ok,2,0,0.001,5,-0.4950,-1.17,0.66,10.86,25,0.139,8.21
4.8313,0.04712,-0.05411,0.31416,0.00000,0.00000,0.00000,60,4,39,2,71,25,40,1,ok,2,0,0.001,5,-0.4912,-1.17,0.66,10.86,25,0.152,8.21
4.8345,0.04712,-0.05411,0.31416,0.00000,0.00000,0.00000,60,1,41,2,70,27,42,1,ok,2,0,0.001,5,-0.4875,-1.17,0.66,10.86,25,0.165,8.21
4.8471,0.04712,-0.05411,0.31416,0.00000,0.00000,0.00000,59,-1,42,1,70,28,43,1,ok,2,0,0.001,5,-0.4855,-1.17,0.66,10.86,25,0.178,8.21
4.8673,0.04712,-0.05411,0.31416,0.00000,0.00000,0.00000,58,-3,44,2,71,28,44,1,ok,2,0,0.001,5,-0.4870,-1.17,0.66,10.86,25,0.190,8.21
4.8724,-0.04538,-0.10297,0.32987,0.00000,0.00000,0.00000,57,-4,44,2,72,28,45,0,ok,2,0,0.001,5,-0.4907,0.32,-1.24,8.34,26,0.000,8.21
4.8846,-0.04538,-0.10297,0.32987,0.00000,0.00000,0.00000,57,-6,46,2,73,25,46,0,ok,2,0,0.001,5,-0.4945,0.32,-1.24,8.34,26,0.013,8.21
4.9073,-0.04538,-0.10297,0.32987,0.00000,0.00000,0.00000,57,-8,47,2,76,20,47,0,ok,2,0,0.001,5,-0.4982,0.32,-1.24,8.34,26,0.025,8.21
4.9105,-0.04538,-0.10297,0.32987,0.00000,0.00000,0.00000,55,-9,48,3,77,16,48,0,ok,2,0,0.001,5,-0.5020,0.32,-1.24,8.34,26,0.038,8.21
4.9236,-0.04538,-0.10297,0.32987,0.00000,0.00000,0.00000,54,-10,49,3,78,13,49,0,ok,2,0,0.001,5,-0.5057,0.32,-1.24,8.34,26,0.051,8.21
4.9753,-0.04538,-0.10297,0.32987,0.00000,0.00000,0.00000,53,-11,50,3,78,12,49,0,ok,2,0,0.001,5,-0.5095,0.32,-1.24,8.34,26,0.092,8.21
4.9789,-0.04538,-0.10297,0.32987,0.00000,0.00000,0.00000,51,-12,51,5,78,10,51,0,ok,2,0,0.001,5,-0.5132,0.32,-1.24,8.34,26,0.107,8.21
4.9919,-0.04538,-0.10297,0.32987,0.00000,0.00000,0.00000,50,-11,52,6,78,7,52,0,ok,2,0,0.001,5,-0.5170,0.32,-1.24,8.34,26,0.119,8.21
5.0113,-0.04538,-0.10297,0.32987,0.00000,0.00000,0.00000,49,-12,53,6,78,3,53,0,ok,2,0,0.001,5,-0.5207,0.32,-1.24,8.34,26,0.132,8.21
5.0231,-0.04538,-0.10297,0.32987,0.00000,0.00000,0.00000,48,-11,54,6,77,1,53,0,ok,2,0,0.001,5,-0.5245,0.32,-1.24,8.34,26,0.144,8.21
5.0288,-0.04538,-0.10297,0.32987,0.00000,0.00000,0.00000,47,-11,54,7,76,-2,54,0,ok,2,0,0.001,5,-0.5282,0.32,-1.24,8.34,26,0.157,8.21
5.0513,-0.04538,-0.10297,0.32987,0.00000,0.00000,0.00000,46,-11,56,7,76,-4,54,-1,ok,2,0,0.001,5,-0.5320,0.32,-1.24,8.34,26,0.169,8.21
5.0545,-0.04538,-0.10297,0.32987,0.00000,0.00000,0.00000,44,-10,56,7,75,-6,56,0,ok,2,0,0.001,5,-0.5357,0.32,-1.24,8.34,26,0.182,8.21
5.0674,0.04887,0.03316,0.35256,0.00000,0.00000,0.00000,43,-9,58,8,73,-9,56,-1,ok,2,0,0.001,5,-0.5395,-0.08,0.55,9.35,27,0.000,8.21
5.0873,0.04887,0.03316,0.35256,0.00000,0.00000,0.00000,42,-8,58,8,70,-8,57,0,ok,2,0,0.001,5,-0.5432,-0.08,0.55,9.35,27,0.013,8.21
5.0921,0.04887,0.03316,0.35256,0.00000,0.00000,0.00000,40,-6,58,8,69,-10,57,0,ok,2,0,0.001,5,-0.5470,-0.08,0.55,9.35,27,0.025,8.21
5.1047,0.04887,0.03316,0.35256,0.00000,0.00000,0.00000,39,-4,59,9,68,-11,59,0,ok,2,0,0.001,5,-0.5507,-0.08,0.55,9.35,27,0.038,8.21
5.1273,0.04887,0.03316,0.35256,0.00000,0.00000,0.00000,38,-1,60,10,66,-13,59,0,ok,2,0,0.001,5,-0.5545,-0.08,0.55,9.35,27,0.050,8.21
5.1308,0.04887,0.03316,0.35256,0.00000,0.00000,0.00000,37,-1,61,11,64,-13,60,0,ok,2,0,0.001,5,-0.5582,-0.08,0.55,9.35,27,0.063,8.21
5.1431,0.04887,0.03316,0.35256,0.00000,0.00000,0.00000,36,1,62,11,62,-14,63,-3,ok,2,0,0.001,5,-0.5620,-0.08,0.55,9.35,27,0.076,8.21
5.1633,0.04887,0.03316,0.35256,0.00000,0.00000,0.00000,36,3,62,12,59,-14,63,-2,ok,2,0,0.001,5,-0.5657,-0.08,0.55,9.35,27,0.089,8.21
5.1681,0.04887,0.03316,0.35256,0.00000,0.00000,0.00000,35,7,62,13,58,-15,64,-2,ok,2,0,0.001,5,-0.5695,-0.08,0.55,9.35,27,0.101,8.21
5.1808,0.04887,0.03316,0.35256,0.00000,0.00000,0.00000,34,10,62,14,55,-14,65,-1,ok,2,0,0.001,5,-0.5732,-0.08,0.55,9.35,27,0.114,8.21
5.2033,0.04887,0.03316,0.35256,0.00000,0.00000,0.00000,34,12,63,15,52,-13,65,-1,ok,2,0,0.001,5,-0.5770,-0.08,0.55,9.35,27,0.126,8.21
5.2066,0.04887,0.03316,0.35256,0.00000,0.00000,0.00000,34,13,64,16,50,-13,66,0,ok,2,0,0.001,5,-0.5807,-0.08,0.55,9.35,27,0.139,8.21
5.2191,0.04887,0.03316,0.35256,0.00000,0.00000,0.00000,35,13,64,17,47,-12,67,0,ok,2,0,0.001,5,-0.5845,-0.08,0.55,9.35,27,0.152,8.21
5.2393,0.04887,0.03316,0.35256,0.00000,0.00000,0.00000,35,12,64,17,44,-11,68,1,ok,2,0,0.001,5,-0.5882,-0.08,0.55,9.35,27,0.165,8.21
5.2442,0.04887,0.03316,0.35256,0.00000,0.00000,0.00000,36,12,65,18,41,-10,69,1,ok,2,0,0.001,5,-0.5920,-0.08,0.55,9.35,27,0.177,8.21
5.2569,0.04887,0.03316,0.35256,0.00000,0.00000,0.00000,36,11,65,19,38,-9,69,2,ok,2,0,0.001,5,-0.5957,-0.08,0.55,9.35,27,0.190,8.21
5.2793,0.10123,0.06283,0.35430,0.00000,0.00000,0.00000,37,10,65,19,35,-8,70,2,ok,2,0,0.001,5,-0.5995,1.77,2.00,10.94,28,0.000,8.21
5.2826,0.10123,0.06283,0.35430,0.00000,0.00000,0.00000,37,10,65,20,33,-6,71,3,ok,2,0,0.001,5,-0.6000,1.77,2.00,10.94,28,0.013,8.21
5.2951,0.10123,0.06283,0.35430,0.00000,0.00000,0.00000,38,8,66,21,31,-5,71,4,ok,2,0,0.001,5,-0.6000,1.77,2.00,10.94,28,0.026,8.21
5.3153,0.10123,0.06283,0.35430,0.00000,0.00000,0.00000,39,8,66,22,29,-1,72,5,ok,2,0,0.001,5,-0.6000,1.77,2.00,10.94,28,0.039,8.21
5.3203,0.10123,0.06283,0.35430,0.00000,0.00000,0.00000,39,7,65,23,28,1,72,6,ok,2,0,0.001,5,-0.6000,1.77,2.00,10.94,28,0.051,8.21
5.3328,0.10123,0.06283,0.35430,0.00000,0.00000,0.00000,40,6,65,24,27,4,72,7,ok,2,0,0.001,5,-0.6000,1.77,2.00,10.94,28,0.064,8.21
5.3553,0.10123,0.06283,0.35430,0.00000,0.00000,0.00000,40,6,65,25,26,7,72,8,ok,2,0,0.001,5,-0.6000,1.77,2.00,10.94,28,0.076,8.21
5.3585,0.10123,0.06283,0.35430,0.00000,0.00000,0.00000,41,5,64,27,28,6,72,9,ok,2,0,0.002,5,-0.6000,1.77,2.00,10.94,28,0.089,8.21
5.3711,0.10123,0.06283,0.35430,0.00000,0.00000,0.00000,41,4,63,29,29,6,73,11,ok,2,0,0.002,5,-0.6000,1.77,2.00,10.94,28,0.102,8.21
5.3913,0.10123,0.06283,0.35430,0.00000,0.00000,0.00000,42,4,65,27,30,4,73,12,ok,2,0,0.002,5,-0.6000,1.77,2.00,10.94,28,0.115,8.21
5.3961,0.10123,0.06283,0.35430,0.00000,0.00000,0.00000,42,3,67,24,31,3,73,14,ok,2,0,0.002,5,-0.6000,1.77,2.00,10.94,28,0.127,8.21
5.4089,0.10123,0.06283,0.35430,0.00000,0.00000,0.00000,43,3,70,21,32,3,73,16,ok,2,0,0.002,5,-0.6000,1.77,2.00,10.94,28,0.140,8.21
5.4353,0.10123,0.06283,0.35430,0.00000,0.00000,0.00000,43,2,71,17,33,3,73,17,ok,2,0,0.002,5,-0.6000,1.77,2.00,10.94,28,0.152,8.21
5.4385,0.10123,0.06283,0.35430,0.00000,0.00000,0.00000,44,2,71,15,34,1,73,19,ok,2,0,0.002,5,-0.6000,1.77,2.00,10.94,28,0.169,8.21
5.4513,0.10123,0.06283,0.35430,0.00000,0.00000,0.00000,44,1,71,14,37,2,74,20,ok,2,0,0.002,5,-0.6000,1.77,2.00,10.94,28,0.182,8.21
5.4713,0.10123,0.06283,0.35430,0.00000,0.00000,0.00000,45,1,71,11,37,2,73,22,ok,2,0,0.002,5,-0.6000,1.77,2.00,10.94,28,0.194,8.21
5.4764,-0.11868,-0.09425,0.32638,0.00000,0.00000,0.00000,46,1,71,8,39,2,72,23,ok,2,0,0.002,5,-0.5962,-0.95,-1.94,10.46,29,0.000,8.21
5.4887,-0.11868,-0.09425,0.32638,0.00000,0.00000,0.00000,46,0,70,6,40,0,73,25,ok,2,0,0.002,5,-0.5925,-0.95,-1.94,10.46,29,0.013,8.21
5.5113,-0.11868,-0.09425,0.32638,0.00000,0.00000,0.00000,47,-1,70,3,41,1,73,27,ok,2,0,0.002,5,-0.5887,-0.95,-1.94,10.46,29,0.025,8.21
5.5147,-0.11868,-0.09425,0.32638,0.00000,0.00000,0.00000,48,-1,69,2,42,0,73,28,ok,2,0,0.002,5,-0.5850,-0.95,-1.94,10.46,29,0.038,8.21
5.5271,-0.11868,-0.09425,0.32638,0.00000,0.00000,0.00000,48,-1,68,0,43,0,72,30,ok,2,0,0.002,5,-0.5812,-0.95,-1.94,10.46,29,0.051,8.21
5.5473,-0.11868,-0.09425,0.32638,0.00000,0.00000,0.00000,48,-1,66,-1,44,-1,73,29,ok,2,0,0.002,5,-0.5775,-0.95,-1.94,10.46,29,0.064,8.21
5.5523,-0.11868,-0.09425,0.32638,0.00000,0.00000,0.00000,49,0,65,-3,46,-1,74,29,ok,2,0,0.002,5,-0.5737,-0.95,-1.94,10.46,29,0.076,8.21
5.5647,-0.11868,-0.09425,0.32638,0.00000,0.00000,0.00000,49,0,64,-5,47,-1,76,26,ok,2,0,0.002,5,-0.5700,-0.95,-1.94,10.46,29,0.089,8.21
5.5873,-0.11868,-0.09425,0.32638,0.00000,0.00000,0.00000,50,1,62,-6,48,-1,78,21,ok,2,0,0.002,5,-0.5699,-0.95,-1.94,10.46,29,0.101,8.21
5.5905,-0.11868,-0.09425,0.32638,0.00000,0.00000,0.00000,50,1,60,-8,49,-1,79,17,ok,2,0,0.002,5,-0.5699,-0.95,-1.94,10.46,29,0.114,8.21
5.6032,-0.11868,-0.09425,0.32638,0.00000,0.00000,0.00000,50,1,57,-8,50,-1,80,14,ok,2,0,0.002,5,-0.5699,-0.95,-1.94,10.46,29,0.127,8.21
5.6233,-0.11868,-0.09425,0.32638,0.00000,0.00000,0.00000,50,3,55,-9,51,-1,80,13,ok,2,0,0.002,5,-0.5699,-0.95,-1.94,10.46,29,0.140,8.21
5.6281,-0.11868,-0.09425,0.32638,0.00000,0.00000,0.00000,50,4,52,-9,53,-1,80,10,ok,2,0,0.002,6,-0.5699,-0.95,-1.94,10.46,29,0.152,8.21
5.6412,-0.11868,-0.09425,0.32638,0.00000,0.00000,0.00000,51,4,49,-9,54,-1,80,7,ok,2,0,0.002,6,-0.5699,-0.95,-1.94,10.46,29,0.165,8.21
5.6633,-0.11868,-0.09425,0.32638,0.00000,0.00000,0.00000,51,5,47,-8,55,0,79,4,ok,2,0,0.002,6,-0.5699,-0.95,-1.94,10.46,29,0.177,8.21
5.6669,-0.11519,-0.02094,0.32289,0.00000,0.00000,0.00000,51,6,44,-9,56,0,79,2,ok,2,0,0.002,6,-0.5661,-0.22,-0.83,10.75,30,0.000,8.21
5.6791,-0.11519,-0.02094,0.32289,0.00000,0.00000,0.00000,52,6,41,-9,57,0,78,-2,ok,2,0,0.002,6,-0.5656,-0.22,-0.83,10.75,30,0.013,8.21
5.6993,-0.11519,-0.02094,0.32289,0.00000,0.00000,0.00000,52,6,39,-8,58,0,77,-3,ok,2,0,0.002,6,-0.5656,-0.22,-0.83,10.75,30,0.025,8.21
5.7042,-0.11519,-0.02094,0.32289,0.00000,0.00000,0.00000,53,7,36,-7,58,0,76,-5,ok,2,0,0.002,6,-0.5656,-0.22,-0.83,10.75,30,0.038,8.21
5.7169,-0.11519,-0.02094,0.32289,0.00000,0.00000,0.00000,53,8,33,-6,59,1,74,-7,ok,2,0,0.002,6,-0.5656,-0.22,-0.83,10.75,30,0.050,8.21
5.7393,-0.11519,-0.02094,0.32289,0.00000,0.00000,0.00000,53,8,29,-5,60,1,71,-7,ok,2,0,0.002,6,-0.5656,-0.22,-0.83,10.75,30,0.063,8.21
5.7427,-0.11519,-0.02094,0.32289,0.00000,0.00000,0.00000,54,9,26,-3,61,1,70,-9,ok,2,0,0.002,6,-0.5656,-0.22,-0.83,10.75,30,0.076,8.21
5.7551,-0.11519,-0.02094,0.32289,0.00000,0.00000,0.00000,55,10,22,-1,62,0,69,-11,ok,2,0,0.002,6,-0.5656,-0.22,-0.83,10.75,30,0.089,8.21
5.7753,-0.11519,-0.02094,0.32289,0.00000,0.00000,0.00000,55,10,20,0,64,-2,67,-12,ok,2,0,0.002,6,-0.5656,-0.22,-0.83,10.75,30,0.101,8.21
5.7801,-0.11519,-0.02094,0.32289,0.00000,0.00000,0.00000,55,11,18,1,64,-1,65,-13,ok,2,0,0.002,6,-0.5656,-0.22,-0.83,10.75,30,0.114,8.21
5.7929,-0.11519,-0.02094,0.32289,0.00000,0.00000,0.00000,55,11,16,4,65,0,63,-13,ok,2,0,0.002,6,-0.5656,-0.22,-0.83,10.75,30,0.126,8.21
5.8153,-0.11519,-0.02094,0.32289,0.00000,0.00000,0.00000,56,12,15,7,66,0,60,-14,ok,2,0,0.002,6,-0.5656,-0.22,-0.83,10.75,30,0.139,8.21
5.8185,-0.11519,-0.02094,0.32289,0.00000,0.00000,0.00000,56,13,13,10,66,0,58,-15,ok,2,0,0.002,6,-0.5656,-0.22,-0.83,10.75,30,0.152,8.21
5.8311,-0.11519,-0.02094,0.32289,0.00000,0.00000,0.00000,56,14,11,12,67,0,55,-13,ok,2,0,0.002,6,-0.5656,-0.22,-0.83,10.75,30,0.165,8.21
5.8513,-0.11519,-0.02094,0.32289,0.00000,0.00000,0.00000,56,15,13,13,67,0,53,-12,ok,2,0,0.002,6,-0.5656,-0.22,-0.83,10.75,30,0.177,8.21
5.8563,-0.11519,-0.02094,0.32289,0.00000,0.00000,0.00000,56,16,13,13,68,0,50,-12,ok,2,0,0.002,6,-0.5656,-0.22,-0.83,10.75,30,0.190,8.21
5.8689,-0.11519,-0.02094,0.32289,0.00000,0.00000,0.00000,57,16,14,11,69,1,47,-11,ok,2,0,0.002,6,-0.5656,-0.22,-0.83,10.75,30,0.202,8.21
5.8913,0.04712,-0.04189,0.23562,0.00000,0.00000,0.00000,57,17,15,11,69,2,45,-11,ok,2,0,0.002,6,-0.5506,-1.73,0.91,8.62,31,0.000,8.21
5.8946,0.04712,-0.04189,0.23562,0.00000,0.00000,0.00000,57,18,16,10,69,3,41,-10,ok,2,0,0.002,6,-0.5356,-1.73,0.91,8.62,31,0.013,8.21
5.9071,0.04712,-0.04189,0.23562,0.00000,0.00000,0.00000,58,18,18,9,70,3,39,-9,ok,2,0,0.002,6,-0.5206,-1.73,0.91,8.62,31,0.026,8.21
5.9273,0.04712,-0.04189,0.23562,0.00000,0.00000,0.00000,58,20,18,9,70,5,35,-8,ok,2,0,0.002,6,-0.5056,-1.73,0.91,8.62,31,0.038,8.21
5.9321,0.04712,-0.04189,0.23562,0.00000,0.00000,0.00000,59,21,20,8,71,5,34,-6,ok,2,0,0.002,6,-0.4906,-1.73,0.91,8.62,31,0.051,8.21
5.9447,0.04712,-0.04189,0.23562,0.00000,0.00000,0.00000,59,22,21,7,71,6,32,-4,ok,2,0,0.002,6,-0.4756,-1.73,0.91,8.62,31,0.064,8.21
5.9673,0.04712,-0.04189,0.23562,0.00000,0.00000,0.00000,59,23,23,6,71,7,29,-1,ok,2,0,0.002,6,-0.4606,-1.73,0.91,8.62,31,0.076,8.21
5.9707,0.04712,-0.04189,0.23562,0.00000,0.00000,0.00000,59,24,24,6,71,8,28,1,ok,2,0,0.002,6,-0.4456,-1.73,0.91,8.62,31,0.089,8.21
5.9831,0.04712,-0.04189,0.23562,0.00000,0.00000,0.00000,59,25,25,5,71,9,27,5,ok,2,0,0.002,6,-0.4306,-1.73,0.91,8.62,31,0.102,8.21
6.0033,0.04712,-0.04189,0.23562,0.00000,0.00000,0.00000,59,28,26,5,71,10,27,7,ok,2,0,0.002,6,-0.4156,-1.73,0.91,8.62,31,0.115,8.21
6.0081,0.04712,-0.04189,0.23562,0.00000,0.00000,0.00000,58,29,27,4,71,11,29,6,ok,2,0,0.002,6,-0.4006,-1.73,0.91,8.62,31,0.127,8.21
6.0207,0.04712,-0.04189,0.23562,0.00000,0.00000,0.00000,60,28,28,3,71,13,29,5,ok,2,0,0.002,6,-0.3856,-1.73,0.91,8.62,31,0.140,8.21
6.0433,0.04712,-0.04189,0.23562,0.00000,0.00000,0.00000,61,25,30,3,72,14,31,3,ok,2,0,0.002,6,-0.3706,-1.73,0.91,8.62,31,0.152,8.21
6.0465,0.04712,-0.04189,0.23562,0.00000,0.00000,0.00000,63,21,31,2,71,15,32,2,ok,2,0,0.002,6,-0.3556,-1.73,0.91,8.62,31,0.165,8.21
6.0593,0.04712,-0.04189,0.23562,0.00000,0.00000,0.00000,64,17,33,2,71,17,33,2,ok,2,0,0.002,6,-0.3406,-1.73,0.91,8.62,31,0.178,8.21
6.0793,0.05934,-0.13614,0.23038,0.00000,0.00000,0.00000,64,15,34,2,72,18,34,2,ok,2,0,0.002,6,-0.3256,-2.44,0.48,8.33,32,0.000,8.21
6.0841,0.05934,-0.13614,0.23038,0.00000,0.00000,0.00000,64,14,36,2,71,20,36,1,ok,2,0,0.002,6,-0.3106,-2.44,0.48,8.33,32,0.012,8.21
6.0967,0.05934,-0.13614,0.23038,0.00000,0.00000,0.00000,65,11,37,2,71,21,38,1,ok,2,0,0.002,6,-0.2956,-2.44,0.48,8.33,32,0.025,8.21
6.1193,0.05934,-0.13614,0.23038,0.00000,0.00000,0.00000,64,7,38,2,71,23,39,1,ok,2,0,0.002,6,-0.2806,-2.44,0.48,8.33,32,0.037,8.21
6.1226,0.05934,-0.13614,0.23038,0.00000,0.00000,0.00000,64,4,40,2,71,24,41,1,ok,2,0,0.002,6,-0.2656,-2.44,0.48,8.33,32,0.051,8.21
6.1354,0.05934,-0.13614,0.23038,0.00000,0.00000,0.00000,63,1,41,2,70,26,42,1,ok,2,0,0.002,6,-0.2506,-2.44,0.48,8.33,32,0.064,8.21
6.1553,0.05934,-0.13614,0.23038,0.00000,0.00000,0.00000,63,-1,43,2,70,28,43,1,ok,2,0,0.002,6,-0.2356,-2.44,0.48,8.33,32,0.076,8.21
6.1601,0.05934,-0.13614,0.23038,0.00000,0.00000,0.00000,62,-3,44,2,70,28,44,0,ok,2,0,0.002,6,-0.2206,-2.44,0.48,8.33,32,0.089,8.21
6.1727,0.05934,-0.13614,0.23038,0.00000,0.00000,0.00000,61,-4,44,2,72,27,45,0,ok,2,0,0.002,6,-0.2056,-2.44,0.48,8.33,32,0.101,8.21
6.1953,0.05934,-0.13614,0.23038,0.00000,0.00000,0.00000,61,-6,46,3,73,25,46,-1,ok,2,0,0.002,6,-0.1906,-2.44,0.48,8.33,32,0.114,8.21
6.1985,0.05934,-0.13614,0.23038,0.00000,0.00000,0.00000,60,-8,47,2,75,20,47,-1,ok,2,0,0.002,6,-0.1868,-2.44,0.48,8.33,32,0.127,8.21
6.2113,0.05934,-0.13614,0.23038,0.00000,0.00000,0.00000,58,-9,49,4,77,16,48,0,ok,2,0,0.002,6,-0.1831,-2.44,0.48,8.33,32,0.139,8.21
6.2313,0.05934,-0.13614,0.23038,0.00000,0.00000,0.00000,57,-10,50,3,78,13,49,0,ok,2,0,0.002,6,-0.1793,-2.44,0.48,8.33,32,0.152,8.21
6.2361,0.05934,-0.13614,0.23038,0.00000,0.00000,0.00000,54,-11,51,3,78,12,49,0,ok,2,0,0.002,6,-0.1756,-2.44,0.48,8.33,32,0.164,8.21
6.2487,0.05934,-0.13614,0.23038,0.00000,0.00000,0.00000,52,-12,51,5,78,10,51,0,ok,2,0,0.002,6,-0.1718,-2.44,0.48,8.33,32,0.177,8.21
6.2713,0.05934,-0.13614,0.23038,0.00000,0.00000,0.00000,50,-11,52,6,78,6,52,0,ok,2,0,0.002,6,-0.1681,-2.44,0.48,8.33,32,0.189,8.21
6.2749,-0.05760,-0.00524,0.26529,0.00000,0.00000,0.00000,48,-11,53,6,78,3,53,0,ok,2,0,0.002,6,-0.1643,0.14,-1.42,10.71,33,0.000,8.21
6.2874,-0.05760,-0.00524,0.26529,0.00000,0.00000,0.00000,47,-11,54,6,77,1,53,0,ok,2,0,0.002,6,-0.1606,0.14,-1.42,10.71,33,0.013,8.21
6.3073,-0.05760,-0.00524,0.26529,0.00000,0.00000,0.00000,44,-11,54,7,76,-2,54,1,ok,2,0,0.002,6,-0.1568,0.14,-1.42,10.71,33,0.025,8.21
6.3122,-0.05760,-0.00524,0.26529,0.00000,0.00000,0.00000,42,-11,56,7,76,-4,54,0,ok,2,0,0.002,6,-0.1531,0.14,-1.42,10.71,33,0.038,8.21
6.3248,-0.05760,-0.00524,0.26529,0.00000,0.00000,0.00000,41,-10,56,7,75,-6,56,0,ok,2,0,0.002,6,-0.1493,0.14,-1.42,10.71,33,0.050,8.21
6.3473,-0.05760,-0.00524,0.26529,0.00000,0.00000,0.00000,37,-9,57,8,73,-9,56,-1,ok,2,0,0.002,6,-0.1456,0.14,-1.42,10.71,33,0.063,8.21
6.3505,-0.05760,-0.00524,0.26529,0.00000,0.00000,0.00000,35,-8,57,9,70,-8,57,0,ok,2,0,0.002,6,-0.1418,0.14,-1.42,10.71,33,0.076,8.21
6.3632,-0.05760,-0.00524,0.26529,0.00000,0.00000,0.00000,32,-6,58,9,69,-10,57,0,ok,2,0,0.002,6,-0.1381,0.14,-1.42,10.71,33,0.089,8.21
6.3833,-0.05760,-0.00524,0.26529,0.00000,0.00000,0.00000,29,-5,59,9,68,-12,59,0,ok,2,0,0.002,6,-0.1343,0.14,-1.42,10.71,33,0.101,8.21
6.3881,-0.05760,-0.00524,0.26529,0.00000,0.00000,0.00000,26,-2,60,11,66,-13,59,0,ok,2,0,0.002,6,-0.1306,0.14,-1.42,10.71,33,0.114,8.21
6.4007,-0.05760,-0.00524,0.26529,0.00000,0.00000,0.00000,24,-2,61,11,64,-13,61,0,ok,2,0,0.002,6,-0.1268,0.14,-1.42,10.71,33,0.126,8.21
6.4233,-0.05760,-0.00524,0.26529,0.00000,0.00000,0.00000,22,0,62,12,62,-14,63,-3,ok,2,0,0.002,6,-0.1231,0.14,-1.42,10.71,33,0.139,8.21
6.4265,-0.05760,-0.00524,0.26529,0.00000,0.00000,0.00000,20,3,62,12,59,-15,63,-1,ok,2,0,0.002,6,-0.1193,0.14,-1.42,10.71,33,0.152,8.21
6.4391,-0.05760,-0.00524,0.26529,0.00000,0.00000,0.00000,18,6,63,13,58,-15,64,-1,ok,2,0,0.002,6,-0.1156,0.14,-1.42,10.71,33,0.165,8.21
6.4593,-0.05760,-0.00524,0.26529,0.00000,0.00000,0.00000,16,10,63,14,55,-14,65,-1,ok,2,0,0.002,6,-0.1118,0.14,-1.42,10.71,33,0.177,8.21
6.4642,-0.05760,-0.00524,0.26529,0.00000,0.00000,0.00000,15,12,64,15,52,-13,65,-1,ok,2,0,0.002,6,-0.1081,0.14,-1.42,10.71,33,0.190,8.21
6.4769,0.04538,0.03316,0.26878,0.00000,0.00000,0.00000,16,13,64,16,50,-13,66,0,ok,2,0,0.002,6,-0.1118,-0.37,0.14,10.31,34,0.000,8.21
6.4993,0.04538,0.03316,0.26878,0.00000,0.00000,0.00000,16,13,64,17,47,-12,67,-1,ok,2,0,0.002,6,-0.1156,-0.37,0.14,10.31,34,0.013,8.21
6.5025,0.04538,0.03316,0.26878,0.00000,0.00000,0.00000,18,12,65,17,44,-11,68,0,ok,2,0,0.002,6,-0.1193,-0.37,0.14,10.31,34,0.026,8.21
6.5151,0.04538,0.03316,0.26878,0.00000,0.00000,0.00000,19,12,65,18,41,-10,68,0,ok,2,0,0.002,6,-0.1222,-0.37,0.14,10.31,34,0.038,8.21
6.5353,0.04538,0.03316,0.26878,0.00000,0.00000,0.00000,20,11,66,18,38,-10,69,1,ok,2,0,0.002,6,-0.1234,-0.37,0.14,10.31,34,0.051,8.21
6.5401,0.04538,0.03316,0.26878,0.00000,0.00000,0.00000,22,10,66,19,35,-8,69,2,ok,2,0,0.002,6,-0.1245,-0.37,0.14,10.31,34,0.063,8.21
6.5527,0.04538,0.03316,0.26878,0.00000,0.00000,0.00000,22,10,65,20,33,-7,70,3,ok,2,0,0.002,6,-0.1257,-0.37,0.14,10.31,34,0.076,8.21
6.5753,0.04538,0.03316,0.26878,0.00000,0.00000,0.00000,24,8,66,21,32,-5,70,4,ok,2,0,0.002,6,-0.1269,-0.37,0.14,10.31,34,0.088,8.21
6.5786,0.04538,0.03316,0.26878,0.00000,0.00000,0.00000,26,8,66,22,29,-2,71,5,ok,2,0,0.002,6,-0.1281,-0.37,0.14,10.31,34,0.102,8.21
6.5911,0.04538,0.03316,0.26878,0.00000,0.00000,0.00000,26,7,65,22,28,0,71,6,ok,2,0,0.002,6,-0.1292,-0.37,0.14,10.31,34,0.115,8.21
6.6113,0.04538,0.03316,0.26878,0.00000,0.00000,0.00000,27,6,65,24,27,4,71,7,ok,2,0,0.002,6,-0.1304,-0.37,0.14,10.31,34,0.127,8.21
6.6162,0.04538,0.03316,0.26878,0.00000,0.00000,0.00000,29,6,65,24,26,6,72,8,ok,2,0,0.002,6,-0.1316,-0.37,0.14,10.31,34,0.139,8.21
6.6287,0.04538,0.03316,0.26878,0.00000,0.00000,0.00000,30,5,64,27,28,6,72,9,ok,2,0,0.002,6,-0.1328,-0.37,0.14,10.31,34,0.152,8.21
6.6513,0.04538,0.03316,0.26878,0.00000,0.00000,0.00000,31,4,64,29,29,5,72,11,ok,2,0,0.002,7,-0.1339,-0.37,0.14,10.31,34,0.165,8.21
6.6546,0.04538,0.03316,0.26878,0.00000,0.00000,0.00000,32,4,65,27,30,3,72,12,ok,2,0,0.002,7,-0.1351,-0.37,0.14,10.31,34,0.178,8.21
6.6673,0.04538,0.03316,0.26878,0.00000,0.00000,0.00000,33,3,68,24,31,3,73,14,ok,2,0,0.002,7,-0.1363,-0.37,0.14,10.31,34,0.191,8.21
6.6873,0.04538,0.04538,0.21817,0.00000,0.00000,0.00000,34,3,70,21,32,3,73,15,ok,2,0,0.002,7,-0.1325,0.16,0.87,9.11,35,0.000,8.21
6.6923,0.04538,0.04538,0.21817,0.00000,0.00000,0.00000,35,2,71,17,33,2,73,17,ok,2,0,0.002,7,-0.1288,0.16,0.87,9.11,35,0.012,8.21
6.7047,0.04538,0.04538,0.21817,0.00000,0.00000,0.00000,36,2,71,15,34,1,72,19,ok,2,0,0.002,7,-0.1250,0.16,0.87,9.11,35,0.025,8.21
6.7273,0.04538,0.04538,0.21817,0.00000,0.00000,0.00000,38,1,71,14,37,1,73,20,ok,2,0,0.002,7,-0.1213,0.16,0.87,9.11,35,0.037,8.21
6.7305,0.04538,0.04538,0.21817,0.00000,0.00000,0.00000,39,1,71,11,37,1,72,22,ok,2,0,0.002,7,-0.1175,0.16,0.87,9.11,35,0.051,8.21
6.7432,0.04538,0.04538,0.21817,0.00000,0.00000,0.00000,40,1,71,8,39,2,72,23,ok,2,0,0.002,7,-0.1138,0.16,0.87,9.11,35,0.064,8.21
6.7633,0.04538,0.04538,0.21817,0.00000,0.00000,0.00000,41,1,70,5,40,1,73,24,ok,2,0,0.002,7,-0.1100,0.16,0.87,9.11,35,0.076,8.21
6.7683,0.04538,0.04538,0.21817,0.00000,0.00000,0.00000,43,0,70,3,41,2,72,26,ok,2,0,0.002,7,-0.1063,0.16,0.87,9.11,35,0.089,8.21
6.7807,0.04538,0.04538,0.21817,0.00000,0.00000,0.00000,44,0,69,1,42,1,72,28,ok,2,0,0.002,7,-0.1025,0.16,0.87,9.11,35,0.101,8.21
6.8033,0.04538,0.04538,0.21817,0.00000,0.00000,0.00000,45,0,68,-1,44,1,72,29,ok,2,0,0.002,7,-0.0988,0.16,0.87,9.11,35,0.114,8.21
6.8065,0.04538,0.04538,0.21817,0.00000,0.00000,0.00000,45,0,65,-2,45,0,73,29,ok,2,0,0.002,7,-0.0950,0.16,0.87,9.11,35,0.127,8.21
6.8191,0.04538,0.04538,0.21817,0.00000,0.00000,0.00000,46,0,64,-4,46,0,74,28,ok,2,0,0.002,7,-0.0913,0.16,0.87,9.11,35,0.140,8.21
6.8393,0.04538,0.04538,0.21817,0.00000,0.00000,0.00000,47,0,64,-6,48,0,76,26,ok,2,0,0.002,7,-0.0875,0.16,0.87,9.11,35,0.152,8.21
6.8443,0.04538,0.04538,0.21817,0.00000,0.00000,0.00000,49,1,61,-7,48,0,78,21,ok,2,0,0.002,7,-0.0838,0.16,0.87,9.11,35,0.165,8.21
6.8567,0.04538,0.04538,0.21817,0.00000,0.00000,0.00000,50,1,59,-8,49,0,79,17,ok,2,0,0.002,7,-0.0800,0.16,0.87,9.11,35,0.177,8.21
6.8793,0.04538,0.04538,0.21817,0.00000,0.00000,0.00000,50,1,56,-9,51,0,81,14,ok,2,0,0.002,7,-0.0763,0.16,0.87,9.11,35,0.190,8.21
6.8829,-0.12043,-0.04887,0.28449,0.00000,0.00000,0.00000,50,3,54,-10,52,0,81,13,ok,2,0,0.002,7,-0.0800,-1.24,-1.00,10.15,36,0.000,8.21
6.8951,-0.12043,-0.04887,0.28449,0.00000,0.00000,0.00000,52,4,51,-9,53,0,81,11,ok,2,0,0.002,7,-0.0838,-1.24,-1.00,10.15,36,0.013,8.21
6.9153,-0.12043,-0.04887,0.28449,0.00000,0.00000,0.00000,53,3,49,-9,54,-1,81,7,ok,2,0,0.002,7,-0.0875,-1.24,-1.00,10.15,36,0.025,8.21
6.9203,-0.12043,-0.04887,0.28449,0.00000,0.00000,0.00000,53,4,46,-8,55,0,80,4,ok,2,0,0.002,7,-0.0913,-1.24,-1.00,10.15,36,0.038,8.21
6.9329,-0.12043,-0.04887,0.28449,0.00000,0.00000,0.00000,53,5,43,-9,56,0,80,3,ok,2,0,0.002,7,-0.0950,-1.24,-1.00,10.15,36,0.050,8.21
6.9553,-0.12043,-0.04887,0.28449,0.00000,0.00000,0.00000,55,6,41,-9,57,1,78,-1,ok,2,0,0.002,7,-0.0988,-1.24,-1.00,10.15,36,0.063,8.21
6.9587,-0.12043,-0.04887,0.28449,0.00000,0.00000,0.00000,55,6,39,-8,58,0,78,-3,ok,2,0,0.002,7,-0.1025,-1.24,-1.00,10.15,36,0.076,8.21
6.9712,-0.12043,-0.04887,0.28449,0.00000,0.00000,0.00000,56,7,36,-7,58,0,77,-5,ok,2,0,0.002,7,-0.1063,-1.24,-1.00,10.15,36,0.089,8.21
6.9913,-0.12043,-0.04887,0.28449,0.00000,0.00000,0.00000,56,7,33,-6,59,1,75,-7,ok,2,0,0.002,7,-0.1100,-1.24,-1.00,10.15,36,0.101,8.21
6.9961,-0.12043,-0.04887,0.28449,0.00000,0.00000,0.00000,57,8,29,-5,60,1,72,-7,ok,2,0,0.002,7,-0.1138,-1.24,-1.00,10.15,36,0.114,8.21
7.0087,-0.12043,-0.04887,0.28449,0.00000,0.00000,0.00000,58,8,27,-3,61,1,71,-9,ok,2,0,0.002,7,-0.1175,-1.24,-1.00,10.15,36,0.126,8.21
7.0313,-0.12043,-0.04887,0.28449,0.00000,0.00000,0.00000,60,10,22,-1,62,0,69,-11,ok,2,0,0.002,7,-0.1213,-1.24,-1.00,10.15,36,0.139,8.21
7.0345,-0.12043,-0.04887,0.28449,0.00000,0.00000,0.00000,60,10,20,0,64,-2,67,-12,ok,2,0,0.002,7,-0.1250,-1.24,-1.00,10.15,36,0.152,8.21
7.0471,-0.12043,-0.04887,0.28449,0.00000,0.00000,0.00000,60,11,19,1,64,-2,64,-13,ok,2,0,0.002,7,-0.1288,-1.24,-1.00,10.15,36,0.165,8.21
7.0673,-0.12043,-0.04887,0.28449,0.00000,0.00000,0.00000,60,12,17,4,65,-1,63,-14,ok,2,0,0.002,7,-0.1325,-1.24,-1.00,10.15,36,0.177,8.21
7.0721,-0.12043,-0.04887,0.28449,0.00000,0.00000,0.00000,61,12,15,7,66,-1,60,-14,ok,2,0,0.002,7,-0.1363,-1.24,-1.00,10.15,36,0.190,8.21
7.0851,-0.12043,-0.04887,0.28449,0.00000,0.00000,0.00000,61,13,13,10,66,0,58,-15,ok,2,0,0.002,7,-0.1400,-1.24,-1.00,10.15,36,0.202,8.21
7.1073,-0.04363,-0.00524,0.26180,0.00000,0.00000,0.00000,62,14,11,12,67,0,55,-13,ok,2,0,0.002,7,-0.1438,-0.38,-0.35,10.21,37,0.000,8.21
7.1105,-0.04363,-0.00524,0.26180,0.00000,0.00000,0.00000,62,15,13,13,67,0,52,-13,ok,2,0,0.002,7,-0.1475,-0.38,-0.35,10.21,37,0.013,8.21
7.1233,-0.04363,-0.00524,0.26180,0.00000,0.00000,0.00000,62,16,13,12,68,1,50,-12,ok,2,0,0.002,7,-0.1513,-0.38,-0.35,10.21,37,0.026,8.21
7.1433,-0.04363,-0.00524,0.26180,0.00000,0.00000,0.00000,63,17,14,11,68,1,47,-12,ok,2,0,0.002,7,-0.1550,-0.38,-0.35,10.21,37,0.039,8.21
7.1482,-0.04363,-0.00524,0.26180,0.00000,0.00000,0.00000,63,18,15,11,69,2,45,-11,ok,2,0,0.002,7,-0.1588,-0.38,-0.35,10.21,37,0.051,8.21
7.1607,-0.04363,-0.00524,0.26180,0.00000,0.00000,0.00000,63,18,16,10,69,2,41,-10,ok,2,0,0.002,7,-0.1612,-0.38,-0.35,10.21,37,0.064,8.21
7.1833,-0.04363,-0.00524,0.26180,0.00000,0.00000,0.00000,63,19,17,9,70,3,39,-9,ok,2,0,0.002,7,-0.1624,-0.38,-0.35,10.21,37,0.076,8.21
7.1865,-0.04363,-0.00524,0.26180,0.00000,0.00000,0.00000,63,20,18,8,70,4,35,-7,ok,2,0,0.002,7,-0.1635,-0.38,-0.35,10.21,37,0.089,8.21
7.1991,-0.04363,-0.00524,0.26180,0.00000,0.00000,0.00000,64,21,20,7,71,5,34,-6,ok,2,0,0.002,7,-0.1646,-0.38,-0.35,10.21,37,0.102,8.21
7.2193,-0.04363,-0.00524,0.26180,0.00000,0.00000,0.00000,64,22,21,7,71,6,32,-4,ok,2,0,0.002,7,-0.1657,-0.38,-0.35,10.21,37,0.115,8.21
7.2241,-0.04363,-0.00524,0.26180,0.00000,0.00000,0.00000,64,23,22,6,71,7,30,-1,ok,2,0,0.002,7,-0.1669,-0.38,-0.35,10.21,37,0.127,8.21
7.2369,-0.04363,-0.00524,0.26180,0.00000,0.00000,0.00000,63,24,23,6,71,8,28,1,ok,2,0,0.002,7,-0.1680,-0.38,-0.35,10.21,37,0.139,8.21
7.2593,-0.04363,-0.00524,0.26180,0.00000,0.00000,0.00000,63,25,25,5,71,9,27,5,ok,2,0,0.002,7,-0.1691,-0.38,-0.35,10.21,37,0.152,8.21
7.2625,-0.04363,-0.00524,0.26180,0.00000,0.00000,0.00000,62,28,26,5,71,10,27,7,ok,2,0,0.002,7,-0.1702,-0.38,-0.35,10.21,37,0.165,8.21
7.2751,-0.04363,-0.00524,0.26180,0.00000,0.00000,0.00000,62,29,27,4,71,12,29,6,ok,2,0,0.002,7,-0.1714,-0.38,-0.35,10.21,37,0.178,8.21
7.2953,-0.04363,-0.00524,0.26180,0.00000,0.00000,0.00000,63,28,28,3,71,13,29,5,ok,2,0,0.002,7,-0.1725,-0.38,-0.35,10.21,37,0.190,8.21
7.3004,-0.04014,0.01396,0.34034,0.00000,0.00000,0.00000,65,25,30,3,72,14,30,3,ok,2,0,0.002,7,-0.1762,0.17,-0.63,9.87,38,0.000,8.21
7.3127,-0.04014,0.01396,0.34034,0.00000,0.00000,0.00000,66,21,31,2,71,15,31,3,ok,2,0,0.002,7,-0.1800,0.17,-0.63,9.87,38,0.013,8.21
7.3354,-0.04014,0.01396,0.34034,0.00000,0.00000,0.00000,67,17,33,2,71,18,33,3,ok,2,0,0.002,7,-0.1837,0.17,-0.63,9.87,38,0.025,8.21
7.3386,-0.04014,0.01396,0.34034,0.00000,0.00000,0.00000,68,15,34,2,72,18,34,2,ok,2,0,0.002,7,-0.1875,0.17,-0.63,9.87,38,0.039,8.21
7.3512,-0.04014,0.01396,0.34034,0.00000,0.00000,0.00000,67,14,35,1,71,21,36,1,ok,2,0,0.002,7,-0.1912,0.17,-0.63,9.87,38,0.051,8.21
7.3713,-0.04014,0.01396,0.34034,0.00000,0.00000,0.00000,67,11,36,1,71,22,38,1,ok,2,0,0.002,7,-0.1950,0.17,-0.63,9.87,38,0.064,8.21
7.3764,-0.04014,0.01396,0.34034,0.00000,0.00000,0.00000,66,7,38,2,71,23,38,2,ok,2,0,0.002,7,-0.1987,0.17,-0.63,9.87,38,0.076,8.21
7.3889,-0.04014,0.01396,0.34034,0.00000,0.00000,0.00000,66,5,39,2,71,25,40,1,ok,2,0,0.002,7,-0.2025,0.17,-0.63,9.87,38,0.089,8.21
7.4113,-0.04014,0.01396,0.34034,0.00000,0.00000,0.00000,65,1,41,1,71,27,42,1,ok,2,0,0.002,7,-0.2062,0.17,-0.63,9.87,38,0.101,8.21
7.4157,-0.04014,0.01396,0.34034,0.00000,0.00000,0.00000,64,-1,42,1,71,28,42,1,ok,2,0,0.002,7,-0.2100,0.17,-0.63,9.87,38,0.115,8.21
7.4343,-0.04014,0.01396,0.34034,0.00000,0.00000,0.00000,63,-3,44,2,71,28,43,1,ok,2,0,0.002,7,-0.2137,0.17,-0.63,9.87,38,0.127,8.21
7.4496,-0.04014,0.01396,0.34034,0.00000,0.00000,0.00000,61,-4,44,2,72,28,45,1,ok,2,0,0.002,7,-0.2175,0.17,-0.63,9.87,38,0.140,8.21
7.4566,-0.04014,0.01396,0.34034,0.00000,0.00000,0.00000,60,-6,46,2,74,26,46,0,ok,2,0,0.002,7,-0.2212,0.17,-0.63,9.87,38,0.153,8.21
7.4660,-0.04014,0.01396,0.34034,0.00000,0.00000,0.00000,59,-8,47,2,76,21,47,0,ok,2,0,0.002,7,-0.2250,0.17,-0.63,9.87,38,0.166,8.21
7.4874,-0.04014,0.01396,0.34034,0.00000,0.00000,0.00000,58,-9,48,3,77,17,48,0,ok,2,0,0.002,7,-0.2287,0.17,-0.63,9.87,38,0.178,8.21
7.4909,-0.04014,0.01396,0.34034,0.00000,0.00000,0.00000,56,-10,49,3,79,14,49,0,ok,2,0,0.002,7,-0.2325,0.17,-0.63,9.87,38,0.191,8.21
7.5036,0.08378,0.06109,0.35081,0.00000,0.00000,0.00000,54,-11,50,3,79,13,49,0,ok,2,0,0.002,7,-0.2362,0.15,1.11,11.74,39,0.000,8.21
7.5233,0.08378,0.06109,0.35081,0.00000,0.00000,0.00000,52,-12,50,5,79,11,51,0,ok,2,0,0.002,7,-0.2400,0.15,1.11,11.74,39,0.013,8.21
7.5283,0.08378,0.06109,0.35081,0.00000,0.00000,0.00000,50,-11,52,5,79,8,52,0,ok,2,0,0.002,7,-0.2437,0.15,1.11,11.74,39,0.025,8.21
7.5422,0.08378,0.06109,0.35081,0.00000,0.00000,0.00000,48,-11,53,5,78,5,53,0,ok,2,0,0.002,7,-0.2475,0.15,1.11,11.74,39,0.038,8.21
7.5642,0.08378,0.06109,0.35081,0.00000,0.00000,0.00000,46,-11,54,6,77,3,54,-1,ok,2,0,0.002,7,-0.2512,0.15,1.11,11.74,39,0.050,8.21
7.5699,0.08378,0.06109,0.35081,0.00000,0.00000,0.00000,45,-11,54,7,77,-1,54,0,ok,2,0,0.002,7,-0.2550,0.15,1.11,11.74,39,0.064,8.21
7.5809,0.08378,0.06109,0.35081,0.00000,0.00000,0.00000,43,-11,56,7,76,-3,55,-1,ok,2,0,0.002,7,-0.2587,0.15,1.11,11.74,39,0.077,8.21
7.6035,0.08378,0.06109,0.35081,0.00000,0.00000,0.00000,41,-10,56,7,75,-4,56,0,ok,2,0,0.002,7,-0.2625,0.15,1.11,11.74,39,0.090,8.21
7.6072,0.08378,0.06109,0.35081,0.00000,0.00000,0.00000,39,-9,57,7,74,-7,57,-1,ok,2,0,0.002,7,-0.2662,0.15,1.11,11.74,39,0.103,8.21
7.6196,0.08378,0.06109,0.35081,0.00000,0.00000,0.00000,38,-8,57,8,71,-7,57,0,ok,2,0,0.002,7,-0.2700,0.15,1.11,11.74,39,0.116,8.21
7.6393,0.08378,0.06109,0.35081,0.00000,0.00000,0.00000,35,-6,58,8,70,-9,58,0,ok,2,0,0.002,7,-0.2737,0.15,1.11,11.74,39,0.129,8.21
7.6445,0.08378,0.06109,0.35081,0.00000,0.00000,0.00000,33,-4,59,9,68,-11,59,1,ok,2,0,0.002,7,-0.2775,0.15,1.11,11.74,39,0.141,8.21
7.6569,0.08378,0.06109,0.35081,0.00000,0.00000,0.00000,30,-2,60,10,66,-12,60,0,ok,2,0,0.002,8,-0.2812,0.15,1.11,11.74,39,0.154,8.21
7.6793,0.08378,0.06109,0.35081,0.00000,0.00000,0.00000,29,-1,61,11,64,-13,61,0,ok,2,0,0.002,8,-0.2850,0.15,1.11,11.74,39,0.166,8.21
7.6825,0.08378,0.06109,0.35081,0.00000,0.00000,0.00000,28,0,62,11,62,-13,63,-3,ok,2,0,0.002,8,-0.2887,0.15,1.11,11.74,39,0.179,8.21
7.6954,0.08378,0.06109,0.35081,0.00000,0.00000,0.00000,27,3,62,12,59,-14,64,-1,ok,2,0,0.002,8,-0.2925,0.15,1.11,11.74,39,0.192,8.21
7.7153,0.01222,0.02793,0.36826,0.00000,0.00000,0.00000,25,6,63,13,58,-14,65,-1,ok,2,0,0.002,8,-0.2962,-0.59,0.38,10.10,40,0.000,8.21
7.7202,0.01222,0.02793,0.36826,0.00000,0.00000,0.00000,24,10,63,14,55,-14,65,-1,ok,2,0,0.002,8,-0.3000,-0.59,0.38,10.10,40,0.012,8.21
7.7327,0.01222,0.02793,0.36826,0.00000,0.00000,0.00000,23,12,63,15,52,-13,66,-1,ok,2,0,0.002,8,-0.3037,-0.59,0.38,10.10,40,0.025,8.21
7.7553,0.01222,0.02793,0.36826,0.00000,0.00000,0.00000,24,13,64,16,50,-13,67,0,ok,2,0,0.002,8,-0.3075,-0.59,0.38,10.10,40,0.038,8.21
7.7585,0.01222,0.02793,0.36826,0.00000,0.00000,0.00000,25,13,64,17,47,-12,67,0,ok,2,0,0.002,8,-0.3112,-0.59,0.38,10.10,40,0.051,8.21
7.7712,0.01222,0.02793,0.36826,0.00000,0.00000,0.00000,25,12,65,17,44,-11,68,1,ok,2,0,0.002,8,-0.3150,-0.59,0.38,10.10,40,0.064,8.21
7.7913,0.01222,0.02793,0.36826,0.00000,0.00000,0.00000,27,11,65,18,41,-10,69,1,ok,2,0,0.002,8,-0.3187,-0.59,0.38,10.10,40,0.076,8.21
7.7962,0.01222,0.02793,0.36826,0.00000,0.00000,0.00000,27,11,65,19,38,-9,70,2,ok,2,0,0.002,8,-0.3225,-0.59,0.38,10.10,40,0.088,8.21
7.8087,0.01222,0.02793,0.36826,0.00000,0.00000,0.00000,28,10,65,19,35,-8,70,2,ok,2,0,0.002,8,-0.3262,-0.59,0.38,10.10,40,0.101,8.21
7.8313,0.01222,0.02793,0.36826,0.00000,0.00000,0.00000,29,10,65,20,33,-6,71,3,ok,2,0,0.002,8,-0.3300,-0.59,0.38,10.10,40,0.114,8.21
7.8347,0.01222,0.02793,0.36826,0.00000,0.00000,0.00000,31,8,66,21,32,-5,71,4,ok,2,0,0.002,8,-0.3337,-0.59,0.38,10.10,40,0.127,8.21
7.8472,0.01222,0.02793,0.36826,0.00000,0.00000,0.00000,31,7,66,22,29,-2,72,5,ok,2,0,0.002,8,-0.3375,-0.59,0.38,10.10,40,0.139,8.21
7.8673,0.01222,0.02793,0.36826,0.00000,0.00000,0.00000,32,7,65,23,28,0,72,6,ok,2,0,0.002,8,-0.3412,-0.59,0.38,10.10,40,0.152,8.21
7.8721,0.01222,0.02793,0.36826,0.00000,0.00000,0.00000,33,6,65,24,27,4,72,7,ok,2,0,0.002,8,-0.3450,-0.59,0.38,10.10,40,0.164,8.21
7.8849,0.01222,0.02793,0.36826,0.00000,0.00000,0.00000,34,6,65,25,26,6,72,8,ok,2,0,0.002,8,-0.3487,-0.59,0.38,10.10,40,0.177,8.21
7.9073,0.01222,0.02793,0.36826,0.00000,0.00000,0.00000,35,5,64,28,28,6,72,9,ok,2,0,0.002,8,-0.3525,-0.59,0.38,10.10,40,0.189,8.21
7.9107,-0.05061,-0.03840,0.38223,0.00000,0.00000,0.00000,36,4,64,29,29,5,72,11,ok,2,0,0.002,8,-0.3562,0.21,0.18,8.79,41,0.000,8.21
7.9233,-0.05061,-0.03840,0.38223,0.00000,0.00000,0.00000,37,4,65,28,30,3,72,12,ok,2,0,0.002,8,-0.3600,0.21,0.18,8.79,41,0.013,8.21
7.9433,-0.05061,-0.03840,0.38223,0.00000,0.00000,0.00000,38,3,68,25,31,2,73,15,ok,2,0,0.002,8,-0.3637,0.21,0.18,8.79,41,0.025,8.21
7.9482,-0.05061,-0.03840,0.38223,0.00000,0.00000,0.00000,39,2,70,21,32,2,73,16,ok,2,0,0.002,8,-0.3675,0.21,0.18,8.79,41,0.038,8.21
7.9606,-0.05061,-0.03840,0.38223,0.00000,0.00000,0.00000,39,2,71,17,33,2,72,18,ok,2,0,0.002,8,-0.3712,0.21,0.18,8.79,41,0.050,8.21
7.9833,-0.05061,-0.03840,0.38223,0.00000,0.00000,0.00000,40,2,72,15,34,1,72,19,ok,2,0,0.002,8,-0.3750,0.21,0.18,8.79,41,0.063,8.21
7.9867,-0.05061,-0.03840,0.38223,0.00000,0.00000,0.00000,41,1,72,14,37,1,73,20,ok,2,0,0.002,8,-0.3787,0.21,0.18,8.79,41,0.076,8.21
7.9992,-0.05061,-0.03840,0.38223,0.00000,0.00000,0.00000,42,1,72,11,37,1,72,22,ok,2,0,0.002,8,-0.3825,0.21,0.18,8.79,41,0.089,8.21
8.0193,-0.05061,-0.03840,0.38223,0.00000,0.00000,0.00000,43,1,71,8,39,1,72,23,ok,2,0,0.002,8,-0.3862,0.21,0.18,8.79,41,0.101,8.21
8.0244,-0.05061,-0.03840,0.38223,0.00000,0.00000,0.00000,44,1,71,5,40,1,72,24,ok,2,0,0.002,8,-0.3900,0.21,0.18,8.79,41,0.114,8.21
8.0366,-0.05061,-0.03840,0.38223,0.00000,0.00000,0.00000,45,0,70,3,41,1,72,26,ok,2,0,0.002,8,-0.3937,0.21,0.18,8.79,41,0.126,8.21
8.0593,-0.05061,-0.03840,0.38223,0.00000,0.00000,0.00000,46,0,69,1,42,0,72,28,ok,2,0,0.002,8,-0.3975,0.21,0.18,8.79,41,0.139,8.21
8.0625,-0.05061,-0.03840,0.38223,0.00000,0.00000,0.00000,47,0,68,-1,44,0,71,29,ok,2,0,0.002,8,-0.4012,0.21,0.18,8.79,41,0.152,8.21
8.0752,-0.05061,-0.03840,0.38223,0.00000,0.00000,0.00000,47,0,66,-2,45,-1,72,29,ok,2,0,0.002,8,-0.4050,0.21,0.18,8.79,41,0.165,8.21
8.0953,-0.05061,-0.03840,0.38223,0.00000,0.00000,0.00000,48,0,65,-4,46,-1,74,28,ok,2,0,0.002,8,-0.4087,0.21,0.18,8.79,41,0.177,8.21
8.1002,-0.05061,-0.03840,0.38223,0.00000,0.00000,0.00000,49,0,64,-6,47,-1,75,26,ok,2,0,0.002,8,-0.4125,0.21,0.18,8.79,41,0.190,8.21
8.1129,-0.12741,0.01396,0.39619,0.00000,0.00000,0.00000,49,2,61,-7,48,-1,77,20,ok,2,0,0.002,8,-0.4162,-1.77,-0.76,8.48,42,0.000,8.21
8.1353,-0.12741,0.01396,0.39619,0.00000,0.00000,0.00000,50,1,59,-8,49,-1,78,17,ok,2,0,0.002,8,-0.4200,-1.77,-0.76,8.48,42,0.013,8.21
8.1385,-0.12741,0.01396,0.39619,0.00000,0.00000,0.00000,51,1,56,-8,50,-1,80,14,ok,2,0,0.002,8,-0.4237,-1.77,-0.76,8.48,42,0.026,8.21
8.1513,-0.12741,0.01396,0.39619,0.00000,0.00000,0.00000,51,3,54,-9,52,-1,80,14,ok,2,0,0.002,8,-0.4275,-1.77,-0.76,8.48,42,0.039,8.21
8.1713,-0.12741,0.01396,0.39619,0.00000,0.00000,0.00000,51,5,51,-9,53,0,80,11,ok,2,0,0.002,8,-0.4312,-1.77,-0.76,8.48,42,0.051,8.21
8.1763,-0.12741,0.01396,0.39619,0.00000,0.00000,0.00000,52,4,49,-9,54,0,80,7,ok,2,0,0.002,8,-0.4350,-1.77,-0.76,8.48,42,0.063,8.21
8.1887,-0.12741,0.01396,0.39619,0.00000,0.00000,0.00000,52,5,46,-9,55,1,80,4,ok,2,0,0.002,8,-0.4387,-1.77,-0.76,8.48,42,0.076,8.21
8.2113,-0.12741,0.01396,0.39619,0.00000,0.00000,0.00000,52,6,43,-9,56,0,79,2,ok,2,0,0.002,8,-0.4425,-1.77,-0.76,8.48,42,0.089,8.21
8.2145,-0.12741,0.01396,0.39619,0.00000,0.00000,0.00000,53,6,41,-9,57,1,78,-2,ok,2,0,0.002,8,-0.4462,-1.77,-0.76,8.48,42,0.102,8.21
8.2273,-0.12741,0.01396,0.39619,0.00000,0.00000,0.00000,53,6,39,-8,58,0,78,-3,ok,2,0,0.002,8,-0.4500,-1.77,-0.76,8.48,42,0.115,8.21
8.2473,-0.12741,0.01396,0.39619,0.00000,0.00000,0.00000,54,7,36,-7,58,1,76,-5,ok,2,0,0.002,8,-0.4537,-1.77,-0.76,8.48,42,0.127,8.21
8.2522,-0.12741,0.01396,0.39619,0.00000,0.00000,0.00000,54,8,33,-6,59,1,74,-7,ok,2,0,0.002,8,-0.4575,-1.77,-0.76,8.48,42,0.139,8.21
8.2647,-0.12741,0.01396,0.39619,0.00000,0.00000,0.00000,54,8,29,-5,60,1,72,-7,ok,2,0,0.002,8,-0.4612,-1.77,-0.76,8.48,42,0.152,8.21
8.2873,-0.12741,0.01396,0.39619,0.00000,0.00000,0.00000,55,9,26,-3,61,1,70,-9,ok,2,0,0.002,8,-0.4650,-1.77,-0.76,8.48,42,0.165,8.21
8.2907,-0.12741,0.01396,0.39619,0.00000,0.00000,0.00000,56,10,22,-1,62,0,69,-11,ok,2,0,0.002,8,-0.4687,-1.77,-0.76,8.48,42,0.178,8.21
8.3035,-0.12741,0.01396,0.39619,0.00000,0.00000,0.00000,56,10,20,0,64,-2,67,-12,ok,2,0,0.002,8,-0.4725,-1.77,-0.76,8.48,42,0.191,8.21
8.3233,-0.01571,0.00175,0.37001,0.00000,0.00000,0.00000,56,11,18,1,65,-1,65,-13,ok,2,0,0.002,8,-0.4762,-0.32,0.38,10.56,43,0.000,8.21
8.3283,-0.01571,0.00175,0.37001,0.00000,0.00000,0.00000,56,11,16,3,65,0,63,-14,ok,2,0,0.002,8,-0.4800,-0.32,0.38,10.56,43,0.012,8.21
8.3407,-0.01571,0.00175,0.37001,0.00000,0.00000,0.00000,57,12,15,7,66,0,60,-14,ok,2,0,0.002,8,-0.4837,-0.32,0.38,10.56,43,0.025,8.21
8.3633,-0.01571,0.00175,0.37001,0.00000,0.00000,0.00000,57,13,13,10,66,1,59,-15,ok,2,0,0.002,8,-0.4875,-0.32,0.38,10.56,43,0.038,8.21
8.3667,-0.01571,0.00175,0.37001,0.00000,0.00000,0.00000,57,14,11,12,67,0,55,-13,ok,2,0,0.002,8,-0.4912,-0.32,0.38,10.56,43,0.051,8.21
8.3793,-0.01571,0.00175,0.37001,0.00000,0.00000,0.00000,57,15,13,13,68,1,53,-13,ok,2,0,0.002,8,-0.4950,-0.32,0.38,10.56,43,0.063,8.21
8.3993,-0.01571,0.00175,0.37001,0.00000,0.00000,0.00000,57,16,12,12,68,1,50,-12,ok,2,0,0.002,8,-0.4987,-0.32,0.38,10.56,43,0.076,8.21
8.4042,-0.01571,0.00175,0.37001,0.00000,0.00000,0.00000,57,17,14,11,69,1,47,-11,ok,2,0,0.002,8,-0.5025,-0.32,0.38,10.56,43,0.088,8.21
8.4168,-0.01571,0.00175,0.37001,0.00000,0.00000,0.00000,57,18,15,10,69,2,45,-11,ok,2,0,0.002,8,-0.5062,-0.32,0.38,10.56,43,0.101,8.21
8.4393,-0.01571,0.00175,0.37001,0.00000,0.00000,0.00000,58,18,16,10,69,2,41,-9,ok,2,0,0.002,8,-0.5100,-0.32,0.38,10.56,43,0.113,8.21
8.4424,-0.01571,0.00175,0.37001,0.00000,0.00000,0.00000,58,19,17,9,70,3,39,-9,ok,2,0,0.002,8,-0.5137,-0.32,0.38,10.56,43,0.127,8.21
8.4551,-0.01571,0.00175,0.37001,0.00000,0.00000,0.00000,58,20,18,8,70,4,35,-7,ok,2,0,0.002,8,-0.5175,-0.32,0.38,10.56,43,0.139,8.21
8.4753,-0.01571,0.00175,0.37001,0.00000,0.00000,0.00000,58,21,20,8,71,5,34,-5,ok,2,0,0.002,8,-0.5212,-0.32,0.38,10.56,43,0.152,8.21
8.4802,-0.01571,0.00175,0.37001,0.00000,0.00000,0.00000,58,22,21,7,71,6,32,-4,ok,2,0,0.002,8,-0.5250,-0.32,0.38,10.56,43,0.164,8.21
8.4926,-0.01571,0.00175,0.37001,0.00000,0.00000,0.00000,58,23,22,6,71,7,30,-1,ok,2,0,0.002,8,-0.5287,-0.32,0.38,10.56,43,0.177,8.21
8.5153,-0.01571,0.00175,0.37001,0.00000,0.00000,0.00000,58,24,23,6,71,8,29,2,ok,2,0,0.002,8,-0.5325,-0.32,0.38,10.56,43,0.189,8.21
8.5188,0.03142,-0.02967,0.36303,0.00000,0.00000,0.00000,57,25,25,5,71,9,27,5,ok,2,0,0.002,8,-0.5362,-0.94,0.61,10.13,44,0.000,8.21
8.5313,0.03142,-0.02967,0.36303,0.00000,0.00000,0.00000,57,28,26,5,71,10,27,7,ok,2,0,0.002,8,-0.5400,-0.94,0.61,10.13,44,0.013,8.21
8.5513,0.03142,-0.02967,0.36303,0.00000,0.00000,0.00000,56,29,27,4,71,12,29,6,ok,2,0,0.002,8,-0.5437,-0.94,0.61,10.13,44,0.025,8.21
8.5562,0.03142,-0.02967,0.36303,0.00000,0.00000,0.00000,57,28,29,3,71,13,29,5,ok,2,0,0.002,8,-0.5475,-0.94,0.61,10.13,44,0.038,8.21
8.5688,0.03142,-0.02967,0.36303,0.00000,0.00000,0.00000,58,25,30,3,72,14,30,3,ok,2,0,0.002,8,-0.5512,-0.94,0.61,10.13,44,0.050,8.21
8.5913,0.03142,-0.02967,0.36303,0.00000,0.00000,0.00000,59,21,31,2,71,15,32,3,ok,2,0,0.002,8,-0.5550,-0.94,0.61,10.13,44,0.063,8.21
8.5945,0.03142,-0.02967,0.36303,0.00000,0.00000,0.00000,59,17,33,2,71,18,33,3,ok,2,0,0.003,8,-0.5587,-0.94,0.61,10.13,44,0.076,8.21
8.6072,0.03142,-0.02967,0.36303,0.00000,0.00000,0.00000,60,15,34,2,72,18,34,2,ok,2,0,0.003,8,-0.5625,-0.94,0.61,10.13,44,0.089,8.21
8.6273,0.03142,-0.02967,0.36303,0.00000,0.00000,0.00000,59,14,35,1,71,20,36,1,ok,2,0,0.003,8,-0.5662,-0.94,0.61,10.13,44,0.101,8.21
8.6322,0.03142,-0.02967,0.36303,0.00000,0.00000,0.00000,59,11,37,1,71,22,38,1,ok,2,0,0.003,8,-0.5700,-0.94,0.61,10.13,44,0.114,8.21
8.6447,0.03142,-0.02967,0.36303,0.00000,0.00000,0.00000,59,7,38,2,71,23,39,2,ok,2,0,0.003,8,-0.5737,-0.94,0.61,10.13,44,0.126,8.21
8.6673,0.03142,-0.02967,0.36303,0.00000,0.00000,0.00000,58,5,39,2,71,25,40,1,ok,2,0,0.003,8,-0.5775,-0.94,0.61,10.13,44,0.139,8.21
8.6705,0.03142,-0.02967,0.36303,0.00000,0.00000,0.00000,58,1,41,2,70,27,42,1,ok,2,0,0.003,9,-0.5812,-0.94,0.61,10.13,44,0.152,8.21
8.6832,0.03142,-0.02967,0.36303,0.00000,0.00000,0.00000,57,-1,42,1,70,28,43,1,ok,2,0,0.003,9,-0.5850,-0.94,0.61,10.13,44,0.165,8.21
8.7033,0.03142,-0.02967,0.36303,0.00000,0.00000,0.00000,57,-3,44,2,71,28,44,1,ok,2,0,0.003,9,-0.5887,-0.94,0.61,10.13,44,0.177,8.21
8.7083,0.03142,-0.02967,0.36303,0.00000,0.00000,0.00000,56,-4,44,2,72,28,45,0,ok,2,0,0.003,9,-0.5924,-0.94,0.61,10.13,44,0.190,8.21
8.7209,-0.07854,-0.03840,0.40143,0.00000,0.00000,0.00000,55,-6,46,2,73,26,46,0,ok,2,0,0.003,9,-0.5961,0.21,-1.04,9.86,45,0.000,8.21
8.7433,-0.07854,-0.03840,0.40143,0.00000,0.00000,0.00000,55,-8,47,2,76,21,47,0,ok,2,0,0.003,9,-0.5999,0.21,-1.04,9.86,45,0.012,8.21
8.7464,-0.07854,-0.03840,0.40143,0.00000,0.00000,0.00000,54,-9,48,3,77,16,48,0,ok,2,0,0.003,9,-0.6000,0.21,-1.04,9.86,45,0.026,8.21
8.7592,-0.07854,-0.03840,0.40143,0.00000,0.00000,0.00000,53,-10,49,3,79,13,49,0,ok,2,0,0.003,9,-0.6000,0.21,-1.04,9.86,45,0.039,8.21
8.7793,-0.07854,-0.03840,0.40143,0.00000,0.00000,0.00000,52,-11,50,3,79,13,50,1,ok,2,0,0.003,9,-0.6000,0.21,-1.04,9.86,45,0.051,8.21
8.7843,-0.07854,-0.03840,0.40143,0.00000,0.00000,0.00000,51,-12,50,5,79,10,51,0,ok,2,0,0.003,9,-0.6000,0.21,-1.04,9.86,45,0.063,8.21
8.7966,-0.07854,-0.03840,0.40143,0.00000,0.00000,0.00000,50,-12,52,6,79,7,52,0,ok,2,0,0.003,9,-0.6000,0.21,-1.04,9.86,45,0.076,8.21
8.8193,-0.07854,-0.03840,0.40143,0.00000,0.00000,0.00000,49,-12,53,6,78,4,53,0,ok,2,0,0.003,9,-0.6000,0.21,-1.04,9.86,45,0.089,8.21
8.8227,-0.07854,-0.03840,0.40143,0.00000,0.00000,0.00000,48,-11,54,6,77,2,54,0,ok,2,0,0.003,9,-0.6000,0.21,-1.04,9.86,45,0.102,8.21
8.8352,-0.07854,-0.03840,0.40143,0.00000,0.00000,0.00000,47,-11,54,7,77,-2,54,1,ok,2,0,0.003,9,-0.6000,0.21,-1.04,9.86,45,0.115,8.21
8.8553,-0.07854,-0.03840,0.40143,0.00000,0.00000,0.00000,46,-11,56,7,76,-4,55,0,ok,2,0,0.003,9,-0.6000,0.21,-1.04,9.86,45,0.127,8.21
8.8602,-0.07854,-0.03840,0.40143,0.00000,0.00000,0.00000,45,-10,56,7,75,-5,56,0,ok,2,0,0.003,9,-0.6000,0.21,-1.04,9.86,45,0.140,8.21
8.8727,-0.07854,-0.03840,0.40143,0.00000,0.00000,0.00000,44,-9,57,8,73,-8,56,-1,ok,2,0,0.003,9,-0.6000,0.21,-1.04,9.86,45,0.152,8.21
8.8953,-0.07854,-0.03840,0.40143,0.00000,0.00000,0.00000,43,-8,58,8,71,-8,57,0,ok,2,0,0.003,9,-0.6000,0.21,-1.04,9.86,45,0.165,8.21
8.8985,-0.07854,-0.03840,0.40143,0.00000,0.00000,0.00000,42,-6,58,9,70,-10,57,0,ok,2,0,0.003,9,-0.6000,0.21,-1.04,9.86,45,0.178,8.21
8.9116,-0.07854,-0.03840,0.40143,0.00000,0.00000,0.00000,40,-4,59,9,68,-12,59,0,ok,2,0,0.003,9,-0.6000,0.21,-1.04,9.86,45,0.190,8.21
8.9313,0.04189,0.02269,0.41539,0.00000,0.00000,0.00000,39,-2,60,11,66,-13,59,0,ok,2,0,0.003,9,-0.6000,-0.10,0.75,9.91,46,0.000,8.21
8.9361,0.04189,0.02269,0.41539,0.00000,0.00000,0.00000,38,-1,61,11,64,-13,60,0,ok,2,0,0.003,9,-0.6000,-0.10,0.75,9.91,46,0.012,8.21
8.9486,0.04189,0.02269,0.41539,0.00000,0.00000,0.00000,37,0,62,11,62,-13,63,-3,ok,2,0,0.003,9,-0.6000,-0.10,0.75,9.91,46,0.025,8.21
8.9713,0.04189,0.02269,0.41539,0.00000,0.00000,0.00000,36,3,63,12,59,-14,63,-2,ok,2,0,0.003,9,-0.6000,-0.10,0.75,9.91,46,0.038,8.21
8.9745,0.04189,0.02269,0.41539,0.00000,0.00000,0.00000,36,7,63,13,58,-14,64,-2,ok,2,0,0.003,9,-0.6000,-0.10,0.75,9.91,46,0.051,8.21
8.9872,0.04189,0.02269,0.41539,0.00000,0.00000,0.00000,35,10,63,14,55,-14,65,-1,ok,2,0,0.003,9,-0.6000,-0.10,0.75,9.91,46,0.064,8.21
9.0073,0.04189,0.02269,0.41539,0.00000,0.00000,0.00000,34,13,64,15,52,-13,65,-1,ok,2,0,0.003,9,-0.6000,-0.10,0.75,9.91,46,0.076,8.21
9.0122,0.04189,0.02269,0.41539,0.00000,0.00000,0.00000,35,13,64,15,50,-13,66,0,ok,2,0,0.003,9,-0.6000,-0.10,0.75,9.91,46,0.089,8.21
9.0246,0.04189,0.02269,0.41539,0.00000,0.00000,0.00000,35,13,64,17,47,-12,67,-1,ok,2,0,0.003,9,-0.6000,-0.10,0.75,9.91,46,0.101,8.21
9.0473,0.04189,0.02269,0.41539,0.00000,0.00000,0.00000,36,12,64,17,44,-11,68,0,ok,2,0,0.003,9,-0.6000,-0.10,0.75,9.91,46,0.114,8.21
9.0507,0.04189,0.02269,0.41539,0.00000,0.00000,0.00000,36,12,64,18,41,-10,69,1,ok,2,0,0.003,9,-0.6000,-0.10,0.75,9.91,46,0.127,8.21
9.0632,0.04189,0.02269,0.41539,0.00000,0.00000,0.00000,36,11,65,18,38,-9,69,2,ok,2,0,0.003,9,-0.6000,-0.10,0.75,9.91,46,0.140,8.21
9.0833,0.04189,0.02269,0.41539,0.00000,0.00000,0.00000,37,10,65,19,35,-8,70,2,ok,2,0,0.003,9,-0.6000,-0.10,0.75,9.91,46,0.152,8.21
9.0881,0.04189,0.02269,0.41539,0.00000,0.00000,0.00000,38,10,65,20,33,-6,71,3,ok,2,0,0.003,9,-0.6000,-0.10,0.75,9.91,46,0.164,8.21
9.1006,0.04189,0.02269,0.41539,0.00000,0.00000,0.00000,38,8,66,21,32,-5,71,4,ok,2,0,0.003,9,-0.6000,-0.10,0.75,9.91,46,0.177,8.21
9.1233,0.04189,0.02269,0.41539,0.00000,0.00000,0.00000,39,8,66,22,29,-2,72,5,ok,2,0,0.003,9,-0.6000,-0.10,0.75,9.91,46,0.189,8.21
9.1267,0.05061,0.05934,0.36477,0.00000,0.00000,0.00000,39,7,65,23,28,0,72,6,ok,2,0,0.003,9,-0.5962,1.25,2.06,10.81,47,0.000,8.21
9.1400,0.05061,0.05934,0.36477,0.00000,0.00000,0.00000,39,6,65,24,27,4,72,7,ok,2,0,0.003,9,-0.5925,1.25,2.06,10.81,47,0.013,8.21
9.1594,0.05061,0.05934,0.36477,0.00000,0.00000,0.00000,40,6,65,25,26,7,72,8,ok,2,0,0.003,9,-0.5887,1.25,2.06,10.81,47,0.025,8.21
9.1644,0.05061,0.05934,0.36477,0.00000,0.00000,0.00000,40,6,64,27,28,6,72,9,ok,2,0,0.003,9,-0.5850,1.25,2.06,10.81,47,0.038,8.21
9.1768,0.05061,0.05934,0.36477,0.00000,0.00000,0.00000,41,5,63,29,29,6,72,11,ok,2,0,0.003,9,-0.5812,1.25,2.06,10.81,47,0.050,8.21
9.1994,0.05061,0.05934,0.36477,0.00000,0.00000,0.00000,41,4,65,27,30,4,72,12,ok,2,0,0.003,9,-0.5775,1.25,2.06,10.81,47,0.063,8.21
9.2031,0.05061,0.05934,0.36477,0.00000,0.00000,0.00000,42,3,67,24,31,3,73,14,ok,2,0,0.003,9,-0.5737,1.25,2.06,10.81,47,0.076,8.21
9.2159,0.05061,0.05934,0.36477,0.00000,0.00000,0.00000,42,3,70,21,32,3,73,16,ok,2,0,0.003,9,-0.5700,1.25,2.06,10.81,47,0.089,8.21
9.2353,0.05061,0.05934,0.36477,0.00000,0.00000,0.00000,43,2,71,17,33,2,72,17,ok,2,0,0.003,9,-0.5662,1.25,2.06,10.81,47,0.101,8.21
9.2403,0.05061,0.05934,0.36477,0.00000,0.00000,0.00000,43,2,71,15,34,1,73,19,ok,2,0,0.003,9,-0.5625,1.25,2.06,10.81,47,0.114,8.21
9.2528,0.05061,0.05934,0.36477,0.00000,0.00000,0.00000,44,1,71,14,37,2,73,20,ok,2,0,0.003,9,-0.5587,1.25,2.06,10.81,47,0.126,8.21
9.2753,0.05061,0.05934,0.36477,0.00000,0.00000,0.00000,44,1,71,11,37,2,72,22,ok,2,0,0.003,9,-0.5550,1.25,2.06,10.81,47,0.139,8.21
9.2785,0.05061,0.05934,0.36477,0.00000,0.00000,0.00000,45,1,71,8,39,2,72,23,ok,2,0,0.003,9,-0.5554,1.25,2.06,10.81,47,0.152,8.21
9.2913,0.05061,0.05934,0.36477,0.00000,0.00000,0.00000,46,1,70,5,40,1,73,25,ok,2,0,0.003,9,-0.5573,1.25,2.06,10.81,47,0.165,8.21
9.3114,0.05061,0.05934,0.36477,0.00000,0.00000,0.00000,46,0,70,3,41,2,73,26,ok,2,0,0.003,9,-0.5591,1.25,2.06,10.81,47,0.177,8.21
9.3175,-0.16930,-0.04363,0.28100,0.00000,0.00000,0.00000,47,0,68,1,42,1,72,28,ok,2,0,0.003,9,-0.5441,-0.43,-2.48,9.78,48,0.000,8.21
9.3292,-0.16930,-0.04363,0.28100,0.00000,0.00000,0.00000,48,0,68,-1,44,0,72,29,ok,2,0,0.003,9,-0.5291,-0.43,-2.48,9.78,48,0.013,8.21
9.3513,-0.16930,-0.04363,0.28100,0.00000,0.00000,0.00000,48,-1,65,-2,45,-1,73,30,ok,2,0,0.003,9,-0.5141,-0.43,-2.48,9.78,48,0.025,8.21
9.3548,-0.16930,-0.04363,0.28100,0.00000,0.00000,0.00000,48,0,64,-4,46,-1,74,29,ok,2,0,0.003,9,-0.4991,-0.43,-2.48,9.78,48,0.039,8.21
9.3699,-0.16930,-0.04363,0.28100,0.00000,0.00000,0.00000,49,0,64,-6,47,-1,76,27,ok,2,0,0.003,9,-0.4841,-0.43,-2.48,9.78,48,0.051,8.21
9.3914,-0.16930,-0.04363,0.28100,0.00000,0.00000,0.00000,49,1,62,-7,48,-1,78,21,ok,2,0,0.003,9,-0.4691,-0.43,-2.48,9.78,48,0.064,8.21
9.3951,-0.16930,-0.04363,0.28100,0.00000,0.00000,0.00000,50,1,59,-8,49,-1,79,17,ok,2,0,0.003,9,-0.4541,-0.43,-2.48,9.78,48,0.079,8.21
9.4080,-0.16930,-0.04363,0.28100,0.00000,0.00000,0.00000,50,1,57,-8,50,-1,81,14,ok,2,0,0.003,9,-0.4391,-0.43,-2.48,9.78,48,0.091,8.21
9.4273,-0.16930,-0.04363,0.28100,0.00000,0.00000,0.00000,50,3,55,-9,52,-1,81,14,ok,2,0,0.003,9,-0.4241,-0.43,-2.48,9.78,48,0.104,8.21
9.4325,-0.16930,-0.04363,0.28100,0.00000,0.00000,0.00000,51,4,52,-9,53,0,80,10,ok,2,0,0.003,9,-0.4091,-0.43,-2.48,9.78,48,0.116,8.21
9.4484,-0.16930,-0.04363,0.28100,0.00000,0.00000,0.00000,51,4,49,-9,54,0,80,7,ok,2,0,0.003,9,-0.3941,-0.43,-2.48,9.78,48,0.129,8.21
9.4675,-0.16930,-0.04363,0.28100,0.00000,0.00000,0.00000,52,5,47,-9,55,0,79,4,ok,2,0,0.003,9,-0.3791,-0.43,-2.48,9.78,48,0.141,8.21
9.4734,-0.16930,-0.04363,0.28100,0.00000,0.00000,0.00000,52,6,44,-9,56,0,79,2,ok,2,0,0.003,9,-0.3641,-0.43,-2.48,9.78,48,0.155,8.21
9.4844,-0.16930,-0.04363,0.28100,0.00000,0.00000,0.00000,53,6,42,-9,57,0,77,-2,ok,2,0,0.003,9,-0.3491,-0.43,-2.48,9.78,48,0.167,8.21
9.5076,-0.16930,-0.04363,0.28100,0.00000,0.00000,0.00000,53,6,39,-8,58,0,77,-3,ok,2,0,0.003,9,-0.3341,-0.43,-2.48,9.78,48,0.180,8.21
9.5116,-0.16930,-0.04363,0.28100,0.00000,0.00000,0.00000,55,7,36,-7,58,0,76,-5,ok,2,0,0.003,9,-0.3191,-0.43,-2.48,9.78,48,0.195,8.21
9.5287,-0.09774,-0.02443,0.25656,0.00000,0.00000,0.00000,55,8,33,-6,59,0,74,-7,ok,2,0,0.003,9,-0.3041,-0.02,-0.53,10.64,49,0.000,8.21
9.5476,-0.09774,-0.02443,0.25656,0.00000,0.00000,0.00000,56,8,29,-5,60,1,71,-7,ok,2,0,0.003,9,-0.2891,-0.02,-0.53,10.64,49,0.010,8.21
9.5513,-0.09774,-0.02443,0.25656,0.00000,0.00000,0.00000,56,9,27,-3,61,1,70,-9,ok,2,0,0.003,9,-0.2741,-0.02,-0.53,10.64,49,0.025,8.21
9.5640,-0.09774,-0.02443,0.25656,0.00000,0.00000,0.00000,57,10,22,-1,62,0,69,-11,ok,2,0,0.003,9,-0.2591,-0.02,-0.53,10.64,49,0.037,8.21
9.5873,-0.09774,-0.02443,0.25656,0.00000,0.00000,0.00000,58,10,21,0,64,-2,67,-12,ok,2,0,0.003,9,-0.2441,-0.02,-0.53,10.64,49,0.050,8.21
9.5905,-0.09774,-0.02443,0.25656,0.00000,0.00000,0.00000,59,11,19,1,65,-1,64,-13,ok,2,0,0.003,9,-0.2291,-0.02,-0.53,10.64,49,0.064,8.21
9.6033,-0.09774,-0.02443,0.25656,0.00000,0.00000,0.00000,59,12,16,3,65,0,62,-14,ok,2,0,0.003,9,-0.2141,-0.02,-0.53,10.64,49,0.077,8.21
9.6275,-0.09774,-0.02443,0.25656,0.00000,0.00000,0.00000,60,12,15,7,66,-1,60,-14,ok,2,0,0.003,9,-0.1991,-0.02,-0.53,10.64,49,0.092,8.21
9.6309,-0.09774,-0.02443,0.25656,0.00000,0.00000,0.00000,60,14,13,10,66,0,58,-15,ok,2,0,0.003,9,-0.1954,-0.02,-0.53,10.64,49,0.105,8.21
9.6442,-0.09774,-0.02443,0.25656,0.00000,0.00000,0.00000,61,14,11,12,67,0,55,-13,ok,2,0,0.003,9,-0.1916,-0.02,-0.53,10.64,49,0.117,8.21
9.6675,-0.09774,-0.02443,0.25656,0.00000,0.00000,0.00000,61,15,13,13,67,0,52,-13,ok,2,0,0.003,9,-0.1879,-0.02,-0.53,10.64,49,0.130,8.21
9.6720,-0.09774,-0.02443,0.25656,0.00000,0.00000,0.00000,61,16,13,12,68,0,50,-12,ok,2,0,0.003,9,-0.1841,-0.02,-0.53,10.64,49,0.145,8.21
9.6861,-0.09774,-0.02443,0.25656,0.00000,0.00000,0.00000,62,17,14,11,69,1,47,-11,ok,2,0,0.003,9,-0.1804,-0.02,-0.53,10.64,49,0.157,8.21
9.7077,-0.09774,-0.02443,0.25656,0.00000,0.00000,0.00000,62,18,15,11,69,2,45,-11,ok,2,0,0.003,9,-0.1766,-0.02,-0.53,10.64,49,0.170,8.21
9.7117,-0.09774,-0.02443,0.25656,0.00000,0.00000,0.00000,62,18,16,10,69,2,41,-9,ok,2,0,0.003,10,-0.1729,-0.02,-0.53,10.64,49,0.185,8.21
9.7242,0.00175,-0.07505,0.24435,0.00000,0.00000,0.00000,63,18,17,9,70,3,39,-9,ok,2,0,0.003,10,-0.1691,-0.27,-0.19,11.09,50,0.000,8.21
9.7475,0.00175,-0.07505,0.24435,0.00000,0.00000,0.00000,63,20,18,9,70,4,35,-7,ok,2,0,0.003,10,-0.1654,-0.27,-0.19,11.09,50,0.012,8.21
9.7510,0.00175,-0.07505,0.24435,0.00000,0.00000,0.00000,64,21,20,8,71,5,34,-6,ok,2,0,0.003,10,-0.1616,-0.27,-0.19,11.09,50,0.027,8.21
9.7636,0.00175,-0.07505,0.24435,0.00000,0.00000,0.00000,64,22,21,7,71,6,32,-4,ok,2,0,0.003,10,-0.1579,-0.27,-0.19,11.09,50,0.040,8.21
9.7874,0.00175,-0.07505,0.24435,0.00000,0.00000,0.00000,64,23,23,6,71,7,30,-1,ok,2,0,0.003,10,-0.1541,-0.27,-0.19,11.09,50,0.052,8.21
9.7911,0.00175,-0.07505,0.24435,0.00000,0.00000,0.00000,64,24,24,6,71,8,28,1,ok,2,0,0.003,10,-0.1504,-0.27,-0.19,11.09,50,0.067,8.21
9.8037,0.00175,-0.07505,0.24435,0.00000,0.00000,0.00000,64,25,25,5,71,8,27,5,ok,2,0,0.003,10,-0.1466,-0.27,-0.19,11.09,50,0.080,8.21
9.8233,0.00175,-0.07505,0.24435,0.00000,0.00000,0.00000,63,28,26,5,71,9,26,7,ok,2,0,0.003,10,-0.1429,-0.27,-0.19,11.09,50,0.092,8.21
9.8286,0.00175,-0.07505,0.24435,0.00000,0.00000,0.00000,62,29,28,4,71,11,29,6,ok,2,0,0.003,10,-0.1391,-0.27,-0.19,11.09,50,0.105,8.21
9.8409,0.00175,-0.07505,0.24435,0.00000,0.00000,0.00000,64,28,29,3,71,12,29,5,ok,2,0,0.003,10,-0.1354,-0.27,-0.19,11.09,50,0.117,8.21
9.8633,0.00175,-0.07505,0.24435,0.00000,0.00000,0.00000,66,25,30,3,72,14,30,3,ok,2,0,0.003,10,-0.1316,-0.27,-0.19,11.09,50,0.130,8.21
9.8667,0.00175,-0.07505,0.24435,0.00000,0.00000,0.00000,67,21,31,2,71,15,31,2,ok,2,0,0.003,10,-0.1279,-0.27,-0.19,11.09,50,0.143,8.21
9.8795,0.00175,-0.07505,0.24435,0.00000,0.00000,0.00000,68,17,33,2,71,17,33,2,ok,2,0,0.003,10,-0.1241,-0.27,-0.19,11.09,50,0.156,8.21
9.8993,0.00175,-0.07505,0.24435,0.00000,0.00000,0.00000,68,15,34,2,72,18,34,2,ok,2,0,0.003,10,-0.1204,-0.27,-0.19,11.09,50,0.168,8.21
9.9042,0.00175,-0.07505,0.24435,0.00000,0.00000,0.00000,69,14,36,2,71,20,36,1,ok,2,0,0.003,10,-0.1166,-0.27,-0.19,11.09,50,0.181,8.21
9.9168,0.00175,-0.07505,0.24435,0.00000,0.00000,0.00000,69,11,37,2,71,21,38,1,ok,2,0,0.003,10,-0.1129,-0.27,-0.19,11.09,50,0.193,8.21
9.9394,0.01745,-0.01571,0.26878,0.00000,0.00000,0.00000,68,7,38,2,71,23,38,1,ok,2,0,0.003,10,-0.1091,1.12,-0.89,10.41,51,0.000,8.21
9.9431,0.01745,-0.01571,0.26878,0.00000,0.00000,0.00000,68,5,39,2,71,25,40,1,ok,2,0,0.003,10,-0.1054,1.12,-0.89,10.41,51,0.014,8.21
9.9557,0.01745,-0.01571,0.26878,0.00000,0.00000,0.00000,67,2,41,2,71,27,41,1,ok,2,0,0.003,10,-0.1016,1.12,-0.89,10.41,51,0.026,8.21
9.9753,0.01745,-0.01571,0.26878,0.00000,0.00000,0.00000,65,0,42,1,70,28,42,1,ok,2,0,0.003,10,-0.0979,1.12,-0.89,10.41,51,0.039,8.21
9.9804,0.01745,-0.01571,0.26878,0.00000,0.00000,0.00000,64,-3,44,2,71,28,43,1,ok,2,0,0.003,10,-0.0941,1.12,-0.89,10.41,51,0.051,8.21
9.9930,0.01745,-0.01571,0.26878,0.00000,0.00000,0.00000,63,-4,44,2,72,28,45,0,ok,2,0,0.003,10,-0.0904,1.12,-0.89,10.41,51,0.064,8.21
10.0153,0.01745,-0.01571,0.26878,0.00000,0.00000,0.00000,62,-6,46,2,74,25,46,0,ok,2,0,0.003,10,-0.0866,1.12,-0.89,10.41,51,0.076,8.21
10.0274,0.01745,-0.01571,0.26878,0.00000,0.00000,0.00000,61,-8,47,2,76,21,47,0,ok,2,0,0.003,10,-0.0829,1.12,-0.89,10.41,51,0.089,8.21
10.0312,0.01745,-0.01571,0.26878,0.00000,0.00000,0.00000,59,-9,48,3,77,16,48,0,ok,2,0,0.003,10,-0.0791,1.12,-0.89,10.41,51,0.102,8.21
10.0554,0.01745,-0.01571,0.26878,0.00000,0.00000,0.00000,57,-10,49,3,79,14,49,0,ok,2,0,0.003,10,-0.0754,1.12,-0.89,10.41,51,0.114,8.21
10.0588,0.01745,-0.01571,0.26878,0.00000,0.00000,0.00000,55,-11,50,3,79,13,49,0,ok,2,0,0.003,10,-0.0716,1.12,-0.89,10.41,51,0.129,8.21
10.0715,0.01745,-0.01571,0.26878,0.00000,0.00000,0.00000,53,-12,50,5,79,11,51,0,ok,2,0,0.003,10,-0.0679,1.12,-0.89,10.41,51,0.142,8.21
10.0913,0.01745,-0.01571,0.26878,0.00000,0.00000,0.00000,50,-11,52,6,79,7,52,0,ok,2,0,0.003,10,-0.0641,1.12,-0.89,10.41,51,0.155,8.21
10.0964,0.01745,-0.01571,0.26878,0.00000,0.00000,0.00000,48,-11,53,5,78,4,53,0,ok,2,0,0.003,10,-0.0604,1.12,-0.89,10.41,51,0.167,8.21
10.1104,0.01745,-0.01571,0.26878,0.00000,0.00000,0.00000,46,-11,53,6,77,2,54,0,ok,2,0,0.003,10,-0.0566,1.12,-0.89,10.41,51,0.180,8.21
10.1315,0.01745,-0.01571,0.26878,0.00000,0.00000,0.00000,43,-11,54,7,77,-2,54,1,ok,2,0,0.003,10,-0.0529,1.12,-0.89,10.41,51,0.192,8.21
10.1352,0.03840,-0.05236,0.27576,0.00000,0.00000,0.00000,42,-11,56,7,76,-4,55,-1,ok,2,0,0.003,10,-0.0566,-0.65,0.51,9.91,52,0.000,8.21
10.1507,0.03840,-0.05236,0.27576,0.00000,0.00000,0.00000,39,-10,56,7,75,-5,56,0,ok,2,0,0.003,10,-0.0604,-0.65,0.51,9.91,52,0.013,8.21
10.1673,0.03840,-0.05236,0.27576,0.00000,0.00000,0.00000,36,-9,57,7,73,-8,57,-1,ok,2,0,0.003,10,-0.0641,-0.65,0.51,9.91,52,0.025,8.21
10.1725,0.03840,-0.05236,0.27576,0.00000,0.00000,0.00000,33,-8,58,8,71,-8,57,0,ok,2,0,0.003,10,-0.0679,-0.65,0.51,9.91,52,0.038,8.21
10.1856,0.03840,-0.05236,0.27576,0.00000,0.00000,0.00000,31,-6,59,8,69,-10,57,0,ok,2,0,0.003,10,-0.0716,-0.65,0.51,9.91,52,0.050,8.21
10.2115,0.03840,-0.05236,0.27576,0.00000,0.00000,0.00000,28,-4,59,9,68,-11,59,0,ok,2,0,0.003,10,-0.0754,-0.65,0.51,9.91,52,0.063,8.21
10.2149,0.03840,-0.05236,0.27576,0.00000,0.00000,0.00000,24,-2,60,11,66,-13,60,0,ok,2,0,0.003,10,-0.0791,-0.65,0.51,9.91,52,0.080,8.21
10.2278,0.03840,-0.05236,0.27576,0.00000,0.00000,0.00000,22,-1,61,11,64,-14,61,0,ok,2,0,0.003,10,-0.0829,-0.65,0.51,9.91,52,0.093,8.21
10.2514,0.03840,-0.05236,0.27576,0.00000,0.00000,0.00000,22,1,62,11,62,-14,63,-3,ok,2,0,0.003,10,-0.0866,-0.65,0.51,9.91,52,0.105,8.21
10.2552,0.03840,-0.05236,0.27576,0.00000,0.00000,0.00000,20,3,63,12,59,-15,63,-2,ok,2,0,0.003,10,-0.0904,-0.65,0.51,9.91,52,0.120,8.21
10.2738,0.03840,-0.05236,0.27576,0.00000,0.00000,0.00000,17,7,63,13,58,-15,64,-2,ok,2,0,0.003,10,-0.0941,-0.65,0.51,9.91,52,0.136,8.21
10.2955,0.03840,-0.05236,0.27576,0.00000,0.00000,0.00000,17,10,63,14,55,-14,65,-1,ok,2,0,0.003,10,-0.0979,-0.65,0.51,9.91,52,0.145,8.21
10.2989,0.03840,-0.05236,0.27576,0.00000,0.00000,0.00000,15,12,64,15,52,-13,65,-1,ok,2,0,0.003,10,-0.0995,-0.65,0.51,9.91,52,0.164,8.21
10.3118,0.03840,-0.05236,0.27576,0.00000,0.00000,0.00000,17,13,64,16,49,-13,66,0,ok,2,0,0.003,10,-0.1008,-0.65,0.51,9.91,52,0.177,8.21
10.3354,0.03840,-0.05236,0.27576,0.00000,0.00000,0.00000,17,13,64,17,46,-12,67,-1,ok,2,0,0.003,10,-0.1020,-0.65,0.51,9.91,52,0.189,8.21
10.3391,0.00349,0.03316,0.29147,0.00000,0.00000,0.00000,18,12,65,17,44,-12,68,0,ok,2,0,0.003,10,-0.1057,-0.27,-0.07,8.46,53,0.000,8.21
10.3518,0.00349,0.03316,0.29147,0.00000,0.00000,0.00000,19,12,65,18,41,-10,69,0,ok,2,0,0.003,10,-0.1095,-0.27,-0.07,8.46,53,0.013,8.21
10.3713,0.00349,0.03316,0.29147,0.00000,0.00000,0.00000,20,11,65,19,38,-10,69,2,ok,2,0,0.003,10,-0.1132,-0.27,-0.07,8.46,53,0.025,8.21
10.3765,0.00349,0.03316,0.29147,0.00000,0.00000,0.00000,22,10,65,19,35,-8,69,2,ok,2,0,0.003,10,-0.1170,-0.27,-0.07,8.46,53,0.038,8.21
10.3889,0.00349,0.03316,0.29147,0.00000,0.00000,0.00000,22,10,65,20,33,-7,70,3,ok,2,0,0.003,10,-0.1207,-0.27,-0.07,8.46,53,0.050,8.21
10.4113,0.00349,0.03316,0.29147,0.00000,0.00000,0.00000,25,8,66,21,32,-5,70,4,ok,2,0,0.003,10,-0.1245,-0.27,-0.07,8.46,53,0.063,8.21
10.4148,0.00349,0.03316,0.29147,0.00000,0.00000,0.00000,26,8,66,22,29,-2,71,5,ok,2,0,0.003,10,-0.1282,-0.27,-0.07,8.46,53,0.076,8.21
10.4272,0.00349,0.03316,0.29147,0.00000,0.00000,0.00000,27,7,65,23,28,0,71,6,ok,2,0,0.003,10,-0.1320,-0.27,-0.07,8.46,53,0.088,8.21
10.4474,0.00349,0.03316,0.29147,0.00000,0.00000,0.00000,28,6,65,24,27,4,71,7,ok,2,0,0.003,10,-0.1357,-0.27,-0.07,8.46,53,0.101,8.21
10.4522,0.00349,0.03316,0.29147,0.00000,0.00000,0.00000,29,6,65,25,26,6,72,8,ok,2,0,0.003,10,-0.1395,-0.27,-0.07,8.46,53,0.113,8.21
10.4649,0.00349,0.03316,0.29147,0.00000,0.00000,0.00000,30,5,64,28,28,6,72,9,ok,2,0,0.003,10,-0.1432,-0.27,-0.07,8.46,53,0.126,8.21
10.4874,0.00349,0.03316,0.29147,0.00000,0.00000,0.00000,31,4,64,29,29,5,72,11,ok,2,0,0.003,10,-0.1470,-0.27,-0.07,8.46,53,0.139,8.21
10.4908,0.00349,0.03316,0.29147,0.00000,0.00000,0.00000,32,4,65,27,30,3,72,12,ok,2,0,0.003,10,-0.1507,-0.27,-0.07,8.46,53,0.152,8.21
10.5037,0.00349,0.03316,0.29147,0.00000,0.00000,0.00000,33,3,68,24,31,2,73,14,ok,2,0,0.003,10,-0.1545,-0.27,-0.07,8.46,53,0.165,8.21
10.5279,0.00349,0.03316,0.29147,0.00000,0.00000,0.00000,34,3,70,21,32,2,73,16,ok,2,0,0.003,10,-0.1582,-0.27,-0.07,8.46,53,0.177,8.21
10.5326,0.00349,0.03316,0.29147,0.00000,0.00000,0.00000,36,2,71,17,33,2,72,17,ok,2,0,0.003,10,-0.1620,-0.27,-0.07,8.46,53,0.192,8.21
10.5454,-0.00698,-0.01396,0.26704,0.00000,0.00000,0.00000,37,2,71,15,34,1,72,19,ok,2,0,0.003,10,-0.1582,-0.17,-0.13,10.45,54,0.000,8.21
10.5632,-0.00698,-0.01396,0.26704,0.00000,0.00000,0.00000,38,1,71,14,37,1,73,20,ok,2,0,0.003,10,-0.1545,-0.17,-0.13,10.45,54,0.012,8.21
10.5690,-0.00698,-0.01396,0.26704,0.00000,0.00000,0.00000,39,1,71,11,37,1,72,22,ok,2,0,0.003,10,-0.1507,-0.17,-0.13,10.45,54,0.024,8.21
10.5815,-0.00698,-0.01396,0.26704,0.00000,0.00000,0.00000,41,1,71,8,39,1,72,23,ok,2,0,0.003,10,-0.1470,-0.17,-0.13,10.45,54,0.037,8.21
10.6035,-0.00698,-0.01396,0.26704,0.00000,0.00000,0.00000,41,1,70,5,40,1,72,24,ok,2,0,0.003,10,-0.1432,-0.17,-0.13,10.45,54,0.049,8.21
10.6076,-0.00698,-0.01396,0.26704,0.00000,0.00000,0.00000,43,0,70,3,41,1,72,26,ok,2,0,0.003,10,-0.1395,-0.17,-0.13,10.45,54,0.062,8.21
10.6197,-0.00698,-0.01396,0.26704,0.00000,0.00000,0.00000,44,0,69,1,42,0,72,27,ok,2,0,0.003,10,-0.1357,-0.17,-0.13,10.45,54,0.075,8.21
10.6435,-0.00698,-0.01396,0.26704,0.00000,0.00000,0.00000,46,0,68,-1,44,0,72,29,ok,2,0,0.003,10,-0.1320,-0.17,-0.13,10.45,54,0.087,8.21
10.6474,-0.00698,-0.01396,0.26704,0.00000,0.00000,0.00000,46,0,66,-2,45,-1,73,29,ok,2,0,0.003,10,-0.1282,-0.17,-0.13,10.45,54,0.102,8.21
10.6599,-0.00698,-0.01396,0.26704,0.00000,0.00000,0.00000,46,0,65,-4,46,0,74,28,ok,2,0,0.003,10,-0.1245,-0.17,-0.13,10.45,54,0.115,8.21
10.6835,-0.00698,-0.01396,0.26704,0.00000,0.00000,0.00000,48,1,64,-6,48,0,76,26,ok,2,0,0.003,10,-0.1207,-0.17,-0.13,10.45,54,0.128,8.21
10.6919,-0.00698,-0.01396,0.26704,0.00000,0.00000,0.00000,49,2,61,-7,48,0,77,20,ok,2,0,0.003,10,-0.1170,-0.17,-0.13,10.45,54,0.142,8.21
10.7003,-0.00698,-0.01396,0.26704,0.00000,0.00000,0.00000,50,1,59,-8,49,0,79,17,ok,2,0,0.003,10,-0.1132,-0.17,-0.13,10.45,54,0.155,8.21
10.7234,-0.00698,-0.01396,0.26704,0.00000,0.00000,0.00000,50,1,57,-9,50,0,80,14,ok,2,0,0.003,10,-0.1130,-0.17,-0.13,10.45,54,0.167,8.21
10.7268,-0.00698,-0.01396,0.26704,0.00000,0.00000,0.00000,51,3,54,-10,52,0,80,13,ok,2,0,0.003,10,-0.1142,-0.17,-0.13,10.45,54,0.182,8.21
10.7413,-0.00698,-0.01396,0.26704,0.00000,0.00000,0.00000,52,5,51,-9,53,0,80,10,ok,2,0,0.003,10,-0.1153,-0.17,-0.13,10.45,54,0.196,8.21
10.7634,-0.16232,-0.00524,0.35081,0.00000,0.00000,0.00000,52,4,49,-9,54,0,80,7,ok,2,0,0.003,11,-0.1191,0.54,-1.47,10.12,55,0.000,8.21
10.7669,-0.16232,-0.00524,0.35081,0.00000,0.00000,0.00000,53,5,46,-9,55,0,80,4,ok,2,0,0.003,11,-0.1228,0.54,-1.47,10.12,55,0.015,8.21
10.7794,-0.16232,-0.00524,0.35081,0.00000,0.00000,0.00000,53,6,43,-9,56,0,79,2,ok,2,0,0.003,11,-0.1266,0.54,-1.47,10.12,55,0.027,8.21
10.7993,-0.16232,-0.00524,0.35081,0.00000,0.00000,0.00000,55,6,41,-9,57,1,78,-1,ok,2,0,0.003,11,-0.1303,0.54,-1.47,10.12,55,0.040,8.21
10.8044,-0.16232,-0.00524,0.35081,0.00000,0.00000,0.00000,55,6,39,-8,58,0,78,-3,ok,2,0,0.003,11,-0.1341,0.54,-1.47,10.12,55,0.052,8.21
10.8169,-0.16232,-0.00524,0.35081,0.00000,0.00000,0.00000,56,7,35,-7,58,0,76,-5,ok,2,0,0.003,11,-0.1378,0.54,-1.47,10.12,55,0.065,8.21
10.8393,-0.16232,-0.00524,0.35081,0.00000,0.00000,0.00000,57,7,33,-6,59,1,75,-7,ok,2,0,0.003,11,-0.1416,0.54,-1.47,10.12,55,0.077,8.21
10.8426,-0.16232,-0.00524,0.35081,0.00000,0.00000,0.00000,57,8,29,-5,60,1,72,-7,ok,2,0,0.003,11,-0.1453,0.54,-1.47,10.12,55,0.091,8.21
10.8554,-0.16232,-0.00524,0.35081,0.00000,0.00000,0.00000,58,8,26,-3,61,1,71,-9,ok,2,0,0.003,11,-0.1491,0.54,-1.47,10.12,55,0.103,8.21
10.8755,-0.16232,-0.00524,0.35081,0.00000,0.00000,0.00000,59,10,22,-1,62,0,69,-11,ok,2,0,0.003,11,-0.1528,0.54,-1.47,10.12,55,0.116,8.21
10.8809,-0.16232,-0.00524,0.35081,0.00000,0.00000,0.00000,59,10,20,0,64,-2,67,-12,ok,2,0,0.003,11,-0.1566,0.54,-1.47,10.12,55,0.128,8.21
10.8929,-0.16232,-0.00524,0.35081,0.00000,0.00000,0.00000,60,10,19,1,65,-1,64,-13,ok,2,0,0.003,11,-0.1603,0.54,-1.47,10.12,55,0.141,8.21
10.9154,-0.16232,-0.00524,0.35081,0.00000,0.00000,0.00000,60,11,16,3,65,0,63,-13,ok,2,0,0.003,11,-0.1641,0.54,-1.47,10.12,55,0.153,8.21
10.9213,-0.16232,-0.00524,0.35081,0.00000,0.00000,0.00000,61,12,15,7,66,-1,60,-14,ok,2,0,0.003,11,-0.1678,0.54,-1.47,10.12,55,0.167,8.21
10.9352,-0.16232,-0.00524,0.35081,0.00000,0.00000,0.00000,61,13,13,10,67,0,58,-14,ok,2,0,0.003,11,-0.1716,0.54,-1.47,10.12,55,0.180,8.21
10.9554,0.00175,-0.06458,0.34732,0.00000,0.00000,0.00000,61,14,11,12,67,0,55,-13,ok,2,0,0.003,11,-0.1753,-0.17,-0.36,10.46,56,0.000,8.21
10.9589,0.00175,-0.06458,0.34732,0.00000,0.00000,0.00000,61,15,13,13,67,0,53,-13,ok,2,0,0.003,11,-0.1791,-0.17,-0.36,10.46,56,0.015,8.21
10.9714,0.00175,-0.06458,0.34732,0.00000,0.00000,0.00000,61,16,13,12,68,1,50,-13,ok,2,0,0.003,11,-0.1828,-0.17,-0.36,10.46,56,0.027,8.21
10.9972,0.00175,-0.06458,0.34732,0.00000,0.00000,0.00000,62,16,14,11,69,1,47,-12,ok,2,0,0.003,11,-0.1866,-0.17,-0.36,10.46,56,0.040,8.21
11.0031,0.00175,-0.06458,0.34732,0.00000,0.00000,0.00000,62,18,16,11,69,2,45,-11,ok,2,0,0.003,11,-0.1903,-0.17,-0.36,10.46,56,0.057,8.21
11.0141,0.00175,-0.06458,0.34732,0.00000,0.00000,0.00000,62,18,16,10,69,2,41,-10,ok,2,0,0.003,11,-0.1941,-0.17,-0.36,10.46,56,0.069,8.21
11.0355,0.00175,-0.06458,0.34732,0.00000,0.00000,0.00000,63,19,18,9,70,3,39,-9,ok,2,0,0.003,11,-0.1978,-0.17,-0.36,10.46,56,0.082,8.21
11.0398,0.00175,-0.06458,0.34732,0.00000,0.00000,0.00000,63,20,18,8,70,4,35,-7,ok,2,0,0.003,11,-0.2016,-0.17,-0.36,10.46,56,0.095,8.21
11.0523,0.00175,-0.06458,0.34732,0.00000,0.00000,0.00000,64,21,20,7,71,4,34,-6,ok,2,0,0.003,11,-0.2053,-0.17,-0.36,10.46,56,0.108,8.21
11.0756,0.00175,-0.06458,0.34732,0.00000,0.00000,0.00000,63,22,21,7,71,5,32,-4,ok,2,0,0.003,11,-0.2091,-0.17,-0.36,10.46,56,0.120,8.21
11.0809,0.00175,-0.06458,0.34732,0.00000,0.00000,0.00000,63,23,22,6,71,7,30,-1,ok,2,0,0.003,11,-0.2128,-0.17,-0.36,10.46,56,0.135,8.21
11.0924,0.00175,-0.06458,0.34732,0.00000,0.00000,0.00000,63,24,24,6,71,7,28,1,ok,2,0,0.003,11,-0.2166,-0.17,-0.36,10.46,56,0.148,8.21
11.1155,0.00175,-0.06458,0.34732,0.00000,0.00000,0.00000,62,25,25,5,71,8,27,5,ok,2,0,0.003,11,-0.2203,-0.17,-0.36,10.46,56,0.160,8.21
11.1191,0.00175,-0.06458,0.34732,0.00000,0.00000,0.00000,62,28,26,5,71,10,27,7,ok,2,0,0.003,11,-0.2241,-0.17,-0.36,10.46,56,0.175,8.21
11.1318,0.00175,-0.06458,0.34732,0.00000,0.00000,0.00000,62,29,27,4,71,11,29,6,ok,2,0,0.003,11,-0.2278,-0.17,-0.36,10.46,56,0.187,8.21
11.1554,0.07330,-0.05411,0.35081,0.00000,0.00000,0.00000,62,28,29,4,71,12,29,5,ok,2,0,0.003,11,-0.2316,-1.23,0.46,9.08,57,0.000,8.21
11.1591,0.07330,-0.05411,0.35081,0.00000,0.00000,0.00000,64,25,30,3,72,14,30,3,ok,2,0,0.003,11,-0.2353,-1.23,0.46,9.08,57,0.015,8.21
11.1716,0.07330,-0.05411,0.35081,0.00000,0.00000,0.00000,66,21,31,2,71,15,32,2,ok,2,0,0.003,11,-0.2391,-1.23,0.46,9.08,57,0.027,8.21
11.1913,0.07330,-0.05411,0.35081,0.00000,0.00000,0.00000,66,17,33,2,71,18,33,2,ok,2,0,0.003,11,-0.2428,-1.23,0.46,9.08,57,0.040,8.21
11.1963,0.07330,-0.05411,0.35081,0.00000,0.00000,0.00000,67,15,34,2,72,18,34,1,ok,2,0,0.003,11,-0.2466,-1.23,0.46,9.08,57,0.052,8.21
11.2090,0.07330,-0.05411,0.35081,0.00000,0.00000,0.00000,66,14,35,2,71,20,36,1,ok,2,0,0.003,11,-0.2503,-1.23,0.46,9.08,57,0.065,8.21
11.2313,0.07330,-0.05411,0.35081,0.00000,0.00000,0.00000,66,11,37,2,71,21,38,1,ok,2,0,0.003,11,-0.2541,-1.23,0.46,9.08,57,0.077,8.21
11.2346,0.07330,-0.05411,0.35081,0.00000,0.00000,0.00000,65,7,38,2,71,23,39,1,ok,2,0,0.003,11,-0.2578,-1.23,0.46,9.08,57,0.091,8.21
11.2474,0.07330,-0.05411,0.35081,0.00000,0.00000,0.00000,65,5,39,2,71,25,40,1,ok,2,0,0.003,11,-0.2616,-1.23,0.46,9.08,57,0.103,8.21
11.2715,0.07330,-0.05411,0.35081,0.00000,0.00000,0.00000,64,1,41,2,70,27,42,1,ok,2,0,0.003,11,-0.2653,-1.23,0.46,9.08,57,0.116,8.21
11.2749,0.07330,-0.05411,0.35081,0.00000,0.00000,0.00000,63,-1,42,1,70,28,43,1,ok,2,0,0.003,11,-0.2691,-1.23,0.46,9.08,57,0.131,8.21
11.2877,0.07330,-0.05411,0.35081,0.00000,0.00000,0.00000,62,-3,44,2,70,28,44,0,ok,2,0,0.003,11,-0.2728,-1.23,0.46,9.08,57,0.144,8.21
11.3115,0.07330,-0.05411,0.35081,0.00000,0.00000,0.00000,60,-4,44,2,72,28,45,0,ok,2,0,0.003,11,-0.2766,-1.23,0.46,9.08,57,0.156,8.21
11.3155,0.07330,-0.05411,0.35081,0.00000,0.00000,0.00000,59,-6,46,2,73,25,46,0,ok,2,0,0.003,11,-0.2803,-1.23,0.46,9.08,57,0.171,8.21
11.3288,0.07330,-0.05411,0.35081,0.00000,0.00000,0.00000,59,-8,47,2,75,21,47,0,ok,2,0,0.003,11,-0.2841,-1.23,0.46,9.08,57,0.184,8.21
11.3514,0.07330,-0.05411,0.35081,0.00000,0.00000,0.00000,57,-9,48,3,77,16,49,0,ok,2,0,0.003,11,-0.2878,-1.23,0.46,9.08,57,0.198,8.21
11.3551,0.01222,0.02618,0.37001,0.00000,0.00000,0.00000,56,-10,49,3,78,14,49,0,ok,2,0,0.003,11,-0.2916,-0.91,0.32,10.08,58,0.000,8.21
11.3709,0.01222,0.02618,0.37001,0.00000,0.00000,0.00000,54,-11,50,3,78,13,50,0,ok,2,0,0.003,11,-0.2953,-0.91,0.32,10.08,58,0.013,8.21
11.3959,0.01222,0.02618,0.37001,0.00000,0.00000,0.00000,52,-12,50,5,78,11,51,0,ok,2,0,0.003,11,-0.2991,-0.91,0.32,10.08,58,0.025,8.21
11.3993,0.01222,0.02618,0.37001,0.00000,0.00000,0.00000,51,-11,51,6,78,7,52,0,ok,2,0,0.003,11,-0.3028,-0.91,0.32,10.08,58,0.044,8.21
11.4122,0.01222,0.02618,0.37001,0.00000,0.00000,0.00000,49,-11,52,5,78,4,53,0,ok,2,0,0.003,11,-0.3066,-0.91,0.32,10.08,58,0.057,8.21
11.4354,0.01222,0.02618,0.37001,0.00000,0.00000,0.00000,47,-11,53,6,77,2,54,0,ok,2,0,0.003,11,-0.3103,-0.91,0.32,10.08,58,0.070,8.21
11.4393,0.01222,0.02618,0.37001,0.00000,0.00000,0.00000,45,-11,54,7,77,-1,54,1,ok,2,0,0.003,11,-0.3141,-0.91,0.32,10.08,58,0.084,8.21
11.4521,0.01222,0.02618,0.37001,0.00000,0.00000,0.00000,44,-11,56,7,76,-3,55,0,ok,2,0,0.003,11,-0.3178,-0.91,0.32,10.08,58,0.097,8.21
11.4714,0.01222,0.02618,0.37001,0.00000,0.00000,0.00000,43,-10,56,7,75,-5,56,0,ok,2,0,0.003,11,-0.3216,-0.91,0.32,10.08,58,0.109,8.21
11.4769,0.01222,0.02618,0.37001,0.00000,0.00000,0.00000,40,-9,57,8,73,-8,57,-1,ok,2,0,0.003,11,-0.3253,-0.91,0.32,10.08,58,0.122,8.21
11.4891,0.01222,0.02618,0.37001,0.00000,0.00000,0.00000,39,-8,57,8,71,-7,57,0,ok,2,0,0.003,11,-0.3291,-0.91,0.32,10.08,58,0.134,8.21
11.5114,0.01222,0.02618,0.37001,0.00000,0.00000,0.00000,36,-6,58,9,70,-9,58,0,ok,2,0,0.003,11,-0.3328,-0.91,0.32,10.08,58,0.147,8.21
11.5148,0.01222,0.02618,0.37001,0.00000,0.00000,0.00000,34,-4,59,9,68,-11,59,1,ok,2,0,0.003,11,-0.3366,-0.91,0.32,10.08,58,0.160,8.21
11.5273,0.01222,0.02618,0.37001,0.00000,0.00000,0.00000,32,-2,60,11,66,-12,60,0,ok,2,0,0.003,11,-0.3403,-0.91,0.32,10.08,58,0.173,8.21
11.5515,0.01222,0.02618,0.37001,0.00000,0.00000,0.00000,31,-1,61,11,64,-13,61,0,ok,2,0,0.003,11,-0.3441,-0.91,0.32,10.08,58,0.185,8.21
11.5554,0.01222,0.02618,0.37001,0.00000,0.00000,0.00000,30,0,62,11,62,-13,63,-2,ok,2,0,0.003,11,-0.3478,-0.91,0.32,10.08,58,0.200,8.21
11.5683,0.03491,-0.00349,0.39095,0.00000,0.00000,0.00000,29,3,62,12,59,-14,63,-1,ok,2,0,0.003,11,-0.3516,-0.71,0.20,9.72,59,0.000,8.21
